timestamp_ms,ir_finger,ir_toe,temp_finger,temp_toe,ax,ay,az,gx,gy,gz
0,1049,774,33.799,26.821,0.0312,0.0091,9.8227,0.7232,0.4802,-0.1731
5,1056,769,33.726,26.794,0.0618,-0.045,9.8424,-0.0794,0.1728,-0.6002
10,1072,769,33.843,26.803,-0.0176,0.0332,9.8575,-0.1903,-0.3811,0.3767
15,1080,765,33.905,26.85,-0.0417,-0.0668,9.7309,0.1989,0.292,0.7876
20,1091,762,33.728,26.91,0.0645,-0.106,9.7873,0.0387,-0.338,-0.1832
25,1098,768,33.775,26.881,0.0012,-0.0077,9.6965,0.2695,0.2392,-0.526
30,1118,762,33.799,26.847,-0.0203,-0.0271,9.8083,-0.4363,-0.5713,0.1482
35,1117,760,33.759,26.801,-0.125,0.0515,9.8077,0.592,0.4813,-0.1679
40,1127,762,33.852,26.959,0.0062,-0.0302,9.8705,-1.2263,0.1587,0.5843
45,1132,757,33.824,26.918,0.052,-0.0572,9.8403,0.3217,0.4801,0.9784
50,1146,759,33.773,26.888,0.0495,-0.0404,9.8034,0.5066,-0.0229,0.8658
55,1159,756,33.824,26.828,-0.0649,0.0141,9.8604,0.4104,-0.1202,-0.2079
60,1157,757,33.75,26.874,0.0272,-0.1983,9.9466,-0.6929,0.2788,-0.375
65,1161,749,33.854,26.835,0.0913,-0.0171,9.7595,-0.3147,-0.0451,0.3923
70,1167,749,33.736,26.819,0.0375,0.026,9.7552,0.3598,0.5894,0.3959
75,1171,751,33.801,26.935,0.0136,-0.0418,9.8106,0.6455,-0.727,-0.3122
80,1178,754,33.797,26.897,0.004,-0.0547,9.7263,-0.0069,-0.657,0.1511
85,1192,751,33.827,26.901,0.0593,-0.0544,9.7756,0.1444,-0.1935,-0.0648
90,1185,747,33.912,26.897,-0.0308,0.0023,9.7616,0.3349,0.171,0.0044
95,1193,754,33.727,26.848,0.0002,-0.0793,9.7576,0.0665,0.5839,0.5174
100,1197,751,33.872,26.934,0.011,0.0984,9.8427,0.7146,0.127,-0.4218
105,1187,748,33.849,26.78,-0.0054,0.0,9.8383,-0.1853,0.1005,-0.1667
110,1198,745,33.814,26.847,0.1271,-0.057,9.8309,0.1384,0.1002,-0.8964
115,1181,749,33.925,26.872,0.1033,-0.0252,9.7566,-0.4357,0.1728,1.0712
120,1190,748,33.823,26.902,-0.0029,0.059,9.8076,-0.6016,-0.1057,0.2865
125,1190,753,33.806,26.869,0.0015,0.0047,9.8365,0.0667,0.1032,0.789
130,1189,750,33.768,26.872,-0.0168,0.0104,9.8793,0.0924,0.2057,0.7282
135,1176,752,33.75,26.908,0.1241,-0.0059,9.8084,-1.3146,-0.0659,-0.4138
140,1177,754,33.772,26.893,0.0262,-0.066,9.8124,-0.2775,-0.4632,-0.0378
145,1177,758,33.844,26.858,-0.0104,0.0027,9.8818,-0.0465,0.1136,-0.0931
150,1183,753,33.702,26.883,0.0743,-0.037,9.7854,1.1422,0.2054,0.6836
155,1168,761,33.718,26.843,-0.0179,0.0525,9.8125,0.514,0.5533,0.625
160,1163,761,33.872,26.915,-0.1779,0.0714,9.8573,-0.172,-0.0555,0.7516
165,1166,760,33.846,26.946,0.0503,-0.0375,9.9051,-1.1069,-0.2007,-0.2799
170,1155,763,33.758,26.804,0.029,-0.03,9.8109,-0.1666,-0.4732,0.3619
175,1157,773,33.765,26.812,-0.0731,0.0387,9.7738,0.5056,0.2814,-0.5507
180,1152,768,33.749,26.841,-0.0052,0.0271,9.8255,0.027,-0.1519,-0.6754
185,1150,773,33.773,26.895,0.0076,0.0441,9.799,0.1508,-0.1597,-0.2268
190,1144,776,33.843,26.852,0.0129,-0.0264,9.8424,0.6071,0.1545,0.0137
195,1136,776,33.814,26.84,0.0897,-0.0161,9.8556,-0.0449,-0.4284,0.5826
200,1130,780,33.819,26.88,-0.0056,-0.0436,9.7704,-0.0002,-0.1603,0.0654
205,1131,780,33.941,26.926,-0.0435,-0.0001,9.834,0.0357,1.0,-0.242
210,1131,784,33.785,26.834,0.0021,0.0011,9.7629,0.9288,-0.2614,0.1429
215,1132,792,33.779,26.863,0.0788,0.0072,9.8499,0.2663,0.139,0.443
220,1128,787,33.802,26.957,-0.0057,-0.0952,9.7982,0.51,0.6021,0.7624
225,1113,796,33.736,26.842,0.0368,0.0556,9.8463,-0.6177,-0.9171,-0.4337
230,1116,799,33.808,26.923,-0.0477,-0.075,9.8145,-0.1431,-0.6062,0.3859
235,1117,797,33.763,26.862,0.014,-0.0233,9.7757,-0.6958,-0.9615,-0.7082
240,1106,806,33.775,26.833,-0.0157,0.0273,9.7504,-0.0479,-0.3252,0.0014
245,1105,807,33.827,26.857,0.0001,-0.062,9.8418,0.0201,-0.1792,-0.1091
250,1102,807,33.824,26.866,-0.0774,0.0504,9.7804,-0.0393,-0.5106,0.507
255,1089,813,33.769,26.872,0.0185,-0.0036,9.8226,-0.9144,-0.0812,-0.5637
260,1102,811,33.767,26.877,-0.0111,-0.0438,9.8363,0.4604,0.6727,-0.158
265,1086,820,33.862,26.906,-0.0181,0.0566,9.7938,-0.2496,0.3704,0.2734
270,1093,818,33.787,26.909,0.0529,0.0146,9.7721,-0.0351,-0.4472,0.2939
275,1090,820,33.769,26.868,-0.0011,0.0609,9.7717,0.7194,-0.2599,0.4277
280,1089,820,33.813,26.904,0.0801,0.1084,9.761,-0.0265,-0.1347,0.4348
285,1088,824,33.676,26.824,0.0098,0.0075,9.8462,-0.4701,-0.0512,0.9799
290,1084,827,33.764,26.908,0.0055,-0.0337,9.823,-0.0798,0.1128,-1.3849
295,1082,827,33.77,26.798,-0.0062,-0.1122,9.8164,-0.3263,-0.1324,-0.3258
300,1083,827,33.774,26.842,-0.0075,-0.0594,9.8161,-0.186,-0.4474,-0.8751
305,1082,830,33.938,26.822,0.0189,-0.0967,9.8974,0.4467,-0.547,-0.3363
310,1073,828,33.864,26.876,0.0479,-0.003,9.8305,-0.7662,0.8056,0.4562
315,1075,830,33.713,26.852,0.0365,0.0982,9.9455,0.1492,0.2238,0.269
320,1074,829,33.815,26.897,-0.0508,0.0551,9.7733,-0.0234,0.0095,0.2985
325,1057,837,33.856,26.875,-0.0346,0.0324,9.7474,-0.4177,0.1556,0.7458
330,1065,835,33.803,26.846,0.0392,-0.0849,9.7807,-0.1238,0.3797,-0.8028
335,1052,837,33.863,26.752,-0.0845,-0.0363,9.8748,-0.529,0.3681,0.2074
340,1047,836,33.828,26.849,0.0279,0.0657,9.8733,0.6072,-0.4155,-0.1563
345,1044,840,33.862,26.821,0.0448,0.1041,9.8309,0.0711,0.0185,-0.2098
350,1037,837,33.753,26.845,0.0142,0.0569,9.742,0.2735,0.6682,-1.031
355,1030,838,33.839,26.778,-0.0609,-0.0483,9.8959,0.0575,-1.3399,0.5123
360,1018,839,33.794,26.944,-0.0337,0.0375,9.8303,1.4193,-0.0259,0.5091
365,1019,839,33.868,26.867,0.0657,0.0827,9.8181,0.0189,-0.2644,0.3375
370,1007,839,33.851,26.855,0.0197,0.0259,9.7853,0.359,-0.4284,0.7919
375,1017,838,33.797,26.889,-0.0535,0.0233,9.8046,0.1624,-0.1055,-0.1255
380,996,836,33.847,26.86,-0.0501,0.0012,9.8401,0.9369,-0.4636,-0.6198
385,993,836,33.821,26.833,0.0044,0.0552,9.8404,0.048,0.2098,-0.6386
390,991,837,33.803,26.836,-0.009,0.0313,9.7079,-0.0246,0.2895,-0.6069
395,979,837,33.732,26.866,-0.0304,-0.0171,9.7967,0.4733,0.3811,-0.3995
400,972,838,33.864,26.85,-0.0362,-0.0147,9.8816,0.5794,0.8749,0.3866
405,962,833,33.785,26.927,-0.012,-0.0397,9.8302,-0.1771,-0.8393,-0.0851
410,943,834,33.878,26.846,0.0125,0.0131,9.8511,0.1062,0.2113,0.3377
415,945,829,33.756,26.768,0.0151,-0.0694,9.7387,0.7208,-0.6368,0.3421
420,928,832,33.758,26.849,0.0177,0.0048,9.7552,0.1172,0.3202,-0.2853
425,926,830,33.798,26.777,0.0008,0.0607,9.8217,0.0134,-0.3116,0.1336
430,909,828,33.804,26.82,-0.0346,0.0028,9.8032,-0.0607,0.1122,0.902
435,907,830,33.868,26.828,-0.0498,0.0789,9.9477,0.3948,0.8731,0.7878
440,897,826,33.873,26.86,0.003,0.0266,9.911,-0.1987,-0.0908,0.1903
445,881,829,33.76,26.905,0.0358,-0.0745,9.7355,0.4713,0.1568,-0.6213
450,863,828,33.76,26.843,0.0389,0.0374,9.809,-0.6875,0.1596,-0.4263
455,870,825,33.805,26.794,-0.0234,0.0385,9.8059,-0.0764,0.2144,0.2613
460,854,826,33.77,26.961,-0.0245,0.0336,9.7997,0.1872,0.1474,-0.6971
465,831,822,33.848,26.883,-0.0707,0.0249,9.8196,-0.1119,-0.1066,-0.0274
470,833,825,33.816,26.81,-0.092,-0.0042,9.8743,-1.1243,0.0658,0.057
475,822,829,33.834,26.754,-0.0066,-0.0649,9.7709,-0.1999,0.82,0.5433
480,811,821,33.837,26.923,0.1256,-0.0039,9.792,0.4402,1.1426,-0.0414
485,803,820,33.856,26.766,-0.0339,-0.0571,9.7086,0.6002,-0.086,-0.8143
490,794,824,33.869,26.85,0.0071,0.0201,9.8057,0.8225,-0.0271,-0.4841
495,789,823,33.815,26.87,-0.0444,0.0424,9.7315,0.2059,-0.6255,0.1179
500,787,820,33.775,26.869,-0.004,0.033,9.787,-0.1893,0.1451,0.1146
505,777,822,33.878,26.853,-0.0003,-0.0543,9.846,0.8058,-0.261,0.1033
510,766,819,33.8,26.945,0.0166,-0.0666,9.866,-0.2247,-0.286,-0.7704
515,760,820,33.851,26.89,0.0784,0.0218,9.86,-0.4728,1.048,0.4029
520,749,819,33.855,26.91,0.0639,0.0431,9.8655,-0.1355,0.2964,-0.6129
525,750,816,33.847,26.871,0.0018,0.0475,9.8132,-0.8671,0.4383,0.2531
530,751,818,33.812,26.845,-0.023,0.0397,9.7859,0.3591,-0.0818,0.4866
535,743,817,33.781,26.81,-0.1264,0.0424,9.8655,0.8278,0.692,0.6219
540,751,814,33.721,26.838,0.0904,-0.054,9.7524,-0.3381,-0.5387,0.1777
545,749,818,33.791,26.828,-0.0043,-0.0016,9.815,0.1704,0.3971,0.5
550,745,815,33.779,26.899,0.0393,0.0132,9.8048,-0.32,0.9307,0.24
555,746,813,33.9,26.782,-0.0045,0.0169,9.7701,0.2731,-0.5504,-0.0799
560,748,816,33.7,26.961,-0.0446,0.0354,9.7494,1.3975,0.9375,0.5769
565,754,818,33.859,26.787,-0.0651,0.0339,9.8465,-0.2729,0.733,0.2134
570,758,813,33.787,26.869,0.0379,0.0703,9.7966,0.1136,-0.3189,0.1698
575,761,816,33.797,26.799,-0.0115,-0.0051,9.8337,0.107,-0.4699,0.6269
580,774,805,33.771,26.86,-0.0033,0.0243,9.7978,-0.6314,-0.1917,0.4077
585,781,806,33.873,26.85,0.0902,0.0834,9.8724,0.7672,0.3554,-0.6298
590,783,813,33.803,26.8,-0.0026,0.0608,9.8177,-0.0791,-0.4689,-0.2723
595,789,810,33.877,26.809,-0.0499,-0.051,9.8896,0.1479,0.8954,0.2634
600,799,804,33.972,26.93,-0.076,-0.0581,9.8314,-0.2244,0.3076,-0.1355
605,810,805,33.84,26.796,-0.0443,-0.0383,9.9153,0.2464,-0.287,0.749
610,818,808,33.85,26.86,-0.057,-0.0165,9.7913,-0.4458,0.5659,-1.1553
615,837,803,33.765,26.818,-0.0499,-0.0233,9.8697,-0.9134,-0.8736,0.2598
620,844,802,33.855,26.895,-0.0881,-0.0251,9.8165,0.5167,-0.0194,-0.1807
625,853,804,33.835,26.863,0.0353,-0.0409,9.8293,-0.0665,0.3283,-0.2859
630,873,802,33.7,26.834,0.0264,0.0279,9.808,0.6288,0.4534,-0.0849
635,885,801,33.84,26.913,0.0868,0.0917,9.8214,0.0144,-0.1303,-0.1344
640,895,796,33.898,26.859,0.05,0.0829,9.8464,-0.0586,0.1007,-0.7895
645,911,796,33.88,26.907,0.0275,0.0343,9.7663,0.507,0.1212,-0.3506
650,916,791,33.847,26.785,0.048,-0.0136,9.8545,-0.1147,0.4688,0.705
655,936,790,33.798,26.914,-0.02,-0.0869,9.8955,-0.8815,0.041,-0.6092
660,944,786,33.789,26.9,-0.019,0.0846,9.8777,-0.0433,0.2689,-0.4928
665,960,788,33.775,26.886,0.0164,-0.059,9.7832,0.2347,0.9234,0.6459
670,979,789,33.806,26.835,-0.0594,-0.012,9.7741,0.1044,-0.6114,-0.3433
675,998,788,33.906,26.76,0.047,0.0049,9.74,0.4666,0.8694,0.886
680,1009,788,33.845,26.864,-0.0891,0.0209,9.7832,-0.1005,-0.098,0.0182
685,1011,783,33.771,26.838,0.0407,-0.1011,9.8726,0.1527,-0.4948,0.1957
690,1036,779,33.783,26.849,0.1263,0.022,9.8223,0.3228,-0.8529,-0.5081
695,1043,774,33.842,26.787,-0.0283,0.0748,9.7567,-0.2239,-0.062,-0.7675
700,1048,775,33.809,26.831,-0.0582,0.0283,9.8141,0.5334,0.5252,0.4477
705,1067,770,33.857,26.824,0.0481,0.0868,9.7355,-0.8265,-0.4037,-0.9468
710,1077,766,33.806,26.863,-0.0529,0.0606,9.8879,0.0464,-0.1982,-0.6932
715,1096,765,33.767,26.837,0.0252,0.0246,9.7115,-0.6333,-0.1163,0.1832
720,1099,767,33.738,26.859,-0.0068,-0.0448,9.8418,0.1488,-0.0227,0.3532
725,1114,765,33.912,26.9,-0.0429,0.0042,9.834,-0.5333,0.3632,-0.3611
730,1119,761,33.836,26.949,-0.0386,0.0238,9.8282,-0.0879,0.409,0.1517
735,1126,764,33.814,26.82,0.0045,0.0192,9.8901,-0.8112,-0.3643,-0.6607
740,1129,755,33.835,26.873,0.0965,0.0824,9.7861,-0.6844,0.2421,0.4003
745,1148,759,33.85,26.822,0.0715,-0.0203,9.827,0.2679,0.2898,-0.2512
750,1158,753,33.757,26.988,0.0053,-0.0474,9.8903,0.0283,0.7289,0.2158
755,1158,755,33.795,26.908,-0.0737,0.0637,9.7879,0.0706,0.1857,0.0618
760,1163,752,33.813,26.891,-0.0396,-0.0297,9.8282,1.0305,0.6855,-0.3287
765,1167,756,33.737,26.873,-0.0124,-0.0144,9.7782,-0.0509,-0.8702,-0.0407
770,1167,748,33.787,26.913,-0.0269,-0.0195,9.8888,-0.2692,-0.836,-0.4401
775,1173,745,33.823,26.915,0.014,0.0339,9.8342,1.2755,0.3313,0.3146
780,1182,751,33.822,26.83,-0.0446,0.0866,9.8895,0.1136,0.9804,1.0322
785,1183,748,33.798,26.847,0.0088,-0.1056,9.865,-0.1526,-0.5075,0.455
790,1183,747,33.8,26.848,0.0351,-0.0262,9.781,-0.0769,-0.0545,-0.5955
795,1185,750,33.795,26.931,-0.0017,-0.0357,9.826,0.1725,0.7325,0.2419
800,1187,744,33.883,26.811,0.0265,0.0345,9.836,-0.8518,-0.0621,-0.056
805,1183,751,33.799,26.875,-0.0536,0.0727,9.7476,-0.0016,-0.8164,0.4828
810,1176,753,33.851,26.86,0.0378,0.0839,9.7906,0.6154,0.0557,0.7962
815,1187,751,33.858,26.896,0.037,0.0258,9.8301,-0.1219,0.0692,0.2397
820,1186,747,33.785,26.859,0.0311,0.0359,9.7751,-0.3389,-0.4422,-0.7994
825,1184,751,33.876,26.845,0.0382,-0.0154,9.7782,-1.0212,-0.4115,-0.2838
830,1174,758,33.949,26.812,0.0595,-0.0296,9.7729,0.1054,0.0036,0.3099
835,1172,750,33.692,26.858,-0.0513,0.0415,9.8342,-0.4047,0.7631,-0.4468
840,1172,755,33.825,26.826,0.0234,-0.0286,9.7309,-0.0628,0.1659,-0.4842
845,1167,760,33.847,26.897,-0.0515,0.022,9.7569,0.526,0.6884,0.2361
850,1165,759,33.846,26.785,-0.0763,0.0162,9.8616,-0.7584,0.0865,-1.5218
855,1159,764,33.768,26.883,0.0345,0.0234,9.8244,0.5746,0.568,0.1803
860,1161,761,33.793,26.956,-0.0701,0.0517,9.8211,-0.2247,0.4206,0.9904
865,1158,766,33.775,26.889,0.0178,0.0352,9.7788,-0.7986,-0.68,0.5924
870,1155,767,33.837,26.812,0.0852,-0.0172,9.7728,0.1076,-0.0883,-0.3397
875,1144,773,33.803,26.848,-0.0066,-0.0392,9.8284,-1.1632,0.0786,0.6094
880,1149,778,33.888,26.789,-0.0024,-0.0302,9.7539,0.8144,0.2355,-0.0547
885,1141,779,33.749,26.884,-0.0352,0.0099,9.8833,0.4085,0.0871,0.0239
890,1144,783,33.857,26.869,0.0156,0.0855,9.8106,0.0699,-0.0773,0.3246
895,1145,779,33.781,26.944,-0.0111,-0.0841,9.7981,-0.2785,0.166,-0.9019
900,1138,790,33.821,26.907,0.1036,-0.096,9.8624,0.4263,-0.1624,-0.0778
905,1137,790,33.887,26.843,0.0044,-0.0421,9.8188,0.0285,-0.5559,-0.5472
910,1124,791,33.829,26.847,0.0327,-0.0107,9.7965,0.2406,-0.7262,-0.7571
915,1114,789,33.814,26.87,-0.0447,-0.0771,9.6833,0.2645,-0.2527,-0.3095
920,1118,799,33.89,26.867,-0.132,-0.0041,9.7179,-0.2871,-0.4233,1.1622
925,1119,803,33.873,26.804,0.045,-0.0148,9.7978,-0.5456,0.1106,0.0238
930,1111,794,33.838,26.75,0.0395,0.0533,9.8471,0.2536,0.3767,1.0163
935,1110,801,33.653,26.906,-0.0321,0.0612,9.753,0.4022,0.6358,0.0739
940,1109,802,33.785,26.944,-0.0226,-0.0176,9.7798,-0.184,-0.717,0.1693
945,1095,805,33.803,26.769,-0.0094,-0.0108,9.8101,-0.7665,0.286,-0.3928
950,1108,808,33.834,26.825,0.0395,0.0702,9.8598,-0.142,0.2073,-0.0947
955,1094,807,33.762,26.848,0.0445,0.0349,9.7731,-0.3097,0.1154,0.1933
960,1103,816,33.761,26.765,-0.1024,-0.0852,9.7703,0.1773,-0.7591,-0.2568
965,1096,821,33.954,26.88,0.0039,-0.0418,9.7805,-0.2352,0.2015,-1.1065
970,1093,821,33.772,26.841,-0.0467,-0.0891,9.8287,0.0699,0.0857,-0.132
975,1084,820,33.863,26.967,0.0077,0.0537,9.8522,-0.4742,0.8953,0.1649
980,1079,824,33.772,26.968,0.074,0.0235,9.8448,0.6404,-0.1832,-0.0752
985,1092,829,33.831,26.889,-0.0048,0.0276,9.9264,0.5001,-0.0461,0.4876
990,1082,827,33.937,26.827,0.0215,0.0922,9.7734,-0.4147,0.5393,-0.4389
995,1085,829,33.781,26.923,-0.0379,-0.0503,9.744,0.2357,-0.0626,0.4395
1000,1076,829,33.839,26.834,0.0062,-0.0818,9.8564,-0.3903,-0.8001,-0.1363
1004,1070,828,33.816,26.843,-0.024,-0.134,9.8184,0.2159,-0.2847,-0.4154
1010,1077,836,33.683,26.874,-0.0374,0.0171,9.7983,0.0602,0.7485,-0.5767
1014,1060,836,33.776,26.845,0.0364,-0.0012,9.8878,0.1019,0.3513,-0.0804
1020,1063,837,33.829,26.947,-0.0495,-0.0691,9.8141,0.7809,-0.4218,0.8286
1025,1060,836,33.823,26.837,0.0502,-0.0068,9.8465,0.4279,0.2726,-0.6667
1030,1049,831,33.766,26.884,0.0349,0.0029,9.722,1.0341,0.2768,-0.1922
1035,1048,833,33.825,26.858,0.0306,0.0768,9.7902,0.6265,-0.3266,-0.3878
1040,1043,835,33.845,26.766,0.0119,0.084,9.7544,-0.0389,0.3423,-0.0151
1045,1033,838,33.76,26.895,-0.0017,0.0165,9.9248,-0.8002,-0.5108,0.2481
1050,1034,840,33.75,26.864,-0.001,0.0557,9.7478,-0.3712,0.5273,-0.3994
1055,1029,839,33.883,26.886,0.0533,-0.019,9.8672,0.5366,-0.6914,-0.6361
1060,1026,832,33.728,26.95,0.0664,-0.027,9.8276,-0.7879,0.9104,-0.0138
1065,1011,840,33.773,26.924,0.0161,-0.0527,9.7606,0.4235,0.2056,0.3615
1070,1003,840,33.817,26.902,-0.0296,-0.0713,9.9419,-0.4283,0.2365,-0.1996
1075,994,832,33.807,26.842,0.0391,-0.0041,9.8721,-0.6713,-0.6054,0.0384
1080,991,837,33.83,26.896,-0.0803,-0.0212,9.7976,0.5708,-0.008,-0.1632
1085,982,837,33.83,26.869,-0.0338,-0.0434,9.7578,0.2429,-0.3666,-0.0907
1090,976,837,33.826,26.813,-0.0527,0.0285,9.7982,0.5411,1.0807,0.4095
1095,974,834,33.748,26.84,-0.042,-0.0493,9.7931,0.3103,0.3511,-0.1713
1100,955,837,33.798,26.844,0.0384,-0.0675,9.7553,0.4671,0.2856,0.6015
1105,942,835,33.778,26.827,0.0694,-0.0049,9.8184,-0.4872,-0.3101,-0.3304
1110,945,827,33.76,26.835,0.0166,0.0078,9.7701,0.4818,-0.4017,-0.6774
1115,932,829,33.853,26.76,0.0238,0.0412,9.7809,-0.4372,-0.7736,-0.0397
1120,924,834,33.746,26.829,0.0656,-0.0317,9.8113,-0.393,-0.232,0.049
1125,921,827,33.942,26.922,0.0884,0.0014,9.8963,-0.1263,-0.261,-0.2291
1130,890,827,33.786,26.924,0.0384,-0.0021,9.8034,-0.0782,0.054,-0.3897
1135,884,826,33.819,26.877,-0.0059,0.0613,9.87,-0.4978,-0.3001,-0.5477
1140,874,832,33.898,26.816,0.0038,0.0201,9.774,-0.439,0.0561,-0.6105
1145,866,833,33.827,26.9,-0.0306,0.0005,9.7965,-0.3824,0.0485,-0.1645
1150,854,829,33.781,26.978,0.0682,-0.0055,9.7751,0.1521,0.2259,-0.0458
1155,843,830,33.862,26.793,0.0341,-0.094,9.8093,-0.4922,-0.4207,-0.7411
1160,835,826,33.763,26.972,0.0312,-0.0051,9.7865,0.8311,0.0638,-0.5328
1165,823,828,33.837,26.823,-0.0163,-0.0367,9.8503,0.7971,-0.1542,0.2782
1170,812,824,33.865,26.83,-0.0193,-0.0344,9.8097,0.3107,-0.5289,0.4121
1175,812,825,33.844,26.808,-0.0079,-0.0101,9.7944,0.2614,0.373,1.4405
1180,802,821,33.754,26.898,0.0546,0.07,9.8567,0.9777,0.5843,0.6438
1185,791,818,33.791,26.843,-0.0141,0.0092,9.8491,0.9623,-0.0472,-0.2229
1190,785,818,33.869,26.889,-0.0051,0.043,9.7678,-0.2796,-0.1566,-0.4532
1195,779,828,33.801,26.962,-0.0901,-0.0843,9.6664,1.2345,-0.4596,-0.3813
1200,776,819,33.855,26.878,-0.0084,0.0175,9.7546,-0.1881,-0.2295,0.068
1205,771,815,33.84,26.846,0.0523,0.0073,9.87,-0.0244,-0.9121,-0.1625
1210,764,814,33.809,26.841,0.125,0.0226,9.8198,-0.4117,0.303,0.7335
1215,767,820,33.867,26.925,-0.0116,-0.0332,9.8302,-0.6186,0.7932,0.1752
1220,747,815,33.868,26.817,-0.047,-0.0011,9.8065,-0.973,0.4159,-0.1416
1225,753,818,33.791,26.801,-0.0087,0.0726,9.833,-0.1842,-1.5492,-0.0282
1230,753,817,33.73,26.87,0.0222,-0.0146,9.7851,0.0648,-0.1334,-0.5349
1235,752,814,33.907,26.838,-0.0708,0.0352,9.8919,0.0442,0.2463,0.3439
1240,744,817,33.844,26.96,-0.006,0.0636,9.7236,0.0831,0.9438,1.411
1245,755,818,33.868,26.796,0.0864,0.0035,9.7688,0.4421,-0.741,-0.0969
1250,743,815,33.824,26.904,0.0425,0.0584,9.8402,1.044,0.23,-0.5198
1255,752,820,33.723,26.872,-0.0217,-0.0256,9.8281,-0.8859,0.5128,-0.7076
1260,767,815,33.838,26.846,-0.0043,-0.024,9.8068,0.0002,0.2003,-0.1362
1265,754,811,33.86,26.908,-0.0321,-0.0948,9.6991,-0.581,-0.9233,0.2185
1270,772,815,33.93,26.894,-0.0307,0.023,9.8121,0.2887,0.0338,-0.5788
1275,767,812,33.891,26.905,0.025,-0.0654,9.7431,-0.1951,-0.6957,-0.5316
1280,780,814,33.925,26.938,0.0617,0.016,9.7984,0.0574,1.0394,0.6192
1285,786,804,33.819,26.791,0.0009,0.0167,9.8285,-0.0023,0.0385,0.5027
1290,795,809,33.831,26.837,0.0169,-0.0162,9.8415,0.8876,-0.6802,-0.6774
1295,801,810,33.893,26.826,0.0763,-0.022,9.7782,0.1544,0.3213,-0.7772
1300,805,814,33.809,26.85,-0.0876,-0.0161,9.843,-0.5821,0.3109,-0.4791
1305,823,801,33.814,26.887,-0.067,0.1048,9.9055,0.428,-0.07,0.2241
1310,831,807,33.841,26.823,0.0737,0.003,9.8397,-0.8106,-1.4206,-0.0289
1315,840,802,33.847,26.964,-0.0542,-0.0706,9.756,0.5194,0.8521,-0.3048
1320,858,802,33.842,26.922,-0.0723,-0.0992,9.7876,-0.2865,-0.1591,0.0098
1325,859,801,33.817,26.88,-0.0133,0.0391,9.7967,-0.6455,0.2026,-0.0623
1330,880,797,33.871,26.789,-0.0025,-0.1096,9.815,0.5706,-0.2455,0.0912
1335,889,799,33.716,26.887,0.0174,0.0109,9.7999,0.0535,-0.1044,-0.7377
1340,903,792,33.796,26.814,0.0297,-0.0679,9.8453,-1.2325,-0.1426,-0.0312
1345,924,794,33.795,26.883,-0.0622,0.0036,9.7564,-0.3103,0.7569,0.006
1350,931,791,33.837,26.93,-0.0403,0.0481,9.8988,0.0829,-0.642,-0.58
1355,943,787,33.877,26.901,-0.0375,-0.0094,9.8194,-0.1918,0.3504,0.6537
1360,962,790,33.796,26.912,0.0087,0.0118,9.8293,0.5601,0.325,0.1008
1365,974,779,33.794,26.871,-0.0237,-0.019,9.8149,-0.2246,-0.3908,-0.0356
1370,984,783,33.788,26.982,-0.0855,0.0529,9.7773,-0.2323,0.1598,0.487
1375,1012,783,33.784,26.951,-0.0117,-0.0079,9.6826,-0.9804,-0.31,-0.5086
1380,1027,777,33.863,26.852,-0.0479,-0.0401,9.8509,-1.0332,0.5165,0.5689
1385,1024,778,33.842,26.817,-0.0163,0.0521,9.8704,0.1705,-0.1763,-0.3336
1390,1043,777,33.747,26.867,0.015,-0.0391,9.8292,-0.0805,-0.2923,0.6637
1395,1062,780,33.806,26.828,-0.0461,-0.029,9.8248,-0.3177,0.037,0.582
1400,1059,772,33.823,26.789,0.0355,-0.0164,9.8001,0.2098,0.2735,-1.0829
1405,1068,769,33.816,26.889,0.0032,0.0489,9.8421,-0.0304,0.0671,0.1416
1410,1102,760,33.82,26.813,0.0186,0.0192,9.7909,0.0341,0.2388,0.332
1415,1103,763,33.789,26.887,0.05,-0.0513,9.8291,0.6347,0.9467,0.5069
1420,1112,763,33.792,26.843,0.0481,0.0409,9.7836,-0.283,-0.5775,0.2765
1425,1130,755,33.805,26.9,0.0115,0.0866,9.7817,-0.7893,0.5393,0.0575
1430,1131,762,33.907,26.846,0.0082,-0.0181,9.814,0.181,0.0444,0.3556
1435,1139,758,33.847,26.887,-0.0656,-0.0682,9.849,-0.4023,-0.645,-0.0699
1440,1145,759,33.897,26.942,0.0664,0.06,9.8843,0.4647,-0.4329,-0.0347
1445,1152,755,33.837,26.912,-0.0263,0.0649,9.8101,0.0216,-0.2764,0.0347
1450,1157,753,33.757,26.874,0.0999,-0.0464,9.8927,0.1492,-0.2902,-0.1032
1455,1172,748,33.874,26.862,0.0879,0.0738,9.7902,0.4623,-0.6727,0.0014
1460,1172,750,33.697,26.872,0.03,0.0232,9.7955,0.7107,-0.0662,0.1795
1465,1180,749,33.853,26.884,-0.0134,0.007,9.7692,0.0219,1.02,0.4112
1470,1185,752,33.777,26.886,-0.0248,0.0431,9.8202,-0.343,-1.0826,0.4066
1475,1182,751,33.774,26.948,-0.0373,0.0229,9.7609,0.3023,0.4907,-0.4745
1480,1186,749,33.801,26.843,-0.048,-0.0425,9.778,-0.0566,1.1047,-0.2013
1485,1177,747,33.82,26.894,0.0568,-0.0241,9.7893,-0.1445,-0.183,0.3414
1490,1194,746,33.803,26.948,0.0659,0.0311,9.8557,0.411,-0.3025,-0.4841
1495,1190,751,33.805,26.94,0.0654,0.0508,9.7531,0.1723,-0.3363,-0.4412
1500,1183,750,33.73,26.884,-0.0243,0.0031,9.8605,0.4715,0.1116,0.306
1505,1180,754,33.888,26.839,-0.0012,0.0547,9.8355,0.167,-0.6901,-0.5425
1510,1182,754,33.855,26.897,0.0437,-0.0316,9.8279,0.5878,0.2928,-0.0737
1515,1183,754,33.916,26.947,-0.0185,-0.0303,9.7809,-0.504,-0.6111,-0.0053
1520,1186,748,33.817,26.81,-0.0309,-0.0252,9.7764,-0.2673,0.0342,0.1571
1525,1186,756,33.796,26.879,-0.0654,0.0464,9.8383,-0.3213,0.4113,0.14
1530,1176,753,33.977,26.755,-0.0139,0.0694,9.8823,0.3068,-0.8466,-0.3554
1535,1179,755,33.793,26.9,-0.0296,-0.049,9.6921,-0.0787,-0.3091,-0.6104
1540,1169,763,33.774,26.831,-0.0765,0.0189,9.7856,0.7965,0.0144,-0.5248
1545,1171,759,33.854,26.858,0.0022,-0.0291,9.8931,-0.7062,-0.7122,-0.2966
1550,1170,766,33.776,26.924,0.0977,0.0585,9.86,-0.4158,0.1915,0.5551
1555,1158,762,33.784,26.885,-0.0391,0.0372,9.7751,0.4707,0.3575,-0.5849
1560,1161,754,33.846,26.811,-0.0025,0.003,9.8274,-0.4972,0.0037,-0.0574
1565,1161,770,33.713,26.879,0.0259,-0.0343,9.8088,-0.9235,0.0668,0.0135
1570,1154,768,33.798,26.806,0.0516,-0.071,9.8583,-0.0875,0.555,0.2172
1575,1158,771,33.754,26.954,0.0399,0.0397,9.7724,-0.4857,0.0208,0.601
1580,1146,773,33.835,26.971,0.0141,0.0046,9.7927,-0.2254,0.5491,-0.6998
1585,1139,776,33.89,26.837,-0.0589,-0.0058,9.8625,0.4895,0.3963,0.4079
1590,1134,780,33.94,26.798,0.0862,0.0112,9.8052,-0.3512,0.1206,-0.0815
1595,1129,784,33.844,26.889,-0.0302,0.086,9.8038,-0.3196,-0.1941,0.2197
1600,1122,788,33.812,26.778,-0.0174,0.0115,9.8345,0.6849,-0.1523,-0.506
1605,1136,789,33.84,26.876,-0.0404,-0.0404,9.7464,-0.5392,-0.0282,-0.0192
1610,1121,791,33.887,26.842,0.0809,0.1205,9.8244,-0.3943,-0.3983,-0.7043
1615,1117,794,33.781,26.856,-0.0783,-0.0048,9.7472,-0.6956,0.2571,0.5138
1620,1123,801,33.701,26.857,-0.0033,0.0443,9.7601,0.1392,0.1099,0.0001
1625,1111,796,33.819,26.774,-0.0433,0.0172,9.7461,-0.1537,-0.376,0.7014
1630,1105,808,33.812,26.807,0.0001,0.0575,9.7756,0.2029,-0.818,0.146
1635,1118,808,33.885,26.818,-0.0247,0.0456,9.8655,-0.0191,-0.2078,0.2828
1640,1107,805,33.883,26.93,-0.01,-0.035,9.7967,-0.0709,-0.5736,-0.1626
1645,1101,811,33.812,26.977,0.0112,-0.0447,9.7803,0.25,-0.0321,-0.0658
1650,1092,819,33.799,26.84,-0.0227,0.0356,9.7236,0.5173,-0.0789,0.0007
1655,1102,812,33.779,26.856,-0.0364,0.0018,9.7978,0.1804,1.4046,-0.9608
1660,1088,814,33.777,26.849,-0.0303,0.0489,9.7883,-0.2364,0.1183,0.1506
1665,1092,815,33.773,26.879,-0.0359,0.0501,9.8738,0.2741,0.9579,0.6941
1670,1091,820,33.814,26.914,0.0199,-0.0198,9.6621,-0.9138,-0.499,-0.2505
1675,1087,827,33.87,26.89,0.0305,0.0526,9.7305,-0.3712,0.1294,-0.2817
1680,1090,827,33.895,26.9,0.0708,-0.0348,9.8319,0.2212,0.1015,-0.4187
1685,1082,828,33.805,26.901,-0.0058,0.0461,9.7814,0.193,0.0718,-0.105
1690,1071,833,33.762,26.842,-0.0712,0.0816,9.8174,-0.5667,0.3483,-0.446
1695,1075,826,33.829,26.844,0.0053,0.034,9.818,0.0478,1.014,0.7274
1700,1073,835,33.794,26.807,-0.0291,0.0628,9.7844,0.2925,-0.4618,0.5192
1705,1065,832,33.875,26.823,0.0242,0.0246,9.8427,0.4353,-0.4996,0.3586
1710,1069,833,33.826,26.976,0.0179,0.0073,9.7488,0.5286,-0.9104,0.1016
1715,1063,833,33.815,26.903,0.0112,-0.0429,9.7836,-0.2949,-0.3202,-0.8757
1720,1052,839,33.895,26.879,-0.0354,0.0602,9.8513,0.2051,-0.4142,-0.2875
1725,1056,836,33.809,26.843,0.0496,-0.0664,9.9049,0.9654,-0.4468,0.2974
1730,1053,837,33.799,26.897,-0.0347,0.0368,9.8641,-0.707,0.4084,0.1586
1735,1042,838,33.785,26.972,0.0509,-0.0297,9.8476,-0.5433,0.1193,0.6878
1740,1037,837,33.815,26.826,-0.0015,0.0806,9.7421,0.5052,-0.054,0.399
1745,1035,840,33.794,26.92,-0.0566,0.0465,9.7918,0.8046,-0.0973,-0.1035
1750,1033,842,33.8,26.944,-0.0446,0.0309,9.9601,0.1175,0.0142,0.2276
1755,1022,834,33.844,26.787,0.0159,0.0491,9.8218,0.8686,0.6021,-0.3861
1760,1013,838,33.764,26.864,-0.0388,0.0144,9.8403,0.1961,0.0333,0.4816
1765,1001,833,33.856,26.852,0.0204,0.0779,9.7936,0.305,-0.2005,-0.371
1770,1002,835,33.768,26.856,-0.0187,0.042,9.8145,-1.2896,-0.2545,-0.006
1775,988,837,33.831,26.812,0.0149,-0.0696,9.8823,-0.291,-0.2531,0.2462
1780,993,839,33.823,26.801,-0.088,0.0027,9.7912,0.4927,0.5147,-0.5034
1785,969,840,33.856,26.937,-0.0157,0.0633,9.7617,-0.2254,-0.4106,0.1747
1790,964,832,33.812,26.94,-0.0884,0.0245,9.8047,0.4468,-0.5371,-0.6321
1795,960,834,33.833,26.847,0.0377,0.0786,9.8653,0.13,-0.5564,-0.055
1800,944,831,33.777,26.888,-0.0294,-0.0378,9.787,0.0253,-0.3235,0.1822
1805,933,832,33.879,26.805,-0.0193,0.0034,9.8016,0.2582,0.6278,-0.0331
1810,930,829,33.757,26.869,-0.0449,0.0043,9.9142,0.3678,0.4514,-0.0993
1815,911,830,33.699,26.937,0.0089,0.0253,9.7832,0.3635,0.7091,0.4325
1820,907,833,33.821,26.805,-0.0569,0.0983,9.7981,0.1488,-0.3682,-0.6411
1825,900,832,33.815,26.821,0.0044,0.0614,9.852,0.0231,0.6572,-0.5484
1830,886,828,33.817,26.839,-0.0149,-0.038,9.919,0.4438,0.0989,-0.6891
1835,878,826,33.849,26.948,0.0412,-0.0745,9.8304,0.4835,0.3615,-1.0984
1840,873,822,33.916,26.89,-0.0966,0.0212,9.8505,0.2539,-0.5075,0.1224
1845,859,829,33.898,26.902,0.0508,0.0464,9.8433,0.7085,-0.2592,0.4081
1850,851,823,33.813,26.911,-0.0385,0.049,9.8146,0.6348,0.0168,0.2868
1855,831,826,33.79,26.948,-0.0363,-0.078,9.8319,-0.0643,-0.0901,0.8198
1860,827,831,33.892,26.917,0.0304,0.0411,9.856,0.9002,-0.6889,1.4992
1865,823,823,33.847,26.9,0.0466,0.0564,9.7891,0.7782,-0.2439,0.5366
1870,810,819,33.876,26.811,0.0444,0.0412,9.8155,0.7797,-0.1113,0.9613
1875,802,828,33.868,26.815,-0.0439,0.0467,9.7479,-0.5127,-1.1181,0.2011
1880,799,822,33.786,26.93,-0.0002,0.0201,9.8477,0.2969,-0.6459,0.5315
1885,789,817,33.837,26.945,-0.0016,-0.0691,9.7956,-0.8606,0.0694,-0.6124
1890,778,823,33.76,26.847,-0.0214,-0.0252,9.905,-0.2068,-0.4497,-0.1443
1895,773,818,33.788,26.868,-0.0299,0.0247,9.7912,0.0844,0.3845,0.4007
1900,762,818,33.86,26.879,0.0816,0.0253,9.7708,-0.1705,-0.5517,0.4732
1905,761,820,33.837,26.879,-0.0111,-0.0437,9.7684,-0.2236,0.5343,0.0726
1910,758,819,33.866,26.804,-0.0488,-0.0277,9.8144,1.0191,-0.1421,0.3983
1915,759,817,33.814,26.948,0.064,0.0109,9.8703,-0.1901,-0.4644,-0.0087
1920,745,820,33.71,26.828,-0.0723,0.0439,9.8309,0.1743,-0.0053,-0.2252
1925,741,811,33.788,26.955,0.0394,0.0367,9.7712,0.7097,0.3266,0.3474
1930,757,817,33.882,26.918,-0.0156,-0.0609,9.8183,-0.0427,-0.2428,-0.4438
1935,752,819,33.839,26.888,-0.0273,0.0313,9.8837,-0.2678,-0.4604,0.9644
1940,745,815,33.899,26.865,-0.0468,0.0031,9.8703,-0.5854,0.4529,0.4096
1945,757,819,33.8,26.905,0.0216,-0.0054,9.7999,0.3802,-0.3581,-0.1559
1950,739,812,33.838,26.886,0.016,0.0116,9.7915,0.4869,0.0711,-0.3798
1955,756,814,33.792,26.958,-0.0461,-0.0735,9.8465,-0.4227,0.1396,0.0497
1960,754,819,33.906,26.912,-0.0516,0.0352,9.8806,0.0671,-0.4626,-0.6838
1965,763,811,33.8,26.929,0.0193,0.0114,9.7765,-0.4788,-0.2583,0.4707
1970,776,811,33.838,26.938,-0.0954,-0.0377,9.796,0.1301,0.7164,0.2983
1975,775,814,33.826,26.836,0.0326,0.0031,9.8112,-0.1379,0.1321,-0.3605
1980,788,812,33.914,26.916,-0.0976,-0.0285,9.7987,-0.3791,0.4678,0.127
1985,795,809,33.836,26.816,0.0252,0.0661,9.7773,-0.2382,0.8506,0.3203
1990,806,813,33.906,26.889,-0.0044,0.0037,9.7676,0.349,0.4152,-0.3022
1995,802,810,33.862,26.887,0.0309,-0.0068,9.8688,-0.3704,-0.8032,-0.2675
2000,828,804,33.888,26.836,0.0679,0.0765,9.778,-0.3521,0.4726,-0.1928
2005,820,804,33.81,26.834,0.0063,-0.0453,9.8081,-0.1114,-0.0968,0.0116
2009,847,805,33.778,26.829,0.0249,0.0318,9.8393,-0.5891,0.1667,-0.2193
2015,852,803,33.781,26.889,0.1029,-0.0106,9.7423,-0.1253,0.1468,1.5041
2020,868,793,33.876,26.938,0.0178,-0.0181,9.7296,0.2045,0.4477,-0.2964
2025,874,801,33.835,26.924,-0.0682,-0.0206,9.8582,-0.971,0.1085,-0.378
2029,886,797,33.809,26.828,-0.0334,0.0095,9.7528,-0.4528,0.2692,-0.5627
2035,903,801,33.871,26.882,0.0091,-0.0828,9.7601,0.7366,0.1161,0.3755
2040,921,795,33.86,26.797,0.0294,0.0591,9.8786,-0.2776,0.3616,0.648
2045,932,791,33.768,26.901,-0.0256,0.0249,9.739,0.8012,0.6213,0.2136
2050,955,784,33.851,26.811,0.0157,0.0038,9.8374,-0.0961,-0.2209,-0.5512
2055,969,789,33.798,26.841,0.0192,-0.0089,9.7879,-0.0703,-0.6055,0.0612
2060,973,781,33.858,26.863,0.0455,-0.0094,9.8208,0.19,0.0521,0.2946
2065,992,785,33.844,26.743,0.0197,-0.0453,9.7891,0.5653,0.006,0.3625
2070,1002,782,33.975,26.878,0.1107,0.0007,9.8106,-0.191,-0.1322,0.3156
2075,1020,777,33.895,26.859,0.0163,0.018,9.7425,0.58,-0.3315,-0.1666
2080,1027,776,33.843,26.828,-0.0032,0.0642,9.8021,0.1591,0.4977,0.426
2085,1036,778,33.806,26.884,0.0084,-0.0159,9.7829,-0.2261,0.5391,-0.3551
2090,1058,776,33.777,26.833,-0.0465,-0.0139,9.7983,-0.0551,-0.0086,0.0757
2095,1068,773,33.874,26.859,-0.0609,0.0859,9.9087,0.1099,-0.3786,0.6168
2100,1079,769,33.896,26.81,-0.0046,0.0355,9.8079,-0.2111,0.4623,0.2907
2105,1100,765,33.815,26.926,0.0347,-0.0208,9.8006,0.7363,0.1944,-0.9089
2110,1109,762,33.826,26.837,-0.0368,0.0658,9.7879,-0.0065,0.1086,-0.8427
2115,1106,760,33.883,26.901,-0.0231,0.0112,9.7194,-0.7588,-0.1975,-0.2771
2120,1113,761,33.881,26.827,0.0199,-0.0554,9.818,0.1635,-0.314,-0.0489
2125,1135,761,33.785,26.796,-0.0685,0.0315,9.8182,0.3576,0.2555,0.6469
2130,1139,756,33.861,26.953,0.106,-0.0157,9.7933,0.9738,0.9227,0.3029
2135,1140,758,33.841,26.873,0.0733,0.017,9.8617,-0.6083,0.175,0.9213
2140,1152,756,33.895,26.835,0.0203,0.0127,9.771,-0.4554,0.1622,0.2589
2145,1154,756,33.855,26.846,0.0669,0.0429,9.7464,0.1949,0.2009,-0.9725
2150,1158,750,33.746,26.87,0.0486,0.024,9.8143,0.1547,-0.1317,-0.4403
2155,1171,754,33.844,26.813,-0.0919,0.0392,9.7106,-0.1229,0.0221,0.2555
2160,1176,752,33.866,26.908,-0.0276,0.0703,9.7982,0.1087,-0.7587,-0.1475
2165,1177,747,33.754,26.994,0.0122,0.0288,9.8395,0.0203,0.0979,0.2538
2170,1179,751,33.825,26.827,-0.1037,-0.0234,9.8189,-0.9505,0.014,0.8164
2175,1184,748,33.843,26.852,-0.0039,0.0007,9.755,-0.296,0.2891,0.1505
2180,1188,749,33.809,26.831,-0.0196,-0.0219,9.7727,-0.6712,0.3259,-0.5596
2185,1193,744,33.778,26.876,-0.0246,0.0201,9.7454,-0.1715,-0.5097,0.7862
2190,1195,742,33.833,26.881,0.0539,0.0597,9.7808,0.4333,0.8934,-0.0511
2195,1180,753,33.823,26.81,0.0981,-0.0261,9.8361,0.3699,0.4486,-0.2798
2200,1189,750,33.875,26.827,0.0139,-0.0044,9.7995,-0.1251,0.0316,-0.5849
2205,1186,745,33.902,26.846,-0.0059,-0.0329,9.9417,0.5193,0.2622,0.5661
2210,1188,747,33.835,26.851,0.0139,0.0049,9.8386,0.5851,0.8667,-0.2814
2215,1181,749,33.772,26.926,0.0193,0.0312,9.7577,-0.1421,0.3312,-0.8577
2220,1175,753,33.844,26.819,0.0196,0.0021,9.7273,-0.063,-0.8905,0.7478
2225,1176,755,33.856,26.877,0.0592,-0.0012,9.8807,-0.0221,-0.0549,-0.1274
2230,1175,752,33.854,26.883,0.0484,0.0656,9.7486,0.2156,0.6372,0.483
2235,1175,759,33.827,26.8,0.0248,-0.0655,9.8145,0.4276,-0.459,0.3384
2240,1167,759,33.787,26.91,-0.0213,0.12,9.812,-0.7405,-0.4906,1.038
2245,1165,757,33.86,26.936,0.0147,0.0002,9.8812,0.5118,0.3595,0.0837
2250,1165,765,33.86,26.82,0.0577,0.002,9.7292,-0.817,-0.7019,-0.139
2255,1149,761,33.768,26.943,-0.0973,0.0379,9.7453,-0.6108,0.1719,0.4087
2260,1148,770,33.843,26.796,0.0327,0.0411,9.7314,0.3705,0.6276,-0.0155
2265,1155,774,33.951,26.928,0.0108,-0.0137,9.8792,0.7032,-0.3458,-0.2086
2270,1146,770,33.854,26.946,0.0438,0.0616,9.8516,0.0188,0.4136,-0.7415
2275,1133,773,33.82,26.733,-0.0099,0.0274,9.8011,0.5519,-0.2646,-0.7444
2280,1142,783,33.864,26.899,-0.0321,0.1015,9.754,-0.1962,-0.3503,0.4165
2285,1135,778,33.764,26.85,-0.0076,0.0521,9.8645,-0.5819,-0.281,-0.5605
2290,1137,782,33.872,26.887,0.0219,0.0403,9.869,-0.6272,0.5367,-0.0924
2295,1129,784,33.885,26.898,0.0317,-0.0705,9.6832,-0.0707,-0.0352,0.3175
2300,1129,791,33.776,26.829,0.0069,0.0495,9.799,-0.1252,0.1701,-0.6392
2305,1118,791,33.77,26.905,-0.0023,-0.052,9.8491,0.4656,0.5957,-0.8611
2310,1117,792,33.795,26.917,-0.03,-0.0088,9.7523,0.0918,0.4162,-0.6337
2315,1112,798,33.808,26.843,-0.041,0.0163,9.8133,1.0774,-0.5137,-0.3001
2320,1113,797,33.91,26.836,-0.0318,0.0062,9.8231,-0.1492,-0.0064,0.6331
2325,1112,802,33.763,26.865,-0.0224,-0.1669,9.8708,1.2063,-0.1279,-0.284
2330,1103,802,33.769,26.802,0.0876,-0.0638,9.8142,0.7169,-0.8719,0.6637
2335,1101,813,33.798,26.897,-0.0675,0.0228,9.7711,-0.3807,0.3428,-0.3362
2340,1092,819,33.805,26.957,-0.0739,0.0678,9.7597,-0.3695,-0.6596,-0.1614
2345,1099,815,33.98,26.837,-0.015,0.0499,9.7371,0.056,0.0283,-0.1295
2350,1095,813,33.974,26.842,-0.0423,0.0385,9.7616,0.3618,0.1318,0.6078
2355,1092,814,33.829,26.821,-0.0651,0.0747,9.8426,0.2195,0.131,-0.0932
2360,1095,822,33.867,26.916,0.0263,-0.0224,9.8782,-0.8271,0.5036,0.3911
2365,1106,825,33.896,26.838,0.1409,0.0177,9.8208,0.7273,-0.0576,0.0472
2370,1095,822,33.794,26.855,0.0302,-0.0576,9.8033,-0.385,-0.4874,-0.4222
2375,1089,822,33.846,26.952,-0.0045,-0.0294,9.8831,-0.2444,-0.1953,-0.4316
2380,1071,830,33.754,26.848,-0.0215,-0.0928,9.7816,0.4668,0.5918,-0.4134
2385,1081,827,33.763,26.898,0.0384,0.0431,9.8003,-0.8712,-0.0322,-0.1804
2390,1073,826,33.855,26.876,-0.0295,0.0091,9.8335,-0.3221,-0.6613,0.3577
2395,1077,835,33.9,26.892,-0.0403,0.059,9.8957,-0.1013,1.0977,0.0117
2400,1074,829,33.844,26.813,-0.086,0.0554,9.8055,0.2792,0.2109,0.4512
2405,1069,832,33.829,26.953,0.0841,0.0489,9.7107,0.4243,0.0909,0.6084
2410,1064,830,33.879,26.869,-0.0088,0.0766,9.7284,-0.0962,-0.0645,1.0686
2415,1054,836,33.84,26.871,-0.0208,-0.0836,9.8602,0.1756,-0.0031,0.3867
2420,1056,837,33.74,26.883,-0.0154,0.0155,9.7936,-0.0517,-0.2254,-0.0775
2425,1053,841,33.812,26.871,-0.0005,0.0935,9.7847,-0.0188,-0.2476,0.7203
2430,1046,842,33.78,26.906,0.0143,-0.0291,9.7837,0.5264,0.1648,0.4654
2435,1032,834,33.741,26.924,0.0411,0.0339,9.7983,0.6954,-0.1365,0.2549
2440,1032,836,33.741,26.864,0.0818,0.0777,9.7652,0.8994,-0.1224,-0.6804
2445,1026,837,33.865,26.871,-0.0248,-0.0672,9.7687,-0.0428,0.0146,0.2766
2450,1026,834,33.784,26.911,-0.0587,-0.0297,9.826,-0.1379,0.2378,-0.2683
2455,1020,839,33.895,26.875,-0.0012,-0.0465,9.8529,-0.3585,0.0111,0.7466
2460,998,837,33.882,26.897,0.0446,-0.0369,9.8302,-0.257,0.5682,-0.4728
2465,1002,834,33.859,26.952,0.0111,-0.0675,9.8364,-0.0606,-0.92,0.7744
2470,982,834,33.796,26.796,0.0143,0.0153,9.8738,-0.2263,-0.0476,-0.9714
2475,987,834,33.795,26.79,-0.053,0.0265,9.814,0.0969,0.8026,0.5585
2480,972,829,33.804,26.903,-0.055,0.0298,9.7046,-0.712,0.2046,-0.5096
2485,959,838,33.832,26.835,-0.1138,0.0569,9.857,0.9282,0.0672,-0.4969
2490,968,834,33.842,26.863,0.0157,-0.0859,9.8181,0.2135,-0.2338,-0.8526
2495,940,834,33.815,26.852,0.0073,0.0593,9.7685,-0.6952,0.2524,-0.7545
2500,932,832,33.781,26.803,0.0128,-0.0269,9.8554,-0.4898,0.0199,0.5253
2505,920,832,33.731,26.915,-0.0275,-0.0989,9.8703,-0.0908,-0.0537,-0.1098
2510,912,827,33.866,26.903,-0.0104,0.0272,9.8218,0.3007,0.145,0.5408
2515,908,834,33.868,26.908,0.0817,-0.0331,9.8666,0.0708,0.2489,0.5194
2520,896,830,33.821,26.917,-0.0956,-0.0004,9.8158,0.219,-0.0691,-0.0237
2525,890,831,33.865,26.838,-0.0158,0.0477,9.8987,0.2199,-0.9212,-0.8599
2530,869,826,33.793,26.867,-0.0431,-0.0449,9.7938,-0.4178,-0.2238,0.7509
2535,862,833,33.901,26.881,-0.0158,-0.0605,9.841,-0.7402,0.534,-0.4873
2540,852,825,33.843,26.95,-0.0515,-0.0087,9.8314,1.132,-0.8445,0.6399
2545,851,827,33.816,26.947,-0.002,-0.0026,9.8048,0.0224,0.0068,0.3722
2550,836,822,33.776,26.812,-0.0494,0.0305,9.8566,-0.722,0.3709,-0.0821
2555,819,828,33.798,26.905,0.0114,0.0436,9.7871,0.5522,0.3254,0.261
2560,813,827,33.791,26.869,0.0272,-0.0055,9.7809,0.6305,0.2855,-0.1143
2565,810,820,33.79,26.908,0.0114,-0.0152,9.7861,-0.5615,-0.0287,0.2243
2570,805,821,33.779,26.98,-0.0229,-0.0207,9.7554,0.124,0.6862,1.1423
2575,789,819,33.824,26.82,-0.0704,-0.0146,9.8407,0.1646,1.0846,-0.7919
2580,783,821,33.832,26.905,0.0551,-0.0263,9.7976,-0.233,0.0205,-0.3486
2585,784,819,33.791,26.94,-0.049,0.0587,9.7719,0.3569,-0.6897,0.2387
2590,778,819,33.817,26.881,0.0382,0.046,9.7953,-0.4147,-0.2319,0.3546
2595,772,815,33.836,26.959,-0.0095,-0.082,9.8082,-0.9302,0.6244,-0.2475
2600,753,818,33.818,26.832,-0.0212,0.0063,9.9141,-0.0631,0.2334,0.9496
2605,761,819,33.884,26.942,-0.0418,0.047,9.8544,0.4757,0.146,0.4797
2610,752,818,33.834,26.999,-0.0295,0.0106,9.8062,-0.356,-0.1771,0.203
2615,754,816,33.834,26.862,-0.084,0.0237,9.8453,0.2659,-0.3253,-0.6836
2620,742,813,33.796,26.864,0.0192,0.0451,9.8658,-0.7785,0.0016,-0.7112
2625,749,819,33.879,26.832,0.1249,-0.0089,9.8174,-0.1628,-0.614,-0.2987
2630,745,812,33.794,26.897,0.0596,-0.013,9.8182,0.6639,0.1039,-0.2193
2635,739,817,33.873,26.87,-0.0621,-0.0399,9.821,-0.1684,-0.1516,0.0039
2640,755,818,33.831,26.931,-0.0273,0.0164,9.7773,0.6747,-0.0252,-0.1747
2645,754,815,33.925,26.953,0.0568,-0.0414,9.7803,-0.4413,0.662,0.768
2650,755,809,33.853,26.904,0.0109,-0.0492,9.8158,-0.1507,-0.5897,0.4749
2655,761,816,33.799,26.843,0.0217,-0.0545,9.768,0.4666,0.4019,-0.4925
2660,767,813,33.724,26.845,-0.1155,-0.0443,9.8293,-0.362,0.5103,-0.1437
2665,767,807,33.831,26.904,0.0082,-0.0235,9.7631,-0.0675,-0.1146,0.1668
2670,782,812,33.902,26.878,-0.0229,0.018,9.7505,0.2989,-0.2997,0.2111
2675,781,805,33.827,26.955,0.0522,-0.0962,9.8464,0.2497,0.379,-0.6485
2680,793,806,33.833,26.895,-0.0302,-0.1329,9.9094,0.0719,0.8781,-0.3673
2685,801,809,33.836,26.845,0.0101,-0.1006,9.7824,0.076,-0.0229,-0.1702
2690,815,804,33.817,26.961,0.0618,-0.0235,9.8996,0.8404,0.0474,0.1407
2695,829,809,33.83,26.903,-0.0469,-0.0055,9.7702,-0.4647,-0.7049,-0.0139
2700,834,798,33.805,26.903,0.0099,0.0136,9.8149,0.137,0.1375,1.1955
2705,841,801,33.871,26.889,0.0143,0.0256,9.7747,-0.0018,0.3919,0.37
2710,858,803,33.848,26.973,-0.0353,-0.0041,9.7585,-0.1836,0.3716,-0.2633
2715,863,799,33.943,26.814,-0.0457,-0.0742,9.8464,0.0073,-0.3117,0.0341
2720,878,798,33.902,26.846,0.0037,0.0995,9.8263,0.2014,0.4087,0.1895
2725,890,803,33.828,26.943,-0.0016,-0.0624,9.7447,-0.0793,-0.0731,-0.2915
2730,907,796,33.86,26.928,0.0225,0.0235,9.7843,1.1295,-0.2308,-0.1974
2735,915,794,33.8,26.943,0.0036,-0.037,9.7669,-0.7133,-0.0475,0.0057
2740,933,793,33.86,26.863,0.028,-0.0106,9.777,0.3115,0.4016,-0.4408
2745,949,792,33.772,26.839,-0.0279,0.1355,9.7588,-0.1402,-0.4313,-0.3104
2750,959,784,33.846,26.711,-0.0321,0.0288,9.8449,0.4786,-0.1663,-0.2513
2755,981,789,33.771,26.823,-0.0384,-0.0172,9.8213,0.3379,0.7271,0.1262
2760,983,784,33.857,26.841,-0.1025,-0.0146,9.8494,0.1919,-0.6208,-0.879
2765,1008,780,33.876,26.831,0.0321,0.0853,9.7981,0.2673,0.2577,-0.551
2770,1012,784,33.79,26.878,-0.0764,-0.013,9.7819,0.5947,-0.4029,-0.2297
2775,1031,781,33.893,26.89,0.0056,-0.0789,9.7367,0.0042,0.0236,0.9474
2780,1049,773,33.804,26.869,0.0462,-0.0504,9.7361,0.3191,0.1139,-0.5833
2785,1063,778,33.873,26.855,-0.0567,0.0188,9.8304,0.8136,-0.6374,-0.5631
2790,1071,772,33.905,26.899,0.0228,0.0764,9.8521,0.1323,0.8231,0.2964
2795,1083,764,33.896,26.94,-0.0097,-0.0451,9.7465,-0.2308,-0.0488,0.576
2800,1093,771,33.915,26.801,-0.0127,-0.0038,9.7964,-0.472,0.1527,0.4023
2805,1111,773,33.834,26.92,0.0075,0.0385,9.8941,-0.0665,1.3365,-0.8965
2810,1116,762,33.801,26.826,-0.0447,0.0196,9.7575,0.2362,0.0177,0.5026
2815,1123,760,33.719,26.909,-0.0508,-0.029,9.8445,-0.7724,-0.1668,-0.4485
2820,1131,756,33.759,26.878,0.1255,-0.0236,9.815,-0.0124,0.2797,0.3761
2825,1137,758,33.775,26.903,0.0046,0.0514,9.798,-0.2817,-0.4113,0.9533
2830,1147,758,33.91,26.851,-0.0129,0.0095,9.8459,-0.2424,1.2437,-0.6508
2835,1155,753,33.81,26.917,-0.1213,0.0141,9.7875,0.4974,-0.3878,0.9718
2840,1155,757,33.86,26.85,-0.0197,-0.0428,9.7309,0.7014,0.0461,-0.032
2845,1173,750,33.722,26.912,-0.034,-0.0345,9.8077,0.3672,0.1415,0.2967
2850,1178,747,33.748,26.923,0.0514,0.019,9.8946,0.6156,0.5565,0.3244
2855,1186,749,33.819,26.875,0.0447,0.0155,9.8344,0.2383,0.2403,-0.8412
2860,1184,751,33.845,26.837,-0.0073,0.0099,9.8688,0.7975,-0.4338,-0.634
2865,1175,751,33.745,26.883,-0.0121,-0.0651,9.7928,-0.8252,0.1124,0.8181
2870,1188,747,33.91,26.943,-0.0703,-0.0654,9.7667,0.5909,-0.9528,-0.2882
2875,1188,748,33.818,26.862,-0.0329,0.006,9.8933,0.29,0.4909,-0.2522
2880,1188,748,33.818,26.882,0.0202,0.0084,9.8635,0.4548,0.0247,0.6347
2885,1186,746,33.791,26.809,0.1164,-0.0658,9.7908,0.277,-0.5699,0.4
2890,1193,746,33.843,26.86,-0.0444,0.0078,9.7121,0.2642,0.1191,-0.2841
2895,1180,748,33.825,26.93,0.0967,-0.0422,9.7954,-0.6709,-0.1927,0.2162
2900,1180,752,33.85,26.922,-0.0496,0.145,9.7719,-0.516,0.1972,-0.0837
2905,1189,756,33.81,26.841,-0.0323,-0.0546,9.8747,0.0853,0.2667,-1.1331
2910,1178,753,33.804,26.803,0.0009,-0.0366,9.7937,-0.0008,-0.5761,-0.4089
2915,1189,747,33.884,26.813,0.0351,-0.0123,9.8742,-0.2829,-0.9451,0.4548
2920,1174,751,33.901,26.949,-0.0277,0.0424,9.8232,0.9252,1.0659,0.4122
2925,1180,759,33.779,26.816,-0.0292,0.0329,9.7771,0.3178,0.1823,0.1099
2930,1167,760,33.848,26.826,-0.0032,-0.0003,9.7614,0.112,0.6721,0.4161
2935,1166,761,33.805,26.846,0.1027,-0.0579,9.791,0.0654,-0.3853,0.8861
2940,1161,759,33.847,26.955,0.0476,0.0177,9.716,0.0004,0.5035,0.9431
2945,1154,762,33.871,26.904,-0.0781,0.0017,9.8303,0.0858,-0.4441,0.0261
2950,1157,768,33.911,26.919,0.0571,0.1153,9.8581,-0.0945,0.0851,1.003
2955,1150,768,33.76,26.835,-0.0004,-0.0814,9.7938,-0.2843,-0.3599,0.526
2960,1150,767,33.875,26.877,0.1252,-0.0613,9.8443,0.0572,0.091,-0.4445
2965,1161,773,33.814,26.906,-0.0634,-0.0679,9.7828,0.3546,0.4754,0.2575
2970,1127,771,33.816,26.879,0.0756,-0.0402,9.7978,0.5409,-0.6959,-0.0574
2975,1137,783,33.764,27.012,0.0353,0.0239,9.8281,-0.299,0.2192,-0.4351
2980,1132,783,33.768,26.85,-0.0129,-0.0591,9.8912,0.4296,-0.3723,0.9978
2985,1131,784,33.879,26.919,-0.0021,-0.0205,9.7478,0.2006,-0.064,0.6688
2990,1128,785,33.763,26.865,-0.0191,0.0349,9.8048,0.1804,-0.5963,-0.5121
2995,1122,792,33.862,26.895,-0.0163,0.0664,9.6759,0.1416,-0.0429,-0.4098
3000,1123,791,33.861,26.893,0.0456,0.1006,9.7394,0.8858,1.1147,-0.2303
3005,1122,787,33.795,26.877,-0.1341,-0.0013,9.8288,-0.0453,-1.1585,-0.2991
3010,1110,795,33.771,26.828,0.0044,0.0094,9.7767,0.0739,0.5296,-0.3756
3015,1114,802,33.787,26.864,-0.0054,0.0515,9.8289,0.3552,0.0329,0.5834
3020,1114,792,33.826,26.792,-0.0078,0.0511,9.7934,-0.2065,0.9272,-0.0961
3025,1103,802,33.853,26.942,-0.0955,0.0211,9.789,-0.0471,0.0008,0.6942
3030,1111,806,33.806,26.848,0.0183,0.0446,9.7902,-0.8884,0.1259,0.3212
3035,1099,815,33.865,26.793,-0.0144,0.0422,9.8222,-0.439,-0.1714,0.127
3040,1093,821,33.836,26.847,-0.014,0.0681,9.771,0.4102,0.26,-0.9534
3045,1095,814,33.754,26.932,0.0092,0.0091,9.8325,-0.5131,0.1931,0.4104
3050,1094,816,33.839,26.885,0.0876,0.0005,9.8113,-0.1995,0.1846,0.0433
3055,1095,819,33.818,26.844,-0.0845,0.0013,9.8499,-0.3911,-0.4734,-0.6885
3060,1093,821,33.868,26.94,0.0316,0.0561,9.8905,-0.0244,-0.4529,-0.6774
3065,1098,830,33.84,26.823,-0.0555,-0.0635,9.8342,0.4717,-0.4955,-0.1411
3070,1072,826,33.918,26.83,-0.0156,-0.0095,9.8307,-0.2404,0.1654,-0.9105
3075,1085,833,33.783,26.823,0.0211,-0.0536,9.876,-0.7498,-0.7679,0.2562
3080,1085,833,33.932,26.863,-0.0385,0.0849,9.694,0.3585,-0.7743,-0.2475
3085,1076,829,33.785,26.865,0.0186,-0.0792,9.7824,0.3759,-0.4087,0.2391
3090,1090,831,33.838,26.944,0.0426,0.1379,9.8301,1.0003,-0.9612,0.8879
3095,1069,840,33.85,26.997,0.015,0.0897,9.8202,-0.2813,0.0664,0.2078
3100,1070,834,33.895,26.932,-0.0413,-0.0166,9.8298,0.1713,-0.1049,-0.0204
3105,1063,838,33.779,26.927,-0.1123,-0.0457,9.8022,0.0406,-0.3182,0.5623
3110,1054,832,33.893,26.921,0.0238,0.0188,9.7681,-0.5463,-0.2172,-0.2552
3115,1050,835,33.896,26.923,-0.0846,-0.0248,9.8748,0.5545,-0.0636,0.008
3120,1045,832,33.952,26.867,0.0189,-0.0144,9.7827,0.5227,0.1572,-0.0822
3125,1046,839,33.877,26.881,-0.0313,-0.1094,9.8788,-0.3277,-0.1225,1.4436
3130,1040,840,33.801,27.018,0.0398,-0.0191,9.7737,-0.2592,0.5959,0.2991
3135,1030,840,33.883,26.88,0.0425,-0.0011,9.8364,0.1373,0.0133,0.6374
3140,1032,834,33.827,26.982,-0.0315,-0.019,9.8499,-0.0882,-0.0682,-0.2841
3145,1019,837,33.875,26.848,0.013,0.1184,9.8449,-0.5642,-0.1132,0.5249
3150,1005,837,33.785,26.876,0.1005,-0.0296,9.8141,0.4061,-0.1021,-0.1225
3155,1009,836,33.885,26.932,-0.0149,-0.0123,9.7124,0.2455,-0.2209,0.1474
3160,1002,837,33.833,26.912,-0.0493,0.0062,9.7853,0.3223,0.0083,0.3608
3165,991,835,33.854,26.966,-0.0749,-0.0146,9.8093,0.0865,0.1016,0.7685
3170,983,834,33.738,26.877,-0.0548,-0.0109,9.7876,-0.6382,0.0883,-0.1255
3175,960,831,33.892,26.843,-0.0937,0.0496,9.808,-0.2868,-0.3858,0.5099
3180,966,833,33.837,26.897,-0.0562,0.0261,9.9047,-0.2081,-1.5179,0.7026
3185,953,833,33.892,26.904,-0.0007,0.0424,9.8542,-0.1344,0.0387,0.0709
3190,952,828,33.853,26.887,0.0105,0.0211,9.8382,0.2996,-0.406,-0.2885
3195,935,834,33.897,26.815,0.025,0.0277,9.7699,-0.3765,0.0273,-0.3456
3200,923,835,33.858,26.863,-0.0753,0.0758,9.7866,-0.9225,-0.3942,0.0273
3205,924,828,33.895,26.83,-0.0756,0.0435,9.8386,0.1589,-0.6545,-1.2099
3210,908,834,33.833,26.936,-0.0188,0.0343,9.8316,-0.4266,0.0057,0.4863
3215,895,831,33.804,26.818,-0.0231,0.0274,9.8366,0.6319,0.2674,-0.6832
3220,895,827,33.88,26.815,0.0523,0.015,9.8105,0.122,0.1662,0.3513
3225,859,824,33.804,26.891,0.0473,0.0279,9.7561,0.7645,-0.6103,0.0368
3230,866,824,33.854,26.899,-0.0074,-0.0655,9.7804,-0.0169,0.5436,-0.265
3235,858,827,33.921,26.906,0.0244,0.0012,9.7953,-0.1758,-0.7493,-0.3497
3240,844,827,33.803,26.898,0.0155,-0.0802,9.7549,0.5653,0.2868,0.1784
3245,831,827,33.817,26.826,-0.0205,-0.0438,9.7827,-0.1179,0.3945,0.6025
3250,830,823,33.799,26.883,0.0003,0.0857,9.8384,0.5481,0.5587,-0.522
3255,821,823,33.895,26.859,-0.0679,-0.0246,9.8282,0.1224,-0.3117,0.337
3260,811,825,33.897,26.843,-0.0108,-0.0771,9.7615,-0.739,-0.0787,0.0357
3265,802,820,33.834,26.906,0.0568,0.0,9.8401,0.7407,0.0308,-0.1636
3270,795,821,33.792,26.906,0.0105,-0.1029,9.825,-0.0748,-0.1013,-0.7998
3275,786,819,33.875,26.898,-0.0253,-0.0003,9.7968,-0.5105,-0.5762,-0.165
3280,774,821,33.855,26.913,0.0186,0.0227,9.7381,-0.9936,0.5993,0.4314
3285,790,817,33.829,26.863,0.0021,0.0125,9.8165,0.551,0.7216,-0.7773
3290,762,819,33.765,26.891,0.0354,-0.0246,9.7769,-0.4386,0.1894,-0.6599
3295,757,822,33.893,26.928,-0.032,0.0579,9.8406,0.62,-0.9023,0.4865
3300,756,821,33.902,26.837,-0.1305,-0.0102,9.7315,0.3714,-0.1533,-0.6297
3305,748,818,33.84,26.942,-0.0294,0.1453,9.8213,0.4241,0.1216,-0.1677
3310,749,821,33.874,26.782,-0.0164,-0.0088,9.7557,0.4211,-0.3987,0.0635
3315,750,821,33.817,26.931,0.0727,0.0219,9.7955,0.2817,0.6947,1.7149
3320,750,817,33.914,26.916,-0.0579,0.0176,9.7735,0.2751,-0.0379,-0.7539
3325,750,817,33.908,26.914,0.0508,-0.0232,9.8206,-0.0366,-0.1064,-0.4963
3330,761,816,33.832,26.927,0.0782,-0.0591,9.841,0.6275,-0.099,0.0188
3335,757,819,33.893,26.779,-0.0038,-0.0232,9.7721,-0.1543,0.7941,0.9731
3340,752,817,33.806,26.891,0.0491,-0.0561,9.9162,-0.4249,0.2681,-0.1149
3345,754,814,33.857,26.899,-0.0604,-0.0022,9.7904,0.2182,-0.0463,-0.2007
3350,764,813,33.772,26.832,0.0626,0.0184,9.7826,-0.173,-0.1093,-0.5123
3355,757,812,33.827,26.939,0.0393,0.0319,9.8581,0.0921,0.8443,0.1389
3360,766,815,33.778,26.913,0.0218,0.0571,9.8148,-0.59,-0.2362,0.4861
3365,778,808,33.899,26.878,-0.0204,-0.0526,9.7845,-0.6063,0.3596,0.1307
3370,777,812,33.852,26.839,0.0907,-0.0186,9.866,-0.2172,-0.8223,0.306
3375,788,808,33.871,26.932,-0.0221,-0.0398,9.8,0.3636,-0.4877,-0.4441
3380,803,804,33.898,26.854,0.0136,0.0339,9.842,-0.9134,-0.2788,0.234
3385,809,803,33.959,26.819,-0.0121,-0.0029,9.781,-0.4308,0.668,-0.548
3390,814,809,33.878,26.887,0.0002,-0.0038,9.7706,0.4952,-0.5659,0.2623
3395,836,809,33.824,26.849,-0.0779,0.0129,9.7453,-0.5453,-0.0825,0.3494
3400,840,799,33.875,26.951,0.0624,-0.0608,9.8238,0.3589,-0.0869,-0.2797
3405,866,800,33.905,26.867,-0.0545,-0.0226,9.7736,-0.4535,-0.1703,0.0821
3410,864,800,33.785,26.853,-0.0122,0.0091,9.8282,0.1124,0.358,0.0815
3415,879,801,33.849,26.904,0.032,-0.1065,9.8569,-0.3935,-0.0922,-0.3391
3420,896,801,33.874,26.834,-0.0606,0.002,9.8168,0.3419,0.2484,-0.2583
3425,911,794,33.757,26.904,0.1096,-0.0155,9.7371,-0.2878,-0.4499,0.2978
3430,923,792,33.816,26.871,-0.0496,0.0043,9.8177,0.0201,-0.4011,0.1146
3435,935,788,33.86,26.864,0.0639,0.0569,9.7446,-0.4349,-0.3607,0.8396
3440,953,787,33.857,26.856,0.0524,-0.0727,9.7852,-0.4046,0.7668,-0.7341
3445,953,794,33.847,26.891,-0.0543,-0.0235,9.8176,0.2917,-0.4997,0.4266
3450,976,786,33.822,26.812,-0.0419,-0.0135,9.8262,0.3297,-0.0851,-0.9425
3455,998,783,33.865,26.891,0.0097,0.0341,9.7692,0.4361,-0.3555,0.3268
3460,1016,779,33.827,26.882,-0.0901,0.0089,9.8649,0.2591,0.276,-0.1587
3465,1013,784,33.809,26.897,-0.0254,0.0339,9.8292,0.0747,-0.6668,-0.0339
3470,1040,776,33.866,26.863,-0.0024,0.0668,9.7471,-0.7445,-0.0211,-0.1516
3475,1056,772,33.817,26.85,-0.0017,0.0033,9.8173,-0.2938,0.2511,-0.2292
3480,1060,776,33.831,26.957,0.1042,0.0383,9.779,0.48,-0.2537,0.145
3485,1069,770,33.791,26.919,-0.0313,0.0644,9.8428,0.3178,-0.2463,-0.1739
3490,1077,763,33.842,26.887,0.0011,0.0025,9.8109,0.5726,0.3543,0.4252
3495,1096,770,33.875,26.792,0.024,0.0442,9.7998,0.3,0.1853,-0.2249
3500,1103,762,33.882,26.914,-0.0146,-0.0346,9.7905,-0.4852,0.4186,0.3462
3505,1106,764,33.864,26.894,-0.0176,-0.0156,9.908,-0.5181,-0.5714,0.6425
3510,1125,759,33.755,26.824,0.149,-0.019,9.8133,0.39,-0.6088,0.2289
3515,1130,759,33.853,26.881,0.0552,0.0034,9.7513,0.5824,-0.1853,0.0866
3520,1144,753,33.907,26.849,0.0162,-0.0943,9.7699,0.2618,0.5189,0.0432
3525,1151,757,33.993,26.826,0.0563,-0.0598,9.8513,-0.8495,-0.3821,-0.031
3530,1159,757,33.909,26.849,0.0579,-0.0904,9.8783,0.7471,0.1567,-0.0103
3535,1166,751,33.824,26.889,0.0254,-0.0298,9.8367,-0.2895,0.0406,0.7787
3540,1165,754,33.915,26.905,-0.05,0.0421,9.8208,-0.8561,-0.0558,0.3459
3545,1178,756,33.819,26.862,0.0279,0.0132,9.8287,0.2109,0.1493,0.2269
3550,1173,747,33.82,26.853,0.0397,0.0905,9.7976,-0.5272,-0.005,-0.031
3555,1175,750,33.814,26.893,-0.0386,-0.0062,9.7622,-0.0211,0.1708,0.3888
3560,1173,741,33.838,26.85,0.0464,-0.0024,9.7934,-0.4122,0.1494,0.2778
3565,1187,746,33.879,26.872,0.0013,-0.0382,9.8445,-0.1049,0.1295,0.4829
3570,1187,749,33.937,26.845,-0.1261,0.0818,9.8164,-0.033,0.0683,-0.1933
3575,1191,749,33.783,26.912,-0.0377,-0.0587,9.8154,-0.3432,-0.8408,-0.3761
3580,1185,752,33.868,26.78,-0.0228,0.0474,9.845,0.9587,0.5588,0.135
3585,1189,748,33.785,26.804,0.0054,0.0191,9.7832,-0.0526,-0.0008,-0.3524
3590,1187,749,33.812,26.832,-0.0138,0.0311,9.8151,-0.2116,0.3674,-0.5067
3595,1179,753,33.819,26.882,-0.0672,0.0161,9.7048,-0.5505,0.7891,-0.0532
3600,1191,756,33.721,26.94,-0.0829,-0.0322,9.8617,-1.1846,-0.1052,0.4315
3605,1189,753,33.829,26.882,-0.0082,-0.0532,9.8687,-0.0657,0.424,0.4912
3610,1181,750,33.863,26.85,-0.0426,-0.059,9.8035,0.6355,0.8678,-0.9546
3615,1166,755,33.867,26.906,-0.0018,-0.0078,9.807,-0.3016,0.3993,-1.1226
3620,1175,762,33.833,26.832,0.107,0.0532,9.7878,0.1324,-0.1327,-0.3876
3625,1174,759,33.793,26.895,-0.0289,-0.0313,9.885,0.5049,-0.6315,0.2139
3630,1164,758,33.88,26.803,-0.03,0.0102,9.8609,-0.4861,0.3187,-0.8021
3635,1158,753,33.915,26.87,0.0153,-0.012,9.823,-0.1177,0.0279,-0.1802
3640,1158,763,33.737,26.896,0.0571,0.1085,9.7791,0.129,0.268,-0.4394
3645,1155,770,33.718,26.86,0.0061,0.0004,9.7592,0.4529,-0.0516,0.0471
3650,1152,774,33.855,26.877,0.0602,-0.089,9.7968,-0.464,0.2429,-0.2176
3655,1150,773,33.792,26.891,0.0118,0.037,9.8142,0.1597,0.0984,-0.4578
3660,1149,771,33.911,26.824,-0.0539,0.0069,9.9461,0.1589,0.4352,-1.0165
3665,1144,780,33.795,26.854,-0.071,-0.0142,9.7753,0.1319,1.3821,0.4848
3670,1129,774,33.833,26.94,-0.0313,-0.0054,9.7361,-0.3819,0.1032,0.6568
3675,1139,778,33.837,26.882,0.075,0.0548,9.853,0.0718,-0.9171,-0.1295
3680,1135,785,33.734,26.933,0.0922,-0.0525,9.8631,-0.5144,0.4376,0.631
3685,1130,785,33.871,26.911,-0.0305,-0.0395,9.7543,0.0511,-0.0827,0.1506
3690,1114,791,33.832,26.874,0.007,0.0379,9.8616,-0.4722,0.1039,0.4277
3695,1127,795,33.84,26.814,-0.0602,-0.0119,9.7751,-0.0747,-0.231,0.6269
3700,1115,794,33.856,26.847,0.0322,0.0173,9.7944,0.5941,0.027,-0.2835
3705,1116,801,33.798,26.887,-0.0392,-0.0793,9.8804,0.5075,-0.6991,-0.0812
3710,1116,799,33.94,26.947,0.0794,0.0785,9.8504,0.0971,-0.3989,-0.4594
3715,1106,805,33.777,26.861,0.0108,0.0406,9.8746,-0.2674,0.6303,0.5452
3720,1106,806,33.925,26.915,0.0124,0.0094,9.8171,-0.6778,-0.585,-0.318
3725,1113,810,33.895,26.913,-0.0147,0.0571,9.8403,-0.4501,0.9975,0.234
3730,1100,811,33.838,26.939,-0.0132,-0.0496,9.8154,0.4375,-0.0893,-0.1784
3735,1094,815,33.767,26.925,0.0513,0.0437,9.7637,0.2249,0.5336,0.1873
3740,1106,814,33.851,26.87,-0.006,0.0538,9.7199,-0.8514,-0.4612,0.1913
3745,1095,814,33.936,26.868,-0.0467,-0.003,9.7784,-1.0003,0.0084,0.3219
3750,1086,816,33.844,26.901,0.0627,-0.0065,9.7129,1.3534,0.3254,-0.8838
3755,1090,823,33.905,26.829,0.0278,-0.0123,9.764,-0.3004,0.3818,0.057
3760,1089,826,33.842,26.856,-0.0177,-0.0676,9.7627,-0.1776,0.1549,0.5614
3765,1084,823,33.845,26.907,-0.0336,0.0231,9.8213,0.8658,-0.4373,-0.2804
3770,1087,828,33.909,26.896,-0.0317,0.0344,9.8099,-0.4707,-0.294,0.4705
3775,1085,829,33.795,26.873,-0.0233,-0.0555,9.8725,0.0719,0.3451,0.1133
3780,1077,824,33.826,26.871,0.0253,0.0148,9.8027,-0.858,-0.3814,0.4328
3785,1073,828,33.875,26.995,-0.048,-0.0055,9.7935,0.3988,0.0631,-0.4592
3790,1059,835,33.822,26.874,-0.0211,-0.0834,9.7987,0.5164,-0.5088,-0.5159
3795,1065,836,33.785,26.888,-0.0632,-0.014,9.7576,-0.6432,-0.4076,-0.051
3800,1060,830,33.839,26.872,0.0175,-0.011,9.8732,-0.2916,0.4768,-0.3428
3805,1060,831,33.811,26.909,-0.0047,-0.09,9.8078,0.3123,0.1674,0.6458
3810,1050,834,33.813,26.802,-0.116,-0.009,9.7994,-0.0407,-0.6776,-0.9851
3815,1053,837,33.824,26.91,0.0458,0.0278,9.7664,-0.5505,0.9919,0.0187
3820,1044,838,33.759,26.842,-0.0858,0.1232,9.739,-0.5363,0.3792,-0.1763
3825,1036,837,33.837,26.803,-0.0554,-0.0591,9.8619,-0.6131,0.2386,0.6758
3830,1031,833,33.855,26.915,-0.0757,0.0193,9.8681,-0.1619,0.0456,0.3588
3835,1025,837,33.862,26.828,-0.0769,0.0259,9.8073,0.5399,-0.549,1.0949
3840,1015,836,33.972,26.923,0.076,-0.0524,9.8926,0.4722,-0.1638,0.6794
3845,1015,840,33.825,26.758,0.0818,0.0802,9.9372,-0.4897,-0.3819,0.9748
3850,1002,841,33.827,26.846,0.0218,0.0303,9.8477,-0.0145,0.5871,0.0958
3855,989,834,33.811,26.961,-0.078,0.0503,9.8599,-0.5935,0.1503,0.3817
3860,985,834,33.789,26.88,0.0294,0.0362,9.7799,-0.1578,0.788,-0.8626
3865,980,832,33.833,26.928,0.0215,0.084,9.7739,0.149,-0.4112,0.4913
3870,968,839,33.755,27.03,0.0398,-0.0553,9.7513,0.2263,0.2918,-0.1998
3875,962,832,33.851,26.996,-0.1189,0.0183,9.7625,0.4697,-0.7884,0.0654
3880,959,835,33.768,26.865,0.0039,0.0464,9.8394,0.0026,1.1044,0.2605
3885,953,834,33.868,26.865,0.0173,0.0287,9.8275,-0.1953,-0.3175,-0.1225
3890,945,833,33.848,26.932,0.0182,0.0666,9.8544,-0.5176,0.782,-0.0824
3895,926,833,33.789,26.857,0.0334,0.0273,9.7207,0.1601,0.8872,0.0071
3900,920,832,33.901,26.752,0.0572,0.0038,9.8471,0.7659,0.5001,0.9981
3905,904,831,33.842,26.856,0.0174,0.0318,9.8084,0.5162,0.4762,0.7331
3910,894,829,33.798,26.856,-0.0299,-0.0493,9.7643,-0.7125,0.3246,-0.3364
3915,887,834,33.811,26.944,-0.0817,0.0503,9.7962,0.1959,-0.6868,-0.0542
3920,870,828,33.9,27.0,-0.1301,-0.0104,9.7941,-1.0393,0.1133,0.3717
3925,872,826,33.887,26.868,0.0239,-0.0073,9.8535,0.5201,-0.7038,0.8271
3930,859,824,33.862,26.868,0.0353,-0.0183,9.8424,-0.2159,-1.0583,0.6879
3935,831,820,33.913,26.879,-0.0899,0.0349,9.8341,0.1263,-0.2247,-0.2248
3940,836,830,33.916,26.94,-0.0076,0.1064,9.8363,0.0645,-0.6789,-0.1651
3945,824,821,33.883,26.866,0.0033,-0.0185,9.8385,-1.2306,0.1758,0.4955
3950,820,827,33.746,26.906,-0.072,0.0913,9.9121,-0.1278,0.5805,0.3606
3955,803,824,33.859,26.881,-0.0357,-0.0062,9.926,-0.047,-0.0249,1.6341
3960,810,821,33.8,26.963,0.0107,-0.0692,9.8421,-0.6103,0.3362,0.4893
3965,790,828,33.777,26.872,-0.0282,0.0572,9.7613,0.3272,0.5142,0.4955
3970,785,823,33.901,26.897,-0.0365,-0.0547,9.8386,-0.4219,0.4885,-0.5023
3975,780,821,33.95,26.984,0.0206,-0.0294,9.8816,1.0022,0.3732,-0.4764
3980,768,815,33.81,26.874,0.0255,0.0619,9.8851,-0.2302,-0.0089,-0.0998
3985,758,818,33.764,26.876,-0.0017,0.1215,9.789,0.2969,0.2287,-0.4476
3990,761,818,33.897,26.857,-0.0328,0.0312,9.8636,-0.626,0.1949,0.5856
3995,754,819,33.929,26.906,-0.0029,-0.0043,9.7549,0.5386,0.1342,0.7495
4000,748,816,33.847,26.872,0.0222,0.0256,9.8477,0.2165,0.0832,-0.4612
4005,743,816,33.864,26.836,0.0073,-0.0898,9.7719,0.1424,-0.3888,-0.6551
4010,747,815,33.783,26.926,0.0592,0.0371,9.7835,0.5593,0.0501,0.5754
4014,742,816,33.825,26.928,0.0808,-0.0077,9.8351,0.6417,0.5783,0.2928
4019,745,810,33.887,26.874,-0.0082,-0.041,9.7734,-0.6681,-0.1214,-0.6059
4025,748,819,33.858,26.887,0.0421,-0.0363,9.7397,-0.691,0.1223,0.5657
4030,746,813,33.862,26.86,-0.0834,-0.006,9.6886,0.9542,0.1247,0.8546
4035,756,819,33.85,26.826,-0.0325,0.0052,9.7637,-0.7308,0.2791,0.4264
4040,754,815,33.765,26.894,0.0259,0.0391,9.8018,-0.3993,-0.9212,0.2073
4045,761,812,33.885,26.916,0.0608,0.0045,9.8104,-0.0344,-0.0277,0.3301
4050,761,816,33.84,26.951,-0.0427,0.0086,9.8542,-0.9406,-0.0465,-0.5114
4054,770,809,33.792,26.89,-0.093,-0.0377,9.8074,-0.2957,-0.0883,-0.4532
4059,783,810,33.848,26.992,-0.0258,-0.0228,9.7985,1.2994,-0.1548,0.2801
4065,786,814,33.879,26.807,-0.0202,0.06,9.8223,0.0029,0.1301,0.3784
4070,790,807,33.804,26.863,-0.0138,-0.0474,9.8546,0.9081,-0.1599,0.2821
4075,792,807,33.858,26.85,-0.0462,0.0164,9.7315,0.2987,0.6321,-0.18
4080,811,802,33.869,26.926,0.0315,-0.0482,9.8814,0.0304,0.4099,0.2771
4085,826,805,33.784,26.948,-0.0363,-0.0238,9.8183,0.6462,-0.1107,0.153
4090,830,806,33.809,26.969,0.0136,-0.0224,9.8319,-0.1723,0.018,-0.5506
4094,839,804,33.863,26.907,-0.0035,-0.002,9.7733,0.0355,1.2413,0.3151
4100,863,798,33.823,26.846,-0.0273,-0.0221,9.7684,-0.7832,1.1625,-0.1753
4105,866,795,33.884,26.831,0.0297,-0.0205,9.7979,0.9702,0.379,-0.4322
4110,871,795,33.969,26.877,0.0578,-0.0416,9.897,-0.2399,-1.1167,0.0329
4115,890,799,33.79,26.81,-0.0611,-0.0061,9.8648,-0.0499,-0.238,0.6258
4120,918,797,33.846,26.846,0.0368,0.0169,9.8789,0.1898,0.7043,0.8299
4125,918,795,33.849,26.838,-0.0083,-0.0338,9.8106,-0.7558,0.5374,0.4915
4130,939,795,33.852,26.709,0.0122,-0.0105,9.8652,0.5142,0.7277,-0.7572
4135,946,789,33.836,26.917,0.0179,0.08,9.7565,0.8034,0.8313,0.0805
4140,962,789,33.915,26.815,0.0639,-0.0303,9.8275,-0.5384,-0.3994,-0.3876
4145,979,781,33.94,26.917,0.013,0.014,9.7537,-0.3358,0.0964,0.3883
4150,997,783,33.839,26.965,0.0009,-0.099,9.8187,-0.1199,-0.4277,0.5623
4155,1005,786,33.9,26.927,0.0638,0.1085,9.8446,0.1,0.0717,-0.4941
4160,1023,777,33.92,26.919,-0.0448,0.0759,9.8206,-0.252,0.3319,0.781
4165,1037,780,33.83,26.874,0.0047,0.0158,9.7721,0.0858,-0.0579,0.3616
4170,1041,773,33.858,26.899,-0.0433,-0.0329,9.7906,0.1365,-0.7224,0.8553
4175,1059,772,33.851,26.823,-0.0318,0.0048,9.8516,-0.0706,-0.5714,-0.2947
4180,1070,774,33.827,26.93,0.0072,0.04,9.7895,0.0181,-0.4292,-0.1773
4185,1087,766,33.891,26.967,-0.0178,-0.0576,9.7671,-0.0257,-0.9714,0.7513
4190,1093,766,33.905,26.936,0.0442,-0.0576,9.7675,0.7416,-0.7209,0.3652
4195,1107,770,33.974,26.912,-0.0313,0.088,9.9056,-0.1577,0.7707,-0.2564
4200,1103,768,33.837,26.92,-0.04,0.001,9.7773,-0.6103,0.0086,0.0835
4205,1124,760,33.906,26.941,0.0042,-0.0163,9.7493,0.0195,-0.5618,-0.8859
4210,1134,758,33.888,26.843,0.0149,0.0228,9.8105,-0.2582,0.4208,0.2226
4215,1142,753,33.883,26.8,-0.0038,0.0056,9.7365,0.0603,0.5072,0.0961
4220,1149,756,33.893,26.878,0.055,0.0034,9.8792,-0.7402,0.0121,-0.7604
4225,1161,755,33.915,26.843,0.0187,-0.008,9.7981,0.9998,0.3181,0.0727
4230,1170,752,33.886,26.883,-0.0458,0.0181,9.8564,0.3425,-0.6523,0.7016
4235,1163,754,33.911,26.909,0.021,-0.0791,9.7687,-0.3788,-0.2251,0.2586
4240,1177,749,33.901,26.923,0.0006,-0.0258,9.8838,-0.459,-0.4735,-0.6297
4245,1170,746,33.876,26.892,0.1376,-0.0907,9.8139,0.8371,0.1149,0.065
4250,1181,751,33.841,26.876,-0.015,0.0836,9.8128,0.2601,-0.4198,-0.5734
4255,1173,750,33.838,26.873,0.0476,0.0439,9.7747,-0.1636,-0.4536,0.4168
4260,1187,756,33.818,26.856,0.031,-0.0019,9.8748,0.2694,0.2038,-0.4892
4265,1189,745,33.893,26.881,0.0087,0.0437,9.8076,0.2426,0.1127,1.2099
4270,1184,752,33.767,26.934,0.0215,-0.0457,9.8413,0.1436,-0.5178,-0.0794
4275,1192,749,33.888,26.839,0.0546,-0.0228,9.7718,-0.3182,0.2475,0.244
4280,1176,746,33.959,26.944,-0.087,0.041,9.8462,-0.6729,-0.6555,-0.1209
4285,1177,750,33.896,26.98,0.0312,0.0405,9.8917,-0.0596,0.0153,-0.1229
4290,1192,748,33.861,26.933,-0.0708,-0.0373,9.7675,-0.1247,1.1025,-0.7579
4295,1195,751,33.867,26.898,0.0094,-0.0185,9.7506,-0.1815,0.1206,0.3708
4300,1187,748,33.908,26.836,0.0513,-0.0303,9.8334,-0.036,-0.4118,0.2243
4305,1181,750,33.903,26.905,0.0405,-0.0337,9.8113,-0.896,-0.5929,-1.108
4310,1181,751,33.821,26.858,-0.0664,-0.0239,9.8202,0.0017,0.4629,0.0041
4315,1179,755,33.933,26.931,-0.0297,0.0445,9.7645,-0.0022,0.3998,0.0203
4320,1175,759,33.951,26.952,0.0215,0.0059,9.7736,-0.5733,-0.0971,0.1089
4325,1167,758,33.769,26.874,0.05,0.0393,9.7985,-0.0287,-0.0972,0.039
4330,1160,760,33.823,26.856,-0.036,-0.0015,9.7323,-0.2967,0.0091,-1.0608
4335,1168,763,33.786,26.901,-0.0474,0.0121,9.8371,0.3819,0.6903,0.5512
4340,1168,767,33.868,26.903,0.0235,-0.0645,9.8605,-0.306,0.0511,0.6393
4345,1158,769,33.873,26.908,0.0933,-0.0287,9.7675,-0.3882,0.2068,0.7485
4350,1150,770,33.797,26.922,0.0228,-0.0156,9.8047,0.3078,0.2582,-0.1582
4355,1138,771,33.842,26.887,0.0001,0.029,9.7764,0.4651,0.1225,-0.2526
4360,1149,771,33.856,26.893,-0.0993,0.0151,9.7931,-0.0497,-0.0029,0.0199
4365,1147,775,33.873,26.899,0.0448,0.0228,9.754,0.5076,0.1238,-0.4807
4370,1123,780,33.776,26.939,0.0274,0.1002,9.8546,-0.1899,-0.133,-0.3682
4375,1132,781,33.808,26.887,-0.0232,-0.0113,9.8457,-0.1381,0.582,-1.307
4380,1133,786,33.823,26.888,-0.02,0.0568,9.7946,0.2766,-0.1052,0.2302
4385,1119,788,33.822,26.939,0.0075,0.0095,9.7717,-0.5197,-0.1722,1.1044
4390,1134,795,33.886,26.915,-0.048,0.0971,9.8664,0.1656,-0.5202,-0.3716
4395,1117,790,33.824,26.989,-0.0632,0.0253,9.7466,-0.2474,-0.4192,-0.5387
4400,1110,803,33.825,26.937,-0.0415,-0.0081,9.835,-0.8448,0.0597,-0.0592
4405,1106,807,33.852,26.894,0.0279,0.0242,9.8156,-0.1239,0.0258,-0.1114
4410,1111,803,33.888,26.887,-0.0099,0.0529,9.7392,-0.091,0.0058,-0.1101
4415,1104,810,33.905,26.894,0.0024,-0.0129,9.8293,-0.3753,0.1243,0.1521
4420,1108,806,33.799,26.843,-0.0377,0.0603,9.9035,0.0017,1.1287,-0.5244
4425,1108,810,33.871,26.909,-0.0102,0.0603,9.7561,0.2524,-0.1182,-0.3137
4430,1096,812,33.866,26.87,-0.0001,0.0241,9.8846,-0.07,0.3101,-0.1353
4435,1098,808,33.803,26.815,0.0648,0.0084,9.8338,0.4133,-1.0491,0.8244
4440,1099,824,33.892,26.951,-0.0498,0.0362,9.9144,-0.4858,0.3512,-0.3457
4445,1104,819,33.908,26.848,0.0793,-0.0176,9.9146,-0.3016,-0.473,0.5947
4450,1088,824,33.781,26.92,-0.0208,0.0135,9.6598,0.4212,-0.2005,0.3763
4455,1081,826,33.834,26.846,-0.0005,-0.0009,9.8076,0.0553,-0.5848,-0.2365
4460,1086,823,33.86,26.864,0.0907,-0.0102,9.8333,-0.3532,0.4591,-0.0568
4465,1086,828,33.821,26.972,0.0001,0.0204,9.7555,0.78,-0.1558,0.1036
4470,1075,822,33.896,26.931,0.0238,-0.0032,9.842,-0.136,0.5459,0.021
4475,1072,832,33.866,26.877,0.0298,0.1033,9.8057,-0.1564,0.1766,-0.3766
4480,1077,826,33.801,26.862,0.0226,0.0072,9.7173,1.1454,-0.1216,-0.3773
4485,1070,835,33.87,26.844,-0.0234,-0.0881,9.7052,0.2977,-0.1617,-0.1894
4490,1068,837,33.827,26.901,0.0256,-0.0376,9.8408,-0.3455,-0.1477,-0.6981
4495,1056,835,33.791,26.877,-0.0716,-0.0368,9.7243,-0.0723,-0.8838,-0.4881
4500,1051,837,33.886,26.907,-0.0577,-0.0491,9.7852,-0.0938,-0.0379,1.1574
4505,1054,837,33.808,26.852,-0.0261,0.1013,9.7561,0.3426,0.1306,0.2888
4510,1055,835,33.901,26.875,0.007,-0.0759,9.7192,-0.0335,0.0049,-0.4753
4515,1045,842,33.87,26.897,0.0256,-0.0152,9.7546,0.0393,0.1522,-0.4541
4520,1035,842,33.79,26.82,0.0187,-0.0503,9.8056,-0.2504,0.0207,-0.703
4525,1041,840,33.899,26.893,0.0558,0.0128,9.813,-0.4968,-0.6576,0.4673
4530,1032,837,33.944,26.923,-0.0084,0.0307,9.8012,1.2866,-0.3373,0.1267
4535,1014,837,33.872,27.008,0.0447,0.0466,9.8202,-0.2393,-0.7944,-0.3201
4540,1008,831,33.852,26.881,-0.0269,0.0936,9.8126,0.3984,0.1802,-0.3158
4545,1000,838,33.856,26.949,0.0063,0.0199,9.8432,0.0064,-0.0264,-0.4752
4550,1001,835,33.884,26.858,0.1214,0.0108,9.7825,0.5157,-0.2798,-0.2585
4555,990,835,33.84,26.867,-0.0993,-0.0003,9.7797,0.4693,-0.8348,-0.4747
4560,968,836,33.792,26.921,0.044,-0.0538,9.8613,0.3728,0.0018,0.7987
4565,975,837,33.821,26.904,0.0474,-0.0298,9.8118,-1.1144,0.9264,-0.1479
4570,957,835,33.819,26.814,0.0187,0.0619,9.8075,0.1098,-0.5222,0.8965
4575,960,828,33.808,26.854,-0.01,0.0686,9.8438,0.1971,-1.1777,0.6298
4580,941,830,33.839,26.86,0.0742,0.0645,9.7948,-0.4883,0.2399,-0.4152
4585,942,823,33.866,26.903,0.1264,0.1058,9.7771,-0.2116,0.1858,-0.6435
4590,927,833,33.899,26.822,0.0002,0.0339,9.8233,-0.2397,0.3396,0.0355
4595,919,825,33.845,26.905,0.0351,-0.0027,9.8166,-0.2859,0.4962,0.3219
4600,908,835,33.894,26.905,-0.0232,0.0033,9.7886,-0.4945,0.3905,-0.5944
4605,900,827,33.801,26.974,0.0215,0.033,9.8422,-0.3259,0.2898,-0.1486
4610,888,825,33.882,26.828,0.0298,0.0005,9.8509,0.4326,0.8698,-0.7189
4615,875,824,33.777,26.892,-0.0702,-0.1115,9.857,-0.1879,-0.3343,-0.2853
4620,860,827,33.807,26.906,-0.0608,0.0442,9.8613,-0.9106,-1.0751,0.3399
4625,856,825,33.866,26.902,0.0099,0.0052,9.7537,0.1042,0.4686,-0.2721
4630,833,825,33.808,26.959,-0.009,-0.023,9.9038,1.7315,0.1078,0.4905
4635,837,823,33.935,26.769,-0.012,-0.111,9.8351,0.4622,-0.2449,0.3184
4640,824,819,33.845,26.864,-0.098,-0.1031,9.888,0.3301,0.326,0.8445
4645,822,823,33.939,26.849,-0.0715,0.0463,9.8181,0.1499,0.4641,0.3423
4650,804,819,33.974,26.87,-0.0527,-0.1367,9.7814,-0.2948,0.5872,-0.382
4655,799,817,33.83,26.958,0.0143,0.0018,9.7895,-0.1458,0.3482,0.3172
4660,787,816,33.869,26.808,0.02,-0.0031,9.7342,-0.2336,0.3767,-0.2364
4665,783,818,33.866,27.002,-0.0473,-0.0167,9.8089,-0.7613,0.177,0.0534
4670,779,816,33.82,26.931,-0.0701,-0.0241,9.8685,0.2318,0.4186,-0.5763
4675,771,823,33.825,26.903,0.0234,0.0623,9.8218,0.0709,0.1975,-0.0688
4680,771,818,33.784,26.846,-0.0006,0.0776,9.8005,0.8453,-0.5912,0.3572
4685,768,819,33.817,26.807,-0.0542,0.0737,9.7506,-0.81,0.4932,-0.1343
4690,764,819,33.776,26.89,0.0153,-0.016,9.8054,-0.2302,-0.7502,0.5776
4695,761,818,33.841,26.83,-0.0372,0.0116,9.8255,-0.6304,-0.0601,-0.0553
4700,753,817,33.872,26.904,-0.0599,0.0181,9.8293,-0.1271,0.3113,-0.3615
4705,756,815,33.937,26.94,-0.0296,-0.0416,9.7699,-0.0466,0.3346,0.3316
4710,753,814,33.806,26.821,0.0698,0.046,9.8178,-0.1492,0.1884,-0.6693
4715,747,820,33.945,26.871,-0.0179,0.0331,9.8536,1.1248,-0.0424,-1.0716
4720,747,815,33.829,26.871,-0.0027,0.091,9.7978,0.2227,-0.7995,0.0201
4725,740,815,33.896,26.879,-0.0929,-0.0253,9.6806,-0.0454,-0.1784,-0.0668
4730,758,812,33.854,26.781,0.0632,0.0168,9.805,-0.289,0.4279,-0.7765
4735,752,820,33.811,26.912,0.0217,-0.0331,9.8941,-0.4045,-0.0756,0.0037
4740,762,815,33.812,26.925,0.0182,-0.0691,9.8394,0.3886,-0.1158,-0.3235
4745,769,813,33.702,26.806,-0.0124,0.0222,9.8033,-0.3639,0.2672,0.2006
4750,761,814,33.939,26.934,0.0957,-0.0312,9.7757,-0.6868,-0.0956,0.3089
4755,783,805,33.898,26.962,-0.0888,0.0097,9.865,0.6467,-0.1154,-1.0716
4760,787,807,33.811,26.91,0.0485,-0.0214,9.8751,-0.2221,0.568,1.0622
4765,788,810,33.88,26.874,0.0274,-0.0298,9.7582,0.0356,1.2486,0.1072
4770,801,808,33.848,26.864,-0.0796,0.0172,9.7386,0.7728,0.2842,0.2043
4775,815,802,33.818,26.855,-0.0264,0.0278,9.7476,-0.0894,-0.1434,0.2262
4780,812,804,33.883,26.778,0.0846,0.0501,9.8609,0.603,0.8996,0.3784
4785,838,810,33.806,26.946,0.0644,0.0466,9.7631,0.6226,1.1497,-1.1695
4790,843,804,33.855,26.976,0.0412,0.0231,9.8625,0.6234,-0.3508,-0.7971
4795,864,802,33.874,26.839,-0.0194,-0.0092,9.7718,0.288,0.285,0.1309
4800,873,798,33.808,26.974,-0.0436,-0.0704,9.8562,-0.5877,0.297,1.4007
4805,891,799,33.839,26.923,-0.0443,0.0188,9.8387,-0.0235,0.4903,0.0386
4810,900,796,33.865,26.914,-0.048,-0.1217,9.7853,0.1623,-0.3491,0.3901
4815,914,797,33.828,26.888,-0.0017,-0.0116,9.7848,-0.4548,0.1066,0.2551
4820,925,792,33.832,26.951,-0.0472,0.0422,9.8036,-0.3439,-0.4807,-0.9246
4825,938,793,33.93,26.861,-0.0798,0.0173,9.7935,0.1476,-0.0311,0.535
4830,956,789,33.93,26.84,-0.0713,-0.0637,9.8602,0.067,-0.0497,-0.5622
4835,967,793,33.874,26.917,0.0142,-0.0261,9.8301,0.5512,0.5049,0.1162
4840,977,781,33.854,26.856,0.0031,0.0279,9.7595,-0.1356,0.806,-0.2613
4845,991,782,33.867,26.948,-0.0577,0.0162,9.8442,0.8248,-0.174,-0.1327
4850,1008,783,33.765,26.977,0.0727,0.0972,9.8978,-0.3185,-0.6772,-0.0429
4855,1017,779,33.919,26.916,0.002,-0.0454,9.8503,0.0535,0.1549,-0.1074
4860,1034,778,33.886,26.898,-0.055,0.0159,9.7548,0.0243,-0.1393,-1.4123
4865,1041,776,33.823,26.899,0.0965,-0.048,9.7695,0.5183,-0.4391,-0.5446
4870,1060,774,33.918,26.874,-0.0593,-0.0966,9.7999,0.2582,-0.9923,0.3007
4875,1074,768,33.879,27.017,-0.0257,0.0214,9.8451,-0.5859,-0.3362,1.1527
4880,1080,772,33.839,26.954,-0.0425,-0.0161,9.7336,0.3008,0.3055,0.9549
4885,1093,772,33.836,26.889,0.0257,-0.0433,9.81,-0.3076,-0.645,0.1253
4890,1113,768,33.883,26.973,-0.0121,-0.0053,9.7894,-0.0646,0.1093,0.0527
4895,1110,756,33.941,26.911,0.0248,-0.0578,9.8118,0.5938,-0.3259,0.8224
4900,1121,767,33.851,26.946,-0.0239,0.0657,9.7872,0.2167,1.4321,0.2743
4905,1124,757,33.796,26.933,0.0213,-0.0352,9.772,0.1023,0.556,-0.0357
4910,1143,760,33.899,26.943,-0.0253,0.0467,10.007,-0.1404,0.7117,0.9176
4915,1145,758,33.87,26.873,0.0393,0.056,9.7904,0.418,0.214,0.0141
4920,1154,755,33.806,26.912,-0.0703,0.021,9.7496,0.3283,-0.0915,0.565
4925,1162,747,33.762,26.958,-0.0029,-0.0578,9.7337,1.0031,0.162,0.3111
4930,1164,749,33.852,27.054,0.0654,-0.0273,9.8043,0.3554,-0.2772,0.6549
4935,1166,755,33.88,26.853,-0.085,0.0144,9.7835,0.1023,0.9727,0.1258
4940,1179,754,33.946,26.966,-0.0765,0.0325,9.7832,-0.407,0.9195,0.8254
4945,1175,747,33.794,26.903,-0.0309,-0.0791,9.827,-0.4189,0.2201,0.5277
4950,1190,749,33.806,26.896,0.012,-0.0146,9.7286,-0.5267,0.9978,-0.109
4955,1191,749,33.849,26.897,-0.0546,0.0652,9.8205,-1.1106,-0.4477,-0.3091
4960,1183,747,33.905,26.948,0.0624,0.0016,9.8493,-0.1089,-0.1917,-0.3013
4965,1192,753,33.811,26.941,0.0265,-0.0549,9.8158,-0.3423,0.2497,0.1529
4970,1190,749,33.93,26.939,0.0817,-0.004,9.7785,0.6879,0.2385,0.6906
4975,1192,749,33.849,26.845,0.0064,-0.0288,9.766,-0.7635,0.4275,0.3078
4980,1184,752,33.868,27.003,0.0036,-0.0486,9.8306,-0.0702,-0.0362,0.0309
4985,1196,750,33.819,26.884,-0.0751,-0.0143,9.7867,-0.4116,-0.8516,0.0004
4990,1179,753,33.856,26.864,-0.0073,0.004,9.7164,0.0039,-0.6192,-0.0617
4995,1182,747,33.905,26.971,-0.0151,0.0383,9.8807,-0.3487,-0.152,-0.6966
5000,1183,749,33.872,26.923,0.0553,-0.025,9.7765,0.6516,0.2348,0.095
5005,1173,753,33.846,26.794,0.0404,-0.0558,9.9241,0.1807,-0.3382,-0.1148
5010,1167,752,33.935,26.863,0.0235,0.0206,9.7503,-0.4508,-0.4781,0.2211
5015,1172,763,33.902,26.897,0.0975,-0.0016,9.845,1.2414,0.0392,-0.2197
5020,1166,755,33.912,26.901,0.0731,0.0287,9.827,-0.4233,0.2056,0.221
5025,1164,762,33.818,26.995,0.0074,-0.0555,9.7777,-0.3125,-1.0072,0.3991
5030,1174,762,33.835,26.955,0.0543,0.0107,9.8403,-1.9095,0.3162,0.1825
5035,1154,764,33.919,26.952,0.0344,-0.1182,9.8036,-0.2304,-0.1542,0.0424
5040,1151,770,33.831,26.861,-0.0837,0.034,9.8298,0.0883,0.5783,-0.2004
5045,1146,771,33.815,26.92,0.0988,-0.0124,9.7868,0.2664,-0.7455,0.0522
5050,1139,771,33.9,26.859,0.016,-0.0165,9.8262,0.1233,0.1065,0.4853
5055,1146,768,33.829,26.928,0.0243,0.1103,9.84,-0.5045,-0.5662,0.0153
5060,1136,778,33.9,26.998,-0.0491,0.0393,9.8226,-0.0766,0.1839,0.4454
5065,1136,777,34.045,26.816,0.0621,-0.0125,9.7232,0.3559,-0.1874,-0.4825
5070,1127,782,33.798,26.876,-0.0105,-0.0278,9.8365,-0.4618,-0.0978,0.009
5075,1121,790,33.871,26.938,-0.0317,0.0151,9.7638,0.3723,-0.3671,0.4285
5080,1124,783,33.82,26.865,0.0139,0.0586,9.7001,0.4647,-0.6827,-0.6845
5085,1118,786,33.858,26.883,0.0386,0.0213,9.9052,0.2953,0.0812,-0.4994
5090,1109,791,33.96,26.929,0.003,-0.0614,9.8584,0.744,0.6624,-0.1313
5095,1114,796,33.945,26.931,-0.0601,0.0052,9.8406,-0.1607,-0.1963,0.4654
5100,1104,801,33.781,26.96,-0.0101,0.0098,9.8228,-0.1389,0.0991,1.0123
5105,1098,803,33.824,26.903,-0.0037,0.0198,9.7981,0.4197,-1.1337,-0.2126
5110,1106,803,33.854,26.892,0.047,-0.0021,9.7825,-0.0303,-0.2473,0.4909
5115,1108,809,33.796,26.968,-0.0475,-0.0777,9.8069,1.1334,0.0233,0.5052
5120,1101,815,33.898,26.866,-0.0964,0.0414,9.7991,0.4046,1.0854,0.5551
5125,1101,815,33.904,26.832,-0.0664,0.0469,9.7686,-0.1593,0.3538,-0.1969
5130,1095,815,33.807,26.896,0.0469,0.0115,9.9439,0.8643,-0.6726,0.231
5135,1096,819,33.811,26.923,-0.0033,0.0994,9.7861,-0.0575,-0.1446,-0.2629
5140,1087,818,33.978,26.862,0.0467,0.0148,9.7038,0.5941,-0.2442,-0.5112
5145,1090,823,33.744,26.96,0.0115,0.0685,9.7178,0.8379,1.0804,-0.4958
5150,1089,822,33.881,26.912,-0.0009,0.0435,9.837,0.5026,0.0934,0.4389
5155,1084,826,33.911,26.863,0.0353,0.0259,9.7734,-0.3061,0.1415,-0.864
5160,1076,829,33.88,26.844,0.0079,0.0202,9.7697,0.0389,0.3643,-0.1106
5165,1080,825,33.864,26.991,-0.0282,0.0105,9.7703,0.9397,0.8468,0.546
5170,1078,829,33.888,26.915,-0.0057,0.0692,9.8197,0.5461,-0.4058,-0.3224
5175,1071,834,33.793,26.877,0.017,0.0413,9.8152,-0.0649,-0.1257,-0.074
5180,1063,840,33.923,26.847,0.1157,0.0125,9.8476,-0.7618,-0.1985,-0.2397
5185,1062,836,33.909,26.897,-0.0319,-0.0271,9.7815,0.7115,0.4406,-0.0542
5190,1063,839,33.845,26.98,0.1009,-0.0164,9.7838,0.3976,-0.3765,0.044
5195,1056,837,33.77,26.808,-0.0487,0.0028,9.8714,0.1853,-0.1491,0.1164
5200,1051,837,33.834,26.966,0.0044,-0.0243,9.8282,-0.3929,0.3547,-0.7142
5205,1051,836,33.895,26.886,0.0582,-0.0434,9.8421,-0.5032,-0.3325,-0.54
5210,1045,834,33.912,26.786,0.0263,0.0153,9.8088,-0.2824,-0.633,0.7073
5215,1046,838,33.906,26.914,0.045,-0.0382,9.7411,0.2023,-0.1657,-0.3731
5220,1036,839,33.799,26.889,0.0067,0.0353,9.8392,-0.8834,0.724,-0.4337
5225,1024,842,33.903,26.912,0.0541,0.1184,9.7658,-0.1501,-0.3958,-0.1703
5230,1020,844,33.855,26.874,-0.0402,0.0051,9.7442,-0.5925,-0.2971,0.4246
5235,1009,839,33.83,26.867,-0.0066,-0.0371,9.9151,0.1312,-0.5215,-0.6156
5240,1004,831,33.789,26.917,0.0458,0.0534,9.8736,-0.0453,0.6723,-0.2356
5245,1003,838,33.862,26.879,-0.0453,-0.0308,9.8214,-0.0432,0.2148,0.3799
5250,994,836,33.938,26.912,-0.0162,-0.0365,9.8014,-0.057,-0.0455,0.0898
5255,982,834,33.862,26.948,-0.0127,0.0207,9.8149,0.0218,0.0922,0.1815
5260,969,831,33.922,26.833,-0.0756,-0.0099,9.7643,0.3219,-0.6954,0.088
5265,969,832,33.86,26.903,0.0167,0.0329,9.7233,0.3914,-0.6917,-0.3728
5270,948,833,33.824,26.915,-0.0471,0.066,9.8293,0.8655,-0.0819,0.9228
5275,948,831,33.848,26.867,-0.0643,-0.004,9.7396,0.2019,-0.018,-0.5464
5280,934,834,33.894,26.887,-0.0105,-0.0418,9.8183,1.1111,-0.4038,-0.3736
5285,933,834,33.851,26.913,0.0249,0.0058,9.8238,-0.0165,-0.5573,-0.2756
5290,920,823,33.855,26.884,-0.0407,0.0076,9.7987,-0.2752,0.418,-0.6358
5295,899,827,33.795,26.944,0.0509,0.0815,9.8735,-0.1855,-0.1293,0.9615
5300,888,830,33.916,26.899,0.0203,0.0649,9.795,0.0047,0.0769,0.2042
5305,881,832,33.887,26.915,0.0302,0.1103,9.822,-0.5048,-0.0758,0.2248
5310,880,828,33.879,26.835,0.0169,-0.0549,9.8049,0.0619,0.1665,0.6709
5315,865,831,33.921,26.896,0.078,-0.0135,9.7553,-0.3047,0.2463,1.2552
5320,854,824,33.814,26.907,0.048,-0.0382,9.7819,-1.2783,-0.3659,-0.4684
5325,848,820,33.914,26.881,0.0078,0.0478,9.8041,0.2456,0.2773,0.373
5330,842,829,33.959,26.938,0.0587,-0.0076,9.8403,0.3627,0.6379,-0.8871
5335,825,824,33.851,26.809,0.0135,0.0544,9.8355,1.0863,-0.0392,0.2077
5340,818,825,33.842,26.963,0.0085,0.0643,9.7749,0.2223,-0.2817,-1.0364
5345,814,824,33.899,26.907,-0.0406,0.0089,9.8664,-0.1054,0.889,-0.1553
5350,807,827,33.926,26.957,-0.0497,-0.1059,9.8263,-0.0317,-0.0174,0.3318
5355,792,824,33.826,26.958,-0.0717,0.0612,9.7989,-1.1915,0.7409,-0.0694
5360,782,826,33.817,26.922,0.031,0.0115,9.803,0.4722,0.5606,-0.1891
5365,780,818,33.878,26.895,-0.06,0.0014,9.8355,0.0438,0.3916,-0.5445
5370,768,819,33.913,26.865,0.0023,-0.0595,9.9317,0.3033,-0.1923,0.378
5375,767,827,33.86,26.971,-0.0659,0.0477,9.8206,0.3535,0.8815,0.1486
5380,753,822,33.827,26.899,-0.024,-0.0772,9.7807,0.2526,-0.2252,0.8064
5385,746,816,34.007,26.841,0.0289,0.0265,9.8242,0.2501,-0.6232,0.4822
5390,758,816,33.912,26.92,-0.0093,0.0165,9.8917,0.0581,-0.3644,0.1102
5395,746,822,33.868,26.906,0.0145,0.0566,9.8099,0.2831,0.5203,0.1605
5400,749,817,33.94,26.866,0.0407,0.053,9.806,0.5773,-0.0891,0.3672
5405,743,816,33.946,26.876,0.0335,-0.0397,9.7711,0.0749,0.8881,-0.2251
5410,746,818,33.804,26.914,0.0566,-0.0854,9.8579,-0.5508,1.1587,0.314
5415,745,813,33.897,26.944,0.0084,0.0266,9.7699,0.1136,-0.3529,-0.8017
5420,746,817,33.877,26.994,0.0319,-0.0343,9.8965,0.9233,0.3489,-0.115
5425,759,818,33.865,26.908,0.0304,0.0142,9.8634,0.0181,0.8127,-0.1229
5430,750,813,33.799,26.899,-0.0204,-0.0388,9.8243,-0.5702,0.4619,0.7202
5435,755,812,33.868,26.988,0.0562,-0.0257,9.8065,0.9225,0.2585,0.1043
5440,767,806,33.915,26.95,0.0791,-0.0016,9.7511,-0.6174,-1.0676,0.0596
5445,770,811,33.923,26.871,0.0087,-0.0329,9.8123,0.2367,0.3533,0.8297
5450,779,806,33.8,26.965,-0.0882,0.0224,9.7619,-0.6001,0.927,0.0315
5455,795,805,33.89,26.945,0.0305,-0.031,9.8213,0.4539,-0.2049,0.3551
5460,802,808,33.884,27.008,-0.0531,0.0643,9.8621,0.7877,-0.6374,-0.7955
5465,804,808,33.833,26.98,0.0226,0.0011,9.8371,-0.4672,-0.5134,-0.28
5470,806,808,33.815,26.967,0.033,-0.0442,9.8147,-0.0236,0.213,0.5395
5475,825,803,33.934,26.917,0.0498,0.0471,9.7263,0.6672,-0.1209,-0.2843
5480,843,805,33.9,26.851,0.004,0.022,9.7907,0.5258,-0.8636,-0.3875
5485,843,807,33.903,26.882,-0.0198,-0.031,9.7465,-0.7167,-0.1757,-0.4568
5490,856,805,33.751,27.055,0.1004,-0.0676,9.7552,-0.4193,0.6735,0.8019
5495,867,801,33.947,26.975,-0.0131,0.0336,9.7528,-0.673,-0.748,0.1262
5500,881,795,33.848,27.004,0.0668,-0.0394,9.8504,0.11,0.2389,-0.1793
5505,885,795,33.827,26.951,-0.0217,0.0335,9.8316,-0.7369,0.3912,-1.4606
5510,914,795,33.85,26.942,-0.0596,-0.0093,9.7886,-0.4503,-0.4462,-0.1224
5515,926,792,33.894,26.883,-0.0854,0.0278,9.8415,-0.2413,-0.2407,0.2768
5520,939,784,33.887,26.816,0.0439,0.0121,9.8085,-0.1748,0.4962,-0.0473
5525,949,794,33.859,26.975,0.0302,-0.0375,9.7516,0.4397,0.3786,0.1332
5530,966,790,33.861,27.022,0.0003,-0.035,9.7889,-0.3298,-0.3302,0.8289
5535,983,781,33.859,26.945,0.0483,0.047,9.8504,-0.7032,0.2737,-0.5177
5540,998,779,33.891,26.967,-0.0419,-0.03,9.7984,1.105,-0.9483,-0.3318
5545,1010,785,33.865,26.996,0.0119,-0.0178,9.6884,0.9108,0.0346,0.5326
5550,1024,775,33.935,26.922,0.0231,-0.0527,9.8072,0.5058,-0.1489,-0.0804
5555,1033,780,33.899,26.916,-0.0932,-0.0094,9.775,-0.2282,0.0999,0.2051
5560,1044,775,33.903,26.903,0.033,-0.0278,9.9172,0.2591,-0.5024,0.1984
5565,1065,773,33.864,26.905,-0.0035,-0.0437,9.8482,-0.9764,0.0189,-0.027
5570,1065,771,33.79,26.882,0.0143,0.0075,9.9591,-0.5982,0.4254,0.1378
5575,1079,769,33.819,26.898,-0.0876,-0.0487,9.8043,0.3572,0.0057,-0.2231
5580,1089,766,33.973,26.883,0.0191,0.0097,9.874,-0.3052,0.5584,0.0075
5585,1107,764,33.845,26.915,-0.1064,-0.006,9.8191,-0.0439,-0.8017,0.5497
5590,1119,760,33.872,26.908,0.1259,-0.0106,9.7764,-0.2759,0.1954,-0.44
5595,1123,755,33.859,26.891,0.0393,0.0165,9.8032,-0.3133,0.137,-0.3953
5600,1133,750,33.956,26.946,-0.004,-0.0428,9.8192,-0.898,-0.3567,-0.0747
5605,1141,758,33.805,26.888,0.0083,0.0404,9.811,0.2815,-0.4713,-0.0567
5610,1142,750,33.746,26.917,0.0092,0.0773,9.7248,-0.4669,-0.763,0.6206
5615,1165,754,33.943,26.966,0.0821,-0.0227,9.8099,-0.879,0.4547,-0.2313
5620,1173,752,33.752,26.862,0.0221,0.0187,9.8981,0.196,0.5165,-0.3043
5625,1165,757,33.815,26.943,0.0627,-0.0667,9.838,-0.4338,-0.7721,-0.2072
5630,1174,753,33.825,26.839,-0.0042,0.0706,9.8031,0.1895,-1.0764,-0.0748
5635,1168,746,33.829,26.899,0.0072,0.0083,9.8301,0.4785,0.5701,1.006
5640,1181,752,33.846,26.83,-0.0506,-0.0369,9.8343,0.6136,-0.1257,0.2
5645,1187,752,33.819,26.914,0.0131,0.0588,9.7708,-0.1523,-0.0018,0.6323
5650,1187,751,33.86,26.936,0.0106,0.053,9.776,0.198,0.7234,0.0959
5655,1187,755,33.782,26.865,-0.0002,-0.0796,9.7843,0.9403,-0.7828,0.1866
5660,1192,754,33.898,26.997,0.0507,0.0014,9.9008,0.0118,0.5146,-0.9344
5665,1175,745,33.796,26.958,0.0584,0.0456,9.8424,-0.0263,-0.5055,1.5651
5670,1191,747,33.908,26.948,-0.0687,-0.0146,9.7707,0.0589,0.667,0.1466
5675,1196,751,33.803,26.965,-0.0624,0.0975,9.7991,0.0822,-0.6398,-0.2779
5680,1191,746,33.851,26.889,-0.0598,-0.002,9.7608,0.0514,0.3026,0.2462
5685,1181,749,33.899,26.951,0.0146,-0.1039,9.8646,-0.5717,-0.1726,0.2684
5690,1193,750,33.914,26.875,-0.0938,0.0101,9.7754,0.1132,0.0338,0.3132
5695,1181,753,33.88,26.972,0.0448,0.0322,9.7924,-0.2565,-0.4113,1.3193
5700,1178,755,33.857,26.95,0.0132,-0.0293,9.7778,0.4297,-1.2646,0.7425
5705,1171,756,33.867,26.864,0.0798,0.0275,9.869,0.6402,-0.5591,0.4313
5710,1180,754,33.862,26.886,0.0472,0.0774,9.8191,-0.3163,-0.1265,0.9663
5715,1173,758,33.883,26.938,-0.0604,-0.0182,9.7862,-0.1359,-0.5095,0.1655
5720,1167,766,33.832,26.817,0.0009,0.0019,9.8209,0.2846,-0.3692,0.2913
5725,1162,761,33.814,26.899,-0.0243,0.0013,9.7769,0.672,0.5462,-0.3977
5730,1166,770,33.866,26.94,0.0189,-0.0244,9.7552,-0.1374,0.2575,1.4094
5735,1158,772,33.846,26.894,0.0475,0.0117,9.7938,-0.4199,0.0125,0.7398
5740,1149,769,33.861,26.97,0.1013,0.0229,9.8577,-0.161,-0.4254,-0.0533
5745,1137,775,33.879,26.947,0.0012,-0.1073,9.8654,-0.8248,-1.0388,-0.4908
5750,1143,782,33.955,26.832,-0.0425,0.0626,9.83,-0.1059,0.0499,-0.2632
5755,1129,776,33.928,26.93,-0.0187,0.0808,9.8071,-0.3041,0.0544,0.8273
5760,1134,776,33.831,26.995,-0.0491,-0.0578,9.9541,-0.3512,0.9889,-0.225
5765,1137,785,33.929,26.943,0.0687,-0.0568,9.7884,-0.1285,-0.621,-0.3754
5770,1126,785,33.829,26.934,0.0444,-0.044,9.8383,0.4366,0.0967,-0.0519
5775,1126,791,33.836,26.853,0.033,-0.029,9.8052,0.158,-0.5917,0.5362
5780,1111,795,33.801,26.956,0.0419,-0.0592,9.8255,-0.3607,-0.0831,0.3905
5785,1121,796,33.845,26.906,0.0334,0.0395,9.7953,-0.5502,-0.1698,-0.2297
5790,1119,800,33.913,26.969,0.0547,0.0492,9.7799,0.18,-1.1216,0.3203
5795,1118,802,33.874,26.956,-0.0495,-0.0092,9.7991,-0.3644,0.5883,0.1999
5800,1110,803,33.89,26.909,0.0176,-0.0161,9.7863,0.5753,0.1013,0.6093
5805,1104,812,33.895,26.896,-0.1077,-0.0734,9.8238,-0.5162,0.114,-0.2383
5810,1114,806,33.852,26.98,0.0613,0.0756,9.8456,0.5051,0.3695,0.2871
5815,1102,812,33.887,26.897,0.0492,0.0658,9.8711,0.011,-0.0387,-0.2009
5820,1106,818,33.945,26.947,-0.0163,-0.0072,9.7544,0.9446,-0.2319,0.1214
5825,1087,813,33.946,26.896,0.0296,-0.0767,9.8463,-0.1729,0.6078,-0.585
5830,1082,819,33.846,26.858,0.0237,0.1101,9.7116,0.6097,0.4554,0.3047
5835,1092,821,33.801,26.892,-0.0013,0.0532,9.7588,-0.7343,-0.865,-1.0253
5840,1093,826,33.921,26.865,-0.0302,-0.0066,9.7843,0.2554,-0.7432,-0.2509
5845,1092,822,33.969,26.836,0.0071,-0.0247,9.7733,0.0337,-1.0903,-0.4634
5850,1076,829,33.869,26.941,-0.0111,0.0505,9.8126,0.1243,-0.0107,-0.2127
5855,1075,830,33.875,26.86,0.0056,-0.011,9.7855,-0.6454,0.4966,-0.6504
5860,1079,830,33.996,26.796,-0.0182,-0.0033,9.79,-0.2596,0.0265,-0.3048
5865,1081,832,33.828,26.893,-0.1177,0.0457,9.843,-0.271,-0.0254,-0.4603
5870,1076,834,33.979,26.89,0.0204,-0.0125,9.8906,-0.4402,0.0557,0.3719
5875,1063,828,33.896,26.871,-0.0064,0.0541,9.9051,-0.0358,0.3734,0.63
5880,1063,831,33.841,26.906,-0.0061,-0.0721,9.9112,0.5443,-0.1253,-0.3677
5885,1062,836,33.918,26.961,-0.0566,0.0173,9.834,0.4204,0.3645,0.1433
5890,1054,832,33.826,26.901,0.0512,-0.024,9.8256,-0.5923,0.848,-0.1603
5895,1053,836,33.809,26.935,-0.0877,-0.0858,9.8443,0.0213,0.4697,0.2048
5900,1052,833,33.907,26.866,-0.0709,0.0331,9.8276,-0.5156,-0.0734,-0.1221
5905,1039,839,33.829,26.981,-0.0462,-0.0348,9.7814,-0.6551,-0.343,-0.7151
5910,1039,834,33.863,26.923,0.0704,0.0122,9.739,-0.1209,-0.5292,-0.2254
5915,1039,837,33.897,26.868,0.075,-0.0424,9.8755,0.0331,0.011,1.2393
5920,1028,837,33.873,26.892,-0.0883,0.0798,9.7312,-0.3358,0.1046,-0.1453
5925,1018,842,33.923,26.909,0.0212,0.0413,9.7774,0.0569,1.1035,-0.2619
5930,1020,844,33.821,26.881,-0.0317,0.05,9.8427,0.3696,-0.1403,-0.5962
5935,1005,834,33.924,26.96,0.021,0.0098,9.8554,0.0644,0.2492,-0.2733
5940,996,836,33.821,26.936,0.0542,0.025,9.8341,-1.3808,-0.3313,0.292
5945,995,836,33.917,26.836,-0.0116,-0.0369,9.8821,-0.1064,0.8572,-0.6539
5950,977,836,33.919,26.86,-0.0192,-0.0847,9.8367,0.2628,-1.303,-0.105
5955,970,837,33.861,26.873,-0.0207,-0.0675,9.8736,-0.1396,-0.1597,0.2657
5960,963,836,33.909,26.855,0.0513,0.0022,9.7708,0.1308,0.4416,-0.6362
5965,955,838,33.956,26.928,-0.05,-0.0111,9.8011,-0.0384,-0.7116,-1.0701
5970,947,830,33.92,26.941,0.0166,0.0332,9.6874,-0.4653,-0.2468,-0.4947
5975,938,835,33.904,26.974,-0.0733,0.0061,9.8414,0.078,0.8966,0.1292
5980,920,834,33.892,26.879,-0.0235,0.0216,9.8335,0.3734,-0.9967,-0.3781
5985,923,829,33.868,26.883,0.0621,0.0125,9.808,-0.2514,0.8376,0.0636
5990,898,830,33.951,26.867,-0.0892,-0.0906,9.757,-0.6298,-0.2271,-0.3762
5995,894,829,33.885,26.908,-0.0302,-0.0138,9.8371,0.1995,0.4207,-0.6167
6000,890,828,33.857,27.016,-0.0228,-0.048,9.7959,0.2924,-0.253,0.1265
6005,883,828,33.785,26.949,0.0405,0.0023,9.8185,-0.1539,-1.0491,0.5682
6010,867,829,33.803,26.932,-0.0195,-0.0263,9.8645,-0.2606,-0.6874,0.5263
6015,864,830,33.859,26.986,-0.0034,0.0566,9.8654,0.4277,0.6444,0.459
6020,844,827,33.777,26.827,0.0234,0.0493,9.8264,-0.2024,-0.6433,-0.2114
6025,832,823,33.787,26.921,-0.0532,0.0294,9.8257,-0.1209,-0.1292,0.7803
6030,816,825,33.893,26.903,-0.0087,-0.0931,9.8933,-0.3693,0.2402,-0.2338
6035,817,825,33.846,26.857,0.1066,-0.0254,9.8777,0.3344,0.6296,-0.0674
6040,805,824,33.809,26.95,-0.0421,0.0139,9.7528,0.3716,0.3466,0.8078
6045,794,817,33.95,26.973,-0.0381,-0.0078,9.7629,0.0607,0.8523,0.1432
6050,793,826,33.984,26.938,0.0482,-0.0199,9.771,-0.826,-0.454,-0.7576
6055,790,819,33.881,26.915,-0.0605,-0.0201,9.819,0.3287,0.0234,-0.0103
6060,782,824,33.837,26.988,-0.0117,0.014,9.7684,-0.4533,0.9611,0.8476
6065,767,826,33.806,26.916,0.0094,0.0054,9.7846,0.246,0.6205,-0.7835
6070,767,818,33.905,26.971,-0.0386,0.0552,9.7656,0.0138,-0.5048,-0.5934
6075,759,822,33.868,26.885,0.0317,0.0223,9.9172,0.6679,0.4215,-0.1877
6080,761,819,33.832,26.947,-0.1328,0.0065,9.711,-0.6794,0.4819,0.2545
6085,751,821,33.823,26.908,0.0167,0.1049,9.7407,-0.1405,0.6742,-0.1852
6090,754,821,33.905,26.961,-0.0551,0.0794,9.7915,-0.7358,0.3691,0.3089
6095,750,813,33.845,26.901,0.0194,0.1633,9.9144,-0.1383,-1.1457,-0.4525
6100,738,816,33.829,26.897,0.0422,-0.0061,9.7894,0.3015,0.6362,-0.0406
6105,747,817,33.897,26.859,0.0399,0.0323,9.8029,-0.1612,0.2385,-0.5044
6110,745,814,33.862,26.837,0.0064,-0.0134,9.7547,0.0886,-0.1379,-0.1092
6115,746,813,33.779,26.978,-0.1153,0.0316,9.8192,0.1345,0.0579,0.3456
6120,753,815,33.967,26.924,-0.0424,0.0395,9.7389,-0.4035,-0.4382,1.0096
6125,757,811,33.833,26.997,-0.0244,-0.0144,9.8299,-0.377,0.7195,0.7552
6130,764,811,33.917,26.91,0.0352,0.0359,9.8142,-0.0344,0.0823,-0.0337
6135,776,807,33.849,26.873,0.051,0.06,9.7736,1.1126,-0.0692,0.2756
6140,767,809,33.855,26.937,0.0511,-0.01,9.7085,-0.5685,-0.4589,0.3323
6145,783,811,33.826,26.904,-0.0543,0.0314,9.8239,-0.2214,0.1105,-0.9202
6150,792,813,33.888,26.905,0.0702,0.0488,9.8424,-0.0638,-0.7675,-0.4844
6155,801,804,33.777,26.998,0.0504,-0.0486,9.8465,0.421,0.7292,-0.1302
6160,796,807,33.871,26.836,-0.0754,0.0315,9.7226,0.2633,-0.5167,0.5568
6165,817,811,33.87,26.931,-0.0216,0.0362,9.879,-0.4123,0.1247,0.5681
6170,824,804,33.949,26.981,-0.0435,0.1094,9.8364,-0.0387,-0.2969,-0.301
6175,836,802,33.917,26.904,0.0422,0.0261,9.849,-0.1647,0.8227,-0.3562
6180,851,805,33.87,26.923,0.0364,-0.0518,9.796,0.0773,0.1043,-0.5823
6185,857,798,33.846,26.934,0.033,0.0048,9.833,0.0158,0.1247,-0.2158
6190,869,798,33.893,26.85,0.0646,0.0054,9.7696,0.0258,0.388,-0.1472
6195,878,802,33.762,26.903,0.0353,0.0139,9.8643,-1.1357,-0.1269,0.3556
6200,900,792,33.852,26.962,0.0757,0.0287,9.7787,0.1242,-0.0066,0.1748
6205,899,797,33.808,26.818,-0.0274,0.011,9.8145,0.4463,0.9385,0.7735
6210,921,793,33.881,26.994,-0.0046,0.0365,9.7843,0.2169,-0.2354,0.2287
6215,947,786,33.863,26.911,0.0513,0.014,9.8001,0.1044,-0.2691,-0.4378
6220,952,783,33.867,26.966,-0.0714,-0.038,9.7136,0.1297,-0.4814,-0.0234
6225,963,792,33.939,26.894,0.089,-0.0437,9.8678,0.2465,0.0576,0.2907
6230,978,784,33.752,26.812,0.0705,-0.0832,9.7893,0.0705,0.0247,-0.8806
6235,999,774,33.832,26.937,0.0275,-0.0996,9.8499,0.0212,0.6575,0.0194
6240,1012,775,33.866,26.871,0.0506,0.0532,9.8409,0.6497,-0.1624,-0.8782
6245,1030,776,33.837,26.99,0.0512,-0.0825,9.856,0.6871,1.0265,0.0389
6250,1029,774,33.831,26.956,0.0511,0.0064,9.8476,0.1444,0.0189,0.6129
6255,1039,777,33.885,27.024,-0.0204,0.0403,9.8024,-0.0165,0.2292,0.8071
6260,1062,773,33.798,26.919,0.0117,0.0214,9.8514,-0.178,0.3052,-0.9465
6265,1072,770,33.916,26.943,-0.0744,0.1001,9.8435,-0.5833,0.0631,-0.1445
6270,1083,764,33.827,27.013,0.0326,-0.0302,9.8214,-0.5104,0.495,-0.1083
6275,1091,765,33.93,26.911,0.0076,-0.0278,9.8285,-0.7068,0.4914,1.174
6280,1102,766,33.804,26.97,0.0629,0.0255,9.8253,0.4155,0.3864,-0.3831
6285,1108,764,33.982,26.987,-0.0335,0.0306,9.8501,-1.0397,-0.32,0.3339
6290,1124,764,33.831,26.911,0.0636,-0.0322,9.8485,-0.5061,-0.2384,0.4046
6295,1133,758,33.856,26.819,0.0076,0.0139,9.7933,-0.9096,0.2437,0.0651
6300,1142,769,33.848,26.869,0.023,0.0382,9.7393,-0.8592,0.5219,-0.1217
6305,1143,759,33.864,26.807,0.076,0.1198,9.7839,0.0005,0.1202,-0.1512
6310,1157,755,33.931,26.85,0.0091,-0.0672,9.7915,1.2799,-0.08,-0.0455
6315,1163,752,33.88,26.929,-0.0081,-0.0613,9.7725,-0.2248,0.6951,-0.0195
6320,1169,754,33.9,26.895,-0.0768,-0.0701,9.8338,-0.0241,-0.5975,0.3732
6325,1185,756,33.945,26.915,0.0081,0.093,9.8081,0.3323,-0.0746,-0.2549
6330,1168,751,33.844,26.914,-0.0019,0.0069,9.8122,-0.1934,-0.2703,-0.2187
6335,1180,748,33.908,26.952,0.0115,-0.0361,9.7601,0.5029,-0.1966,-0.5454
6340,1188,752,33.847,26.923,0.0195,-0.0047,9.8198,-0.7441,0.1792,0.3992
6345,1187,752,33.873,26.965,-0.0147,-0.0123,9.841,-0.0618,-0.7896,-0.4349
6350,1184,752,33.808,26.925,-0.0438,0.0768,9.8325,0.7518,-0.0817,0.0108
6355,1184,749,33.852,26.879,0.0047,0.0035,9.8548,-0.2339,-0.0945,0.3251
6360,1186,757,33.841,26.87,-0.0317,-0.0464,9.9136,-0.0127,-0.0298,-0.4396
6365,1200,747,33.914,26.876,0.0323,-0.0024,9.7702,-0.2077,-0.9135,-0.3017
6370,1181,754,33.856,26.889,-0.0757,-0.0835,9.7824,-0.2036,0.5583,-0.6964
6375,1182,749,33.938,26.956,0.0417,-0.0195,9.8277,0.577,-0.8248,0.1789
6380,1187,750,33.962,26.914,-0.0152,0.0193,9.8258,0.0832,-0.4333,-1.0226
6385,1185,748,33.849,26.9,-0.0406,-0.009,9.8433,-0.4629,-0.3949,-0.3153
6390,1178,755,33.808,26.965,-0.0161,-0.0945,9.83,0.2581,-0.3526,0.1808
6395,1181,756,33.921,27.018,0.1215,0.0469,9.7679,-0.3883,-0.1108,0.2561
6400,1171,760,33.827,26.98,0.046,0.0228,9.8611,-0.4505,0.3889,-0.2093
6405,1173,759,33.864,26.821,-0.1128,-0.1093,9.7804,0.7709,0.0907,0.3162
6410,1174,765,33.921,26.974,0.0194,-0.0186,9.8134,-0.6344,0.9079,0.1577
6415,1172,760,33.825,26.898,-0.0743,-0.0774,9.8622,-0.3917,0.4298,-0.4444
6420,1175,763,33.853,26.977,-0.015,0.0681,9.8827,0.0846,-0.134,1.0113
6425,1164,770,33.852,26.945,0.0672,0.0338,9.87,0.2085,-0.1975,-0.7211
6430,1160,769,33.896,26.839,0.1212,0.024,9.7511,0.4059,0.9121,0.9576
6435,1149,771,33.807,26.878,-0.0014,0.0047,9.7665,-0.1797,1.062,-0.5855
6440,1153,776,33.958,26.927,0.0611,-0.0712,9.8908,-0.6218,-0.1341,-0.128
6445,1139,773,33.943,26.859,-0.035,0.0767,9.8287,-0.4824,0.4563,-0.6063
6450,1124,775,33.732,26.884,0.0489,-0.0078,9.7667,-0.6457,-0.042,0.6128
6455,1139,784,33.906,26.942,0.0109,-0.0806,9.7979,-0.1,-0.1073,-0.0401
6460,1121,791,33.82,26.844,0.0841,-0.024,9.8809,0.1387,-0.2588,0.2627
6465,1131,782,33.829,26.871,-0.0011,0.0167,9.7661,0.0258,-0.0979,0.35
6470,1114,795,33.924,26.914,0.0072,0.0148,9.8069,0.0206,-0.1582,0.477
6475,1122,790,33.966,26.968,-0.0048,0.0155,9.7999,0.7435,-0.2759,0.1455
6480,1122,791,33.865,26.99,0.0153,-0.0017,9.7295,-0.3433,-0.3021,-0.1325
6485,1114,795,33.847,26.907,0.0358,0.0051,9.8037,-0.3606,0.556,-0.1081
6490,1110,799,33.984,26.839,-0.0381,-0.0453,9.7478,-0.1769,-0.3388,0.1125
6495,1108,803,33.846,26.924,-0.0008,-0.0305,9.7677,0.7561,0.6194,0.1912
6500,1108,806,33.919,26.917,0.0298,0.0674,9.8838,-0.4903,0.7227,-0.024
6505,1108,808,33.886,26.885,0.0483,0.0524,9.87,0.4809,-0.1069,0.1555
6510,1102,812,33.849,26.857,0.0141,-0.0314,9.7737,-1.1224,-0.3679,0.043
6515,1103,810,33.865,26.935,-0.014,0.0803,9.7632,-0.8869,0.3057,-0.4509
6520,1092,824,33.922,26.967,0.0293,0.0001,9.7545,0.4604,0.3437,0.4622
6525,1089,816,33.833,26.892,-0.0002,0.0522,9.8709,0.6568,0.309,0.45
6530,1094,822,33.88,26.867,0.1187,-0.0499,9.8505,0.611,-0.781,-0.0504
6535,1084,824,33.827,26.874,0.022,0.0104,9.7631,0.6443,0.375,-0.106
6540,1090,818,33.802,26.883,0.0749,-0.0337,9.7658,0.6029,-0.2483,0.1485
6545,1080,821,33.91,26.86,-0.0051,0.0467,9.7987,0.2483,0.0243,0.0258
6550,1081,831,33.862,26.922,0.055,0.069,9.9154,0.7334,-0.7007,0.6426
6555,1079,827,33.856,26.889,0.0427,0.0952,9.8374,-0.4779,-0.2228,-0.9969
6560,1073,834,33.83,26.891,0.0439,-0.002,9.849,0.2334,0.6938,-0.7411
6565,1078,824,33.836,26.957,0.0462,0.0215,9.7621,-0.7815,1.0105,0.8176
6570,1064,832,33.848,26.9,-0.0075,-0.0158,9.8148,0.437,0.1424,0.1649
6575,1069,828,33.92,26.946,-0.0098,-0.1228,9.7266,-0.4997,1.0853,0.2534
6580,1065,840,33.855,26.967,-0.0749,0.0618,9.8018,0.102,-0.8565,-0.2965
6585,1062,835,33.933,26.99,-0.0284,0.0199,9.8045,-0.0031,0.0581,0.9232
6590,1052,833,33.941,26.936,0.0932,-0.0433,9.8527,-0.5895,0.5927,-0.2708
6595,1045,838,33.913,26.92,0.0447,0.0358,9.8509,0.0277,-0.3658,-0.1906
6600,1041,836,33.932,26.907,0.0746,-0.0497,9.8476,-0.1907,0.195,-0.0086
6605,1030,842,33.863,26.986,-0.0027,-0.0054,9.7513,0.1095,-0.2231,-0.5566
6610,1030,837,33.886,26.948,-0.0703,-0.0181,9.8161,0.5187,-0.7317,-1.7958
6615,1026,845,33.847,26.876,-0.0344,0.0131,9.8475,-0.6578,0.6858,-0.5447
6620,1023,838,33.916,26.864,-0.069,-0.0133,9.8204,-0.451,0.6465,0.2803
6625,1016,845,33.893,26.913,0.0201,-0.0044,9.7634,0.7646,-0.0328,1.0383
6630,999,836,33.855,26.821,-0.0727,-0.0573,9.7928,-0.3147,0.8455,-0.0034
6635,995,837,33.885,26.963,0.096,-0.0661,9.8545,-0.7687,0.3034,0.1272
6640,994,839,33.833,27.015,0.0007,-0.0044,9.8701,-0.1952,-0.0845,0.4239
6645,992,834,33.829,26.867,-0.0507,-0.0273,9.7937,-0.2597,0.3142,0.1702
6650,970,836,33.838,26.875,0.1274,-0.0024,9.8506,0.1627,-0.9261,0.212
6655,966,832,33.845,26.908,-0.0154,0.0215,9.7493,0.0543,0.4436,-1.1083
6660,958,840,33.885,26.951,0.0676,-0.0176,9.7882,0.3822,-0.2896,0.4002
6665,947,837,33.914,26.926,-0.1104,0.0058,9.8195,-0.0075,-0.1123,0.0728
6670,944,834,33.819,26.898,0.089,0.0591,9.8341,0.1999,-0.0367,0.0207
6675,921,833,33.766,26.923,-0.0766,-0.0812,9.863,-0.0986,0.4294,0.3281
6680,921,835,33.908,26.962,-0.0625,-0.0423,9.785,-0.032,-0.1069,0.5629
6685,909,832,33.989,26.891,-0.0416,0.0127,9.8516,0.9868,-0.0966,0.2521
6690,893,831,33.932,26.886,0.0663,0.0096,9.8637,-0.2053,0.2594,0.1004
6695,889,828,33.797,26.852,-0.0217,0.0474,9.8267,-0.3306,0.8394,-0.4293
6700,881,828,33.854,26.862,-0.0568,-0.0217,9.8325,0.2688,0.8756,-0.7673
6705,869,827,33.813,26.837,-0.003,0.0442,9.7431,0.2118,0.808,0.9718
6710,852,830,33.906,26.924,-0.0022,-0.0787,9.8422,-0.3097,-0.9494,-0.4343
6715,841,829,33.807,26.914,-0.0388,0.1027,9.8289,0.0564,0.2579,0.649
6720,836,825,33.815,26.991,0.0455,0.0497,9.8301,-0.5871,0.9856,-0.072
6725,824,825,33.838,26.921,-0.0564,-0.0156,9.8703,-0.2526,0.0484,-0.2086
6730,816,826,33.916,26.923,-0.0066,0.0657,9.7538,-0.6528,-0.1857,0.1515
6735,813,819,33.812,26.943,-0.0073,-0.046,9.8017,0.0522,0.6045,-0.1013
6740,802,824,33.902,26.919,0.0445,0.0001,9.8442,0.6574,-0.0744,1.0336
6745,785,819,33.866,26.927,-0.0507,0.0331,9.7832,0.5092,-0.0509,0.2815
6750,788,824,33.857,26.911,0.0135,0.0356,9.8939,0.8627,0.3042,0.0639
6755,776,824,33.946,26.94,0.0213,0.0326,9.7264,-0.0436,0.1765,0.1711
6760,775,821,33.818,26.824,0.0643,-0.033,9.8969,-0.2555,-0.2121,-0.4555
6765,757,823,33.882,26.904,-0.0014,-0.0021,9.756,0.2951,0.2312,0.5222
6770,759,818,33.887,26.875,-0.0239,-0.0518,9.7928,0.3104,-0.2442,0.4392
6775,756,820,33.848,26.925,-0.0125,0.0297,9.8937,-0.5249,-0.4624,0.6989
6780,758,818,33.861,26.955,-0.0494,0.0423,9.9076,-0.9198,-0.5353,-0.6783
6785,751,819,33.865,26.892,0.0026,-0.0107,9.8473,0.4162,0.1937,-0.1259
6790,749,814,33.895,26.998,-0.0625,-0.0005,9.7913,0.3677,0.138,-0.1475
6795,743,815,33.845,26.91,-0.0493,-0.0429,9.772,0.4613,0.4941,0.6649
6800,740,817,33.851,26.879,-0.0845,0.0291,9.7933,-0.1796,-0.1148,-0.6192
6805,753,820,33.89,26.91,0.0243,-0.0248,9.7813,0.1793,-0.5432,-0.5658
6810,750,814,33.945,26.818,-0.028,0.0339,9.8795,-0.7608,0.4665,-0.1486
6815,761,810,33.871,26.931,0.0253,-0.0062,9.8014,-0.1708,0.327,-0.2645
6820,760,819,33.865,26.88,-0.0134,-0.0575,9.8919,-0.5138,-0.1515,0.1694
6825,762,812,33.89,26.911,-0.0594,0.0114,9.8355,-0.5128,0.3192,0.5714
6830,767,813,33.994,26.928,0.0654,-0.0211,9.8007,0.4986,0.1264,-0.3679
6835,770,811,33.92,26.934,-0.0944,0.0736,9.7666,0.0225,0.7565,-0.4295
6840,789,810,33.855,26.915,0.034,-0.0397,9.7757,0.1965,0.3488,-0.6565
6845,787,812,33.874,26.943,0.0146,-0.0006,9.7871,-0.05,0.0487,0.467
6850,794,806,33.899,26.91,0.0152,-0.0427,9.8674,-1.1455,-0.382,0.5426
6855,801,803,33.879,26.879,0.0392,0.0875,9.7295,-0.1953,0.0749,0.0934
6860,812,808,33.809,26.949,0.0287,0.0389,9.826,-0.8091,0.1792,0.2758
6865,819,807,33.871,26.959,0.0134,0.0072,9.7826,-0.2332,0.0042,0.2907
6870,829,804,33.882,26.942,0.0391,0.042,9.8306,-0.4794,0.8304,0.2583
6875,841,804,33.888,26.832,-0.0056,0.0359,9.8244,-0.0705,0.2892,-0.3684
6880,858,796,33.85,26.884,-0.0385,0.0371,9.8392,-0.0357,-0.131,0.2273
6885,870,798,33.859,26.923,0.0072,0.0393,9.8736,-0.6247,0.5147,0.402
6890,885,799,33.911,26.916,0.0416,0.0214,9.7136,0.2191,0.2712,0.1362
6895,893,796,33.915,26.939,0.0617,-0.0251,9.7936,0.2101,-0.2644,-0.6618
6900,916,791,33.98,26.849,-0.0051,0.0151,9.8056,0.4213,0.5246,0.1416
6905,920,790,33.869,26.838,0.0176,0.0123,9.8102,-0.0883,-0.3424,-0.0037
6910,943,790,33.785,26.97,0.0242,-0.0237,9.8069,0.591,0.3385,-0.1936
6915,944,784,33.868,26.998,-0.0287,0.0226,9.764,0.0781,0.0908,-0.1693
6920,961,786,33.94,26.928,-0.049,-0.0645,9.8005,-0.368,-0.2065,-0.3362
6925,984,781,33.956,26.896,0.0853,0.0503,9.845,-0.381,-0.1572,0.5618
6930,990,785,33.894,26.92,-0.0029,0.0152,9.8368,-0.0197,0.5278,0.0136
6935,1009,778,33.758,26.901,-0.0787,-0.0433,9.8125,0.2942,-0.55,1.0282
6940,1020,780,33.986,26.899,0.053,0.0371,9.7787,0.3322,0.1026,-0.1119
6945,1031,777,33.838,26.864,0.0121,0.0407,9.8108,0.2405,0.6793,0.5582
6950,1054,772,33.876,26.925,-0.032,0.0123,9.8048,0.096,0.5752,-0.2915
6955,1047,773,33.884,27.001,0.0291,-0.0401,9.7978,0.3384,0.1669,0.3478
6960,1078,769,33.827,26.874,0.0102,-0.0234,9.7792,-0.2427,1.009,0.003
6965,1072,769,33.884,26.975,0.0633,0.0593,9.8368,0.3728,-0.1918,0.8073
6970,1096,766,33.897,26.949,0.0356,0.0267,9.7719,0.1845,-0.4401,-0.3844
6975,1104,762,33.996,26.906,0.0113,0.0308,9.7565,-0.0025,-0.2593,0.769
6980,1123,759,33.835,26.914,-0.0168,0.0263,9.803,1.4188,-1.3206,0.348
6985,1116,756,33.945,26.914,0.026,-0.018,9.8053,0.1949,0.3762,0.2502
6990,1135,754,33.929,26.902,0.1204,-0.0433,9.7967,-0.2024,0.3031,0.5179
6995,1146,756,33.828,26.928,-0.0483,0.0055,9.7566,-0.1568,0.1075,-0.9765
7000,1157,751,33.896,26.885,0.0217,0.0951,9.8263,0.0025,0.1254,0.6501
7005,1149,752,33.791,26.902,0.0043,-0.009,9.7807,0.7773,-0.0417,0.8103
7010,1160,757,33.955,26.966,-0.0326,-0.0259,9.839,0.0824,0.7146,-0.1179
7015,1166,753,33.834,26.946,0.0443,-0.0439,9.7712,0.2227,0.1271,-0.1207
7020,1174,752,33.913,26.959,-0.0309,-0.026,9.7883,0.0704,-0.1062,0.1875
7025,1176,750,33.872,26.895,0.0059,0.0138,9.8084,0.1497,0.1232,-0.3191
7030,1178,747,33.93,26.961,-0.089,-0.0066,9.875,0.3522,0.2012,0.5026
7035,1188,755,33.843,26.87,-0.0122,0.0246,9.7502,-0.0391,-0.8092,0.0789
7040,1188,755,33.955,26.863,0.0519,0.0877,9.7582,1.1909,-0.2502,0.6053
7045,1179,750,33.867,26.947,-0.1191,0.0404,9.8109,0.757,0.5723,-0.1242
7050,1187,750,33.858,26.864,-0.0243,0.0264,9.7903,-1.248,-0.4304,-0.7714
7055,1192,750,33.884,26.93,-0.0214,-0.0087,9.7564,-0.1176,0.5436,1.0084
7060,1192,753,33.842,26.922,0.034,0.0144,9.8779,-0.0131,-0.7479,-0.123
7065,1192,747,33.794,26.882,0.0351,-0.0213,9.8033,-0.4693,-0.0418,-0.1292
7070,1185,753,33.821,26.909,0.0872,0.0593,9.7508,0.6427,0.8616,-0.4285
7075,1183,753,33.894,26.928,-0.048,-0.0475,9.8313,-0.0651,0.4399,0.6979
7080,1187,750,33.978,26.814,-0.0435,-0.0104,9.8068,-0.1896,0.3298,-1.056
7085,1175,753,33.867,26.925,-0.0311,0.0118,9.7957,0.3306,-0.6634,-1.8398
7090,1180,749,33.915,26.966,-0.0176,-0.0274,9.788,0.5999,-0.7973,0.2815
7095,1177,757,33.873,26.926,0.007,-0.0416,9.7628,0.2382,0.3047,-1.0109
7100,1169,761,33.859,26.896,0.0514,0.0116,9.7527,-0.4381,-0.1058,-0.7131
7105,1158,754,33.765,26.971,-0.058,-0.0612,9.7984,-0.5475,-0.4527,-0.3813
7110,1176,763,33.898,26.884,-0.0337,0.0052,9.7631,-0.3838,-0.0461,0.8622
7115,1159,760,33.853,26.91,-0.0343,-0.0135,9.808,0.2001,0.1331,0.3779
7120,1154,766,33.847,26.89,-0.054,-0.0142,9.7946,0.7957,0.0537,0.2309
7125,1162,771,33.822,26.891,-0.0133,-0.0375,9.796,1.0832,-0.4935,0.5419
7130,1154,766,33.899,26.878,-0.0717,0.0032,9.8178,0.0139,0.7254,0.1838
7135,1144,775,33.951,26.962,0.0107,0.0001,9.8276,0.9051,0.469,1.0144
7140,1145,775,33.892,26.907,0.0552,-0.008,9.7653,1.2663,0.2562,0.238
7145,1142,779,33.913,26.904,-0.0201,0.027,9.8213,0.1273,-0.0372,-0.4465
7150,1138,787,33.929,26.931,-0.0671,0.0039,9.8869,-0.3413,0.708,1.1716
7155,1138,783,33.796,26.947,0.0194,-0.0329,9.7521,-0.8616,0.0526,0.6406
7160,1130,782,33.865,26.948,0.0369,-0.0591,9.802,-0.1444,-0.04,0.0247
7165,1122,787,33.844,26.832,-0.0175,-0.0416,9.7813,0.0414,-0.1967,0.621
7170,1116,796,33.856,26.98,-0.0693,-0.0103,9.8484,-0.3604,-0.9711,0.409
7175,1121,802,33.845,26.8,0.0137,0.0047,9.7208,-0.319,-0.8987,0.3001
7180,1112,799,33.856,26.906,-0.0174,-0.1163,9.8486,0.3538,-0.7541,-0.2137
7185,1121,797,33.834,26.932,0.0886,0.0269,9.8017,-0.2034,-0.2416,-0.2523
7190,1116,803,33.882,26.994,0.0322,0.0264,9.8001,0.0324,-0.9452,-0.9676
7195,1102,802,33.879,26.897,-0.0441,0.0575,9.7833,-0.4762,0.385,-0.471
7200,1108,809,33.949,26.948,-0.0005,0.0357,9.797,0.5807,-0.2201,0.1096
7205,1106,813,33.876,26.896,0.0392,0.0768,9.7656,-0.774,0.7678,-0.6793
7210,1106,812,33.878,26.941,-0.0367,-0.0229,9.9395,-0.5778,0.1496,-0.4187
7215,1088,819,33.875,26.905,-0.0149,-0.0315,9.7776,-0.2817,-0.5452,-0.2616
7220,1084,813,33.909,26.967,-0.0463,0.0159,9.8479,0.3221,0.8543,0.041
7225,1087,821,33.936,26.904,0.0757,-0.0158,9.8848,-0.1762,-0.056,0.3063
7230,1092,830,33.801,26.923,-0.0567,0.0506,9.7956,-0.8692,0.1146,-1.0499
7235,1077,821,33.933,26.802,0.0386,0.0502,9.8277,-0.058,-0.8608,0.5076
7240,1090,829,33.904,27.039,-0.0021,-0.0344,9.8711,0.3666,-0.1207,0.6537
7245,1085,832,33.881,26.895,-0.0378,0.0533,9.7343,0.4688,0.3553,-0.6493
7250,1082,824,33.842,26.973,0.0022,-0.0215,9.8773,-0.1978,0.4077,-0.2804
7255,1085,833,33.915,26.889,-0.1044,0.0056,9.7378,-0.0358,0.0702,-0.3208
7260,1077,833,33.817,26.929,-0.14,0.0131,9.7681,-0.4995,0.7828,-0.5334
7265,1066,833,33.861,26.967,0.002,-0.139,9.8051,1.0748,-0.4714,0.0658
7270,1070,837,33.926,26.986,0.0464,0.012,9.842,-0.0529,0.5826,1.4366
7275,1069,833,33.846,26.89,0.0478,-0.0377,9.8126,0.8185,0.5688,0.058
7280,1055,837,33.879,26.957,0.0421,0.0346,9.8416,-0.2272,-0.5959,0.1055
7285,1050,842,33.894,26.955,-0.0163,-0.0348,9.7954,0.2799,-0.7139,-0.4577
7290,1040,839,33.88,26.936,0.0251,-0.0053,9.7677,0.1059,0.5919,0.0518
7295,1045,842,33.894,26.934,0.0053,-0.0204,9.8112,0.2979,-0.1818,-0.0485
7300,1035,837,33.9,26.902,0.0131,0.0048,9.7667,-0.2788,0.0133,0.295
7305,1021,838,33.858,26.929,0.0296,0.0763,9.7885,0.9916,-0.1325,0.6553
7310,1030,836,33.863,26.955,0.0314,0.0349,9.9058,0.5202,0.0675,-1.1113
7315,1015,837,33.878,26.899,0.0274,-0.0639,9.8888,-0.146,0.6947,-0.5605
7320,1006,834,33.918,26.973,0.0321,0.1079,9.8432,0.0643,-0.5514,0.073
7325,1008,838,33.842,26.859,-0.0918,-0.0125,9.7662,0.0471,-0.011,0.7212
7330,994,838,33.932,26.915,-0.0308,0.0329,9.7666,-0.2622,0.209,0.1937
7335,989,831,33.877,26.954,0.0059,-0.1506,9.8033,0.0503,0.0425,0.2211
7340,980,834,33.872,26.843,-0.0694,-0.0063,9.7758,0.18,-0.068,0.2094
7345,983,834,33.847,26.963,0.0536,-0.0588,9.8254,0.0214,0.4595,0.2912
7350,963,835,33.893,26.838,0.0037,-0.0125,9.8053,-0.4221,0.0252,-0.269
7355,951,834,33.979,26.873,-0.0072,0.0608,9.8222,-0.4151,-0.0388,-0.1773
7360,941,831,33.844,26.997,-0.078,0.0902,9.7302,-0.2179,0.8245,0.5681
7365,938,831,33.901,26.976,0.0619,-0.0996,9.8199,0.1341,-0.0575,0.2662
7370,925,830,33.861,26.831,-0.0033,-0.0053,9.7939,0.5504,-0.8125,0.3798
7375,914,836,33.844,26.887,-0.0859,0.0107,9.845,0.0349,0.5868,0.0438
7380,919,830,33.91,26.956,-0.0951,-0.0112,9.7649,-0.5888,-0.3255,0.2921
7385,894,830,33.858,26.985,-0.0,-0.0246,9.7628,0.6826,0.0319,-0.3919
7390,890,831,33.868,27.0,-0.0278,-0.0803,9.7547,1.0139,-0.3629,-0.3645
7395,866,832,33.94,26.954,-0.0182,0.0151,9.7261,-0.2332,-0.5162,-0.416
7400,867,826,33.854,26.959,-0.0167,-0.0628,9.8165,-0.7161,0.5532,0.6944
7405,852,827,33.876,26.865,0.0673,-0.0149,9.8521,0.1871,-0.0116,0.24
7410,842,829,33.926,26.929,-0.0494,-0.0537,9.848,-0.3879,0.5243,-1.3261
7415,832,822,33.894,26.907,0.0547,0.0685,9.7729,1.5263,0.3869,0.0719
7420,816,824,33.82,26.923,0.0527,0.0345,9.8694,0.6766,-0.2046,-0.3804
7425,823,826,33.89,26.916,-0.0246,0.0549,9.8196,0.4613,-0.2329,0.1887
7430,805,824,33.854,27.0,0.0977,-0.043,9.8409,-0.1185,0.3999,-0.3884
7435,806,823,33.863,26.875,-0.0416,0.0345,9.7873,0.6979,-0.5859,0.1025
7440,790,820,33.804,26.997,-0.0064,0.0083,9.7463,-0.2211,0.0119,-0.0205
7445,784,821,33.911,26.924,-0.0317,-0.0174,9.8686,-0.426,0.0446,0.9798
7450,776,813,33.825,26.881,-0.0339,0.0611,9.6999,0.0502,-0.0026,-0.2475
7455,769,823,33.854,26.919,0.0104,-0.0349,9.7672,1.0063,0.0823,-0.1394
7460,765,820,33.727,26.948,0.0426,0.0033,9.7908,0.8251,-0.5634,-0.2653
7465,763,816,33.889,26.96,0.0108,-0.0648,9.8139,0.6101,-0.4636,0.1858
7470,753,818,33.922,26.934,0.0116,0.0032,9.755,-0.0971,-0.5565,-0.0003
7475,749,816,33.894,26.935,-0.0791,-0.0676,9.893,-0.1292,0.9265,0.4019
7480,751,817,33.921,26.986,0.0469,0.0199,9.8117,0.0079,-0.3804,-0.2028
7485,751,819,33.917,26.893,-0.0771,-0.0178,9.821,0.3759,0.2245,-0.4066
7490,752,820,33.827,26.931,0.0426,0.0618,9.7295,-0.0714,-0.2708,-0.39
7495,748,818,33.993,26.936,-0.0124,-0.1089,9.7993,-0.9005,0.2151,-0.0221
7500,752,814,33.811,26.947,0.0606,0.0192,9.6709,-0.2304,0.2071,-1.3875
7505,748,824,33.887,26.935,-0.0228,-0.0051,9.8016,0.2509,0.1581,0.4997
7510,759,810,33.867,26.954,0.0025,0.0439,9.7912,0.87,0.5102,-1.1458
7515,751,816,33.885,26.944,-0.072,0.0013,9.7327,1.0461,-0.4462,0.0693
7520,761,808,33.846,26.979,-0.0538,0.0462,9.8869,0.0918,-0.4354,1.1834
7525,768,812,33.836,26.881,-0.0394,-0.0494,9.749,-1.0412,-0.8403,0.0091
7530,770,813,33.861,26.85,-0.0459,0.0282,9.8045,-0.5216,-0.5435,-0.2979
7535,783,809,33.872,26.859,0.0294,-0.0793,9.792,-0.6867,0.0381,0.0645
7540,787,806,33.861,26.982,-0.0655,-0.0215,9.8132,-0.916,-0.144,0.0962
7545,797,806,33.892,26.999,0.0485,-0.011,9.7899,-0.171,0.4048,0.5925
7550,813,803,33.895,26.919,-0.06,0.0431,9.8359,-0.4527,-0.4096,0.1315
7555,811,803,33.92,26.927,-0.052,0.0071,9.9424,0.0263,1.2401,-0.8948
7560,827,803,33.907,26.888,0.1279,-0.0328,9.7914,0.3322,-0.3939,0.3356
7565,837,802,33.863,26.898,0.0042,-0.0132,9.8416,0.2302,0.3088,-0.1154
7570,855,803,33.908,26.842,0.0045,0.0126,9.7972,-0.2807,-0.1573,-0.3575
7575,865,808,33.927,26.94,0.0202,-0.0983,9.8305,-0.1461,-0.4973,0.4935
7580,879,795,33.854,26.887,0.0698,-0.0489,9.7709,-0.4122,-0.5247,-0.6437
7585,896,800,33.82,26.922,0.0439,-0.0241,9.765,0.8325,-0.0406,0.4959
7590,887,800,33.927,26.87,0.04,-0.0769,9.8419,-0.2767,-0.5734,0.4002
7595,917,795,33.878,26.907,0.0279,-0.0048,9.8052,0.4301,0.5661,-0.5135
7600,926,786,33.803,26.928,-0.0336,-0.0287,9.7858,0.4372,0.307,-0.4506
7605,935,790,33.839,26.966,0.0534,-0.0166,9.86,0.388,0.0994,0.2167
7610,946,790,33.891,26.977,0.0551,-0.0117,9.8438,0.5285,0.1313,-0.0784
7615,964,789,33.852,26.886,-0.0299,0.0032,9.8131,-0.6444,-0.5438,-0.8349
7620,977,783,33.845,26.911,-0.0285,-0.0607,9.8346,0.3488,0.5685,0.0028
7625,995,785,33.773,27.054,-0.066,0.0077,9.8006,0.1885,0.0898,-0.6063
7630,1009,784,34.003,26.964,0.008,0.0067,9.8129,-0.8665,-0.2668,0.4649
7635,1019,778,33.831,26.98,-0.1023,0.0657,9.866,1.0919,0.0154,0.4259
7640,1038,774,33.907,26.905,0.0555,-0.0238,9.91,-0.1473,-0.1107,0.2306
7645,1049,768,33.892,26.978,-0.0847,-0.0598,9.7887,0.4318,0.2826,0.2059
7650,1063,774,34.05,26.831,-0.0945,0.0072,9.8037,-1.1163,-0.0641,0.5492
7655,1077,772,33.958,26.938,0.043,0.0106,9.8823,-0.159,0.7578,-0.4397
7660,1078,770,34.0,26.938,0.0765,-0.0657,9.8381,-0.5957,0.2518,0.4061
7665,1093,770,33.962,26.922,0.0327,-0.0865,9.7137,0.33,-0.3264,-0.6424
7670,1093,761,33.89,26.855,0.0161,-0.0918,9.8663,-0.5656,-1.0444,-0.5883
7675,1108,767,33.915,26.95,-0.0746,-0.0569,9.7745,0.1848,-0.5311,0.073
7680,1128,757,33.877,26.952,0.1654,0.0577,9.7495,0.4398,0.4599,-0.4457
7685,1132,763,33.936,26.893,0.0298,-0.0331,9.7565,-0.781,1.1756,0.6076
7690,1136,756,33.869,26.951,-0.0586,0.007,9.754,0.2227,0.3199,-0.4548
7695,1149,756,33.861,26.916,0.1239,-0.0471,9.8701,0.0331,0.132,1.2847
7700,1159,756,33.797,26.922,0.0879,0.0487,9.8724,1.1188,-0.0363,-0.3969
7705,1159,752,33.848,26.875,-0.037,-0.0334,9.7131,0.3436,-0.3165,-0.3723
7710,1159,755,33.927,26.972,0.0205,0.0093,9.7765,-0.0513,1.1582,-0.2915
7715,1180,753,33.873,27.016,0.0029,0.0614,9.886,0.1192,-0.423,0.2928
7720,1178,756,33.947,26.875,0.0882,-0.0001,9.8206,0.6537,1.065,-0.4693
7725,1185,751,33.97,26.881,-0.0552,-0.007,9.7596,0.5029,0.2931,0.0257
7730,1180,744,33.86,26.998,-0.1433,-0.0152,9.8496,0.2126,-0.4038,-0.8847
7735,1186,748,33.822,26.961,-0.0152,0.0734,9.7965,-0.5975,-0.0635,0.253
7740,1188,746,33.893,26.836,0.0397,-0.0152,9.8202,-0.2004,1.0589,0.074
7745,1191,751,33.845,26.996,-0.0404,0.0153,9.868,0.1623,-0.1221,-0.7631
7750,1190,744,33.894,27.046,0.044,0.0182,9.7979,-0.1861,0.6976,0.2141
7755,1185,745,33.911,26.946,0.0048,0.0703,9.9515,-0.1203,-0.5183,0.4473
7760,1187,754,33.929,26.931,0.0575,-0.0538,9.8084,-0.5028,-0.025,0.3012
7765,1193,751,33.906,26.911,0.0293,0.0065,9.7665,0.3229,-0.439,0.4281
7770,1191,753,33.935,26.939,-0.0263,-0.0949,9.7182,0.2742,0.0651,-0.0345
7775,1182,752,33.766,26.939,0.0314,0.0899,9.8004,0.1396,-0.0587,0.1704
7780,1185,757,33.87,26.943,-0.0393,-0.0009,9.8193,0.4581,0.1815,0.0169
7785,1173,751,33.917,26.888,0.0596,-0.0414,9.8779,0.7108,-0.6566,-0.8143
7790,1183,752,33.841,26.906,0.0021,0.1057,9.8149,-0.0566,1.0666,0.2583
7795,1175,752,33.815,26.859,-0.0074,-0.0829,9.8501,-0.1535,-0.0915,-0.2634
7800,1174,758,33.946,27.013,0.0786,0.0535,9.7706,0.4548,-0.4095,-0.4466
7805,1161,767,33.88,26.916,-0.0498,0.0316,9.8282,-0.4209,-0.1454,-0.6652
7810,1161,757,34.025,26.932,0.0231,0.103,9.8198,-0.352,1.2469,0.7123
7815,1158,768,33.921,26.948,-0.0345,0.0006,9.8201,-0.5666,-0.3038,-0.4396
7820,1155,768,33.862,26.978,-0.0025,-0.0098,9.7986,1.2039,-0.3062,0.5417
7825,1147,770,33.971,26.875,0.031,-0.0153,9.8912,0.9082,0.6141,0.7607
7830,1161,773,33.801,26.975,-0.0109,-0.0219,9.8281,-0.3983,0.5013,0.2903
7835,1144,777,33.781,26.93,0.0132,0.0373,9.8108,0.066,-0.2378,0.0414
7840,1142,778,33.946,26.963,0.0934,0.0604,9.7284,0.9999,0.0562,-0.3252
7845,1131,784,33.889,26.946,-0.0174,0.0014,9.8694,0.677,-0.3266,-0.1986
7850,1131,783,33.812,26.888,0.0097,0.0494,9.9204,-1.0737,-0.7729,0.1623
7855,1126,786,33.905,26.903,0.0176,-0.0204,9.8504,0.6139,0.1304,0.0234
7860,1126,787,33.862,26.897,-0.0259,0.0103,9.8178,0.2485,1.1342,0.5399
7865,1123,787,33.954,26.957,-0.0231,-0.0608,9.7946,0.1366,-0.5988,-0.2125
7870,1117,796,33.94,26.894,-0.0783,0.0455,9.8341,0.3316,0.7338,-0.7173
7875,1115,795,33.852,26.853,0.0239,-0.0198,9.776,-0.0209,-0.2709,-0.1837
7880,1112,801,33.876,26.885,0.0641,-0.0062,9.8025,0.0369,-0.557,0.2955
7885,1118,799,33.805,26.936,-0.0039,0.0146,9.777,0.4014,-0.0618,-0.5058
7890,1099,809,33.894,26.86,0.0196,0.103,9.8209,0.0761,0.3095,0.569
7895,1104,812,33.877,26.933,0.0665,-0.0112,9.8493,-0.0789,-0.3537,0.1888
7900,1100,810,33.829,26.91,0.0471,0.0123,9.786,1.0849,-0.3794,-0.587
7905,1094,817,33.83,26.885,-0.011,0.0016,9.8363,-0.6612,-0.8474,-0.6194
7910,1099,818,33.83,26.876,-0.0168,0.0159,9.7854,-0.1198,-0.617,0.4924
7915,1099,816,33.921,26.93,0.0884,-0.0168,9.8052,-0.4155,0.4939,0.2619
7920,1093,817,33.931,26.919,-0.0604,-0.0655,9.7495,0.1508,0.6219,-0.5724
7925,1086,828,33.901,26.91,-0.0812,-0.0135,9.7694,-0.2137,-0.244,0.0504
7930,1090,819,33.949,26.949,0.0143,-0.0065,9.7816,0.8706,-0.2087,-0.4956
7935,1082,824,33.896,26.898,-0.0035,-0.0105,9.8108,0.0199,-0.2301,-0.0839
7940,1078,824,33.89,26.887,0.0668,0.0412,9.8414,-0.3783,0.8157,0.4198
7945,1076,834,33.863,26.884,-0.0461,-0.0295,9.8102,0.0287,0.3843,0.2128
7950,1080,835,33.882,26.942,-0.0196,-0.0055,9.857,-0.0161,-0.6803,0.0931
7955,1070,833,33.934,26.949,-0.0009,-0.0184,9.8559,0.1783,-1.2278,0.4862
7960,1069,836,33.899,26.901,-0.0043,-0.0055,9.8127,-0.0728,-0.4934,0.2835
7965,1062,838,34.005,26.952,-0.1145,0.095,9.8914,-0.2697,-0.228,0.5065
7970,1060,840,33.879,26.903,-0.0124,0.0627,9.799,-0.0739,-0.474,-0.1972
7975,1061,834,33.84,26.917,-0.0445,0.0034,9.8349,0.2279,-0.5095,0.2659
7980,1052,838,33.88,26.935,-0.0145,0.0604,9.8959,0.4596,-0.5089,-0.0981
7985,1048,842,33.816,26.984,0.0248,-0.0459,9.7751,0.0764,-0.1207,-0.1176
7990,1045,837,33.995,27.053,-0.0196,-0.0419,9.8762,-0.376,-0.0934,1.1499
7995,1033,835,33.817,26.908,-0.0013,-0.0091,9.8706,-0.4076,-0.0049,0.3011
8000,1035,834,33.869,26.859,-0.0363,-0.0442,9.8935,0.587,-0.9708,-0.6033
8005,1021,838,33.899,26.92,-0.0321,0.0431,9.7041,0.5351,0.7483,-0.7652
8010,1015,843,33.788,27.068,-0.0667,0.0222,9.7819,0.1567,0.5786,-0.9473
8015,1010,840,33.907,26.897,0.0083,0.0464,9.8216,-0.1231,-1.1528,0.7608
8020,1004,840,33.722,26.999,0.0998,0.0117,9.8074,-0.0775,0.0201,0.0128
8025,1001,836,33.799,26.982,0.0421,0.0004,9.7094,0.4184,-0.1774,-0.6294
8029,977,834,33.898,26.973,0.0001,0.0181,9.7668,-0.6786,-0.2638,-0.2356
8035,977,833,33.908,27.02,-0.0324,-0.0369,9.8272,-0.4694,0.5059,-0.4185
8039,980,838,33.838,26.904,-0.0671,-0.0315,9.7635,0.9597,-0.4788,0.4467
8045,961,837,33.977,26.859,-0.0137,-0.016,9.8078,-1.0312,0.7749,0.8377
8050,952,839,33.847,26.905,-0.0234,0.0161,9.8068,-0.3105,-0.227,-0.7444
8055,944,830,33.945,26.864,-0.0324,-0.0872,9.828,-1.2318,0.0494,-0.9559
8060,927,836,33.899,26.858,0.0861,0.0122,9.7934,0.7034,0.0791,-0.5151
8064,920,829,33.844,26.892,0.0134,0.0372,9.9456,-0.0761,0.6681,-0.3847
8070,920,828,33.901,26.958,-0.0123,-0.0273,9.8612,-0.02,0.2705,0.0743
8074,905,833,33.902,26.883,0.0587,0.0396,9.7383,0.5278,-0.481,-0.1963
8080,890,832,33.895,26.87,0.0024,0.0398,9.7304,-0.0708,0.1265,-0.1206
8085,875,830,33.849,26.904,0.0893,-0.0428,9.864,0.435,-0.8271,-0.4487
8090,872,827,33.956,26.884,-0.0838,0.0944,9.7744,0.1014,0.3789,0.6198
8095,869,828,33.962,26.855,0.0442,-0.0046,9.7028,0.1593,-0.0212,0.7392
8100,847,826,33.933,26.931,-0.0045,-0.0206,9.7692,0.0479,-0.1234,-0.5462
8105,841,827,33.84,26.874,-0.0756,-0.0584,9.7299,-0.5443,-0.1716,-0.3774
8109,842,823,33.85,26.907,0.0855,-0.0135,9.7966,-0.4897,-0.239,0.2827
8115,827,827,33.884,26.919,-0.055,-0.0028,9.8481,-0.9047,0.5002,-0.3441
8119,817,827,33.891,26.963,0.0056,0.11,9.8048,0.0729,0.165,0.0844
8125,809,823,33.91,26.864,0.0104,-0.0807,9.7699,-1.0862,0.0048,-0.233
8130,804,823,33.852,26.862,0.0229,-0.0155,9.7955,-0.8721,0.143,0.4994
8135,790,824,33.902,26.928,-0.0463,-0.078,9.7305,0.111,0.4897,0.0279
8140,783,823,33.889,26.844,0.0115,-0.0788,9.7532,0.5859,0.6684,-0.0769
8145,775,817,33.881,26.946,0.0382,-0.0131,9.7481,0.2649,0.1556,-0.0384
8150,764,818,33.871,26.911,-0.0158,0.1054,9.7326,0.1038,0.4616,0.0667
8154,776,825,33.848,26.858,0.0341,-0.0008,9.7162,0.6571,0.4339,0.1054
8160,757,824,33.86,26.953,0.0383,0.0012,9.7618,0.011,0.4681,0.4839
8164,755,823,33.894,26.87,-0.0085,-0.0617,9.8442,-0.109,0.0609,0.3867
8170,745,812,33.876,26.831,-0.0431,0.0912,9.7994,0.3974,0.0137,0.8949
8175,747,817,33.965,26.925,0.0714,0.0289,9.8459,0.2225,0.3387,-0.064
8180,747,817,33.875,26.943,-0.0009,-0.0262,9.8543,0.3179,-0.386,-0.8741
8185,745,814,33.922,26.894,0.0784,0.0138,9.831,-0.2213,-0.092,-0.2538
8189,756,811,33.836,26.917,-0.0731,0.0366,9.7997,-0.1681,0.2136,-0.9519
8195,745,813,33.899,26.871,0.0866,-0.0105,9.8082,-0.4224,0.0578,0.1983
8200,748,815,33.91,26.92,-0.0352,0.0235,9.8563,-0.123,0.0274,0.7025
8205,758,823,33.833,26.855,-0.007,-0.0429,9.8151,-0.0536,0.0448,-0.6112
8210,752,815,33.971,26.933,0.0153,-0.0886,9.7396,0.8192,0.1378,-0.6479
8215,757,812,33.824,26.881,0.0142,-0.1216,9.8237,0.2146,-0.1827,-0.93
8220,770,808,33.917,26.921,0.0816,-0.0755,9.6851,-0.319,-0.1569,-0.7196
8225,775,809,33.92,26.902,0.0192,0.038,9.7966,-0.0233,-0.0887,-0.6537
8230,775,811,33.883,26.919,0.1142,0.0616,9.7472,0.6528,-0.5257,0.1285
8235,788,806,33.888,26.986,0.0223,-0.0763,9.9272,-0.0758,0.3484,-0.2942
8240,793,810,33.925,26.992,-0.023,0.0346,9.8373,0.2556,-0.3975,-0.0126
8245,810,811,33.783,26.931,-0.0277,0.0238,9.8014,-0.1243,-0.2465,0.2599
8250,818,802,33.868,26.895,-0.0353,-0.0318,9.8029,-0.1054,0.6349,-0.37
8255,825,809,33.896,26.992,-0.0926,-0.0108,9.6999,-0.6463,-0.1419,-0.3069
8260,836,804,33.894,26.886,0.0278,-0.0342,9.9082,0.9452,0.7955,0.6439
8265,843,804,33.897,26.976,-0.0672,-0.0198,9.8321,0.0681,0.5193,0.315
8270,857,798,33.901,26.927,0.0643,-0.0479,9.8327,0.1341,0.8447,0.0478
8275,877,799,33.951,26.938,-0.0211,0.052,9.9109,0.4861,0.5561,-0.1093
8280,893,799,33.884,26.937,0.0227,0.0182,9.8148,0.2479,0.1834,-1.5296
8285,899,799,33.914,26.958,-0.0129,-0.08,9.7687,-0.5163,0.0457,0.4535
8290,912,792,33.825,26.929,-0.0002,-0.0022,9.7857,-0.5624,-0.2629,-0.2836
8295,929,791,33.85,27.015,0.0132,0.0637,9.8112,0.3452,-0.8193,-1.3083
8300,951,785,33.973,26.954,-0.0802,0.0377,9.8044,-0.7251,0.0789,0.1544
8305,947,791,33.805,26.995,-0.0547,-0.0156,9.8322,-0.0006,0.5884,-0.4736
8310,959,787,33.872,26.912,0.0068,-0.0421,9.8196,-0.1969,-0.558,0.1951
8315,989,783,33.881,26.973,-0.0432,0.0199,9.8689,-0.5211,-0.4354,-0.0889
8320,992,785,33.901,26.871,0.0542,0.0347,9.8876,0.2594,-0.2277,0.0667
8325,1010,781,33.916,26.981,0.0201,0.0665,9.801,-0.8155,-0.2421,-0.6348
8330,1018,779,33.89,26.869,0.0019,0.0429,9.7266,0.028,0.3285,0.2947
8335,1035,778,33.907,26.934,0.0015,-0.0042,9.8024,0.0964,0.4284,0.3021
8340,1043,776,33.836,26.939,-0.0601,0.0522,9.7787,-0.0986,-0.3663,0.2341
8345,1066,777,33.905,26.876,-0.0162,0.0188,9.8687,-0.7208,0.4197,-0.5017
8350,1080,773,33.886,26.983,0.018,-0.1039,9.8,0.0342,-0.3606,-0.1245
8355,1087,771,33.852,26.864,-0.1091,0.056,9.8276,-0.1852,0.0955,0.3139
8360,1095,765,33.842,26.895,0.0005,0.051,9.8425,0.7202,0.0148,0.1291
8365,1093,763,33.918,26.854,0.0148,-0.0747,9.7853,0.3682,-0.1397,0.3956
8370,1110,766,33.839,26.929,0.0107,0.0154,9.8127,-1.0322,-0.0351,-0.5252
8375,1118,759,33.933,26.949,0.0263,-0.0683,9.7486,-0.7903,0.4616,0.1249
8380,1128,763,33.852,26.888,0.0026,-0.0591,9.7969,0.1245,-1.2921,0.5397
8385,1138,753,33.906,26.938,-0.0013,-0.0378,9.8406,-0.8191,-0.0545,0.2092
8390,1141,754,33.774,26.911,-0.0647,-0.0909,9.7911,-0.009,0.1622,-0.0335
8395,1160,750,33.902,26.963,-0.0377,0.0107,9.8242,-0.6256,0.1951,-0.9914
8400,1156,750,33.839,26.911,0.0143,-0.0943,9.8765,0.6273,-0.9973,0.3287
8405,1163,752,33.855,26.891,-0.1049,0.0023,9.8687,-0.4168,0.0949,0.5648
8410,1176,750,33.918,26.946,-0.1282,0.0385,9.7758,-0.8513,0.4062,0.0178
8415,1175,751,33.96,26.969,0.0238,0.0571,9.7801,-0.4107,0.078,0.1086
8420,1176,748,33.924,26.94,0.0096,-0.0387,9.8508,0.3223,-0.5203,-0.2194
8425,1184,748,33.803,26.928,-0.0527,0.0088,9.8747,0.1192,0.633,0.1123
8430,1196,752,33.848,26.939,-0.0465,-0.0066,9.9097,-0.5987,-0.0219,-0.2002
8435,1187,750,33.929,26.816,0.0904,0.0196,9.7864,-0.4467,0.184,0.42
8440,1181,750,33.864,26.917,-0.0754,0.0628,9.8368,0.0578,0.0179,-0.0419
