timestamp_ms,ir_finger,ir_toe,temp_finger,temp_toe,ax,ay,az,gx,gy,gz
0,1042,665,34.83,33.774,0.03,-0.0261,9.8224,0.148,-0.0834,-0.0022
5,1061,668,34.759,33.811,-0.0014,0.0073,9.7812,-0.4826,-0.429,0.0726
10,1076,675,34.792,33.657,0.0233,0.0206,9.7605,-0.1877,0.6014,0.2049
15,1083,677,34.756,33.728,-0.0177,0.0187,9.8281,-0.0518,-0.0665,0.5079
20,1091,688,34.812,33.808,-0.0159,0.0948,9.864,0.7154,0.2369,0.5178
25,1097,689,34.806,33.678,0.0181,0.0163,9.7902,-0.5398,0.4625,-0.1735
30,1111,697,34.769,33.728,0.03,0.048,9.8122,0.5523,0.254,-0.2948
35,1117,708,34.784,33.796,-0.0325,0.0289,9.8831,-0.1861,0.1852,0.5888
40,1132,715,34.78,33.687,0.0113,0.0302,9.7893,-0.6032,-0.1223,-0.1188
45,1134,721,34.866,33.764,-0.0388,-0.1026,9.8378,-0.5649,1.3357,0.9751
50,1143,730,34.784,33.71,0.0318,0.0488,9.7795,-1.062,-0.1641,-0.4023
55,1155,735,34.81,33.704,0.0171,-0.0403,9.8046,0.7501,0.0986,0.4482
60,1153,744,34.807,33.735,-0.0817,0.0586,9.832,-0.2479,-0.3223,-0.1854
65,1153,755,34.694,33.753,-0.0061,0.0709,9.7589,-0.9608,0.7047,0.4325
70,1170,766,34.837,33.705,0.0362,-0.0678,9.7768,0.9397,0.2383,0.5685
75,1181,771,34.905,33.801,0.01,-0.0503,9.7636,-0.3046,0.3612,0.5566
80,1173,786,34.854,33.678,0.0744,0.0022,9.8554,-0.2247,-0.1027,0.504
85,1180,788,34.789,33.794,0.0352,-0.0339,9.8036,-0.2705,-0.1031,-0.1548
90,1177,803,34.824,33.816,0.0427,-0.0103,9.7939,-0.1423,0.0575,-0.568
95,1193,812,34.845,33.821,0.036,-0.0314,9.8443,0.6123,-0.7052,-0.4871
100,1189,818,34.721,33.779,0.0009,-0.0206,9.7172,-0.8502,-0.3638,-0.3236
105,1194,830,34.774,33.773,-0.0114,-0.0707,9.7597,0.5217,0.9962,0.0417
110,1185,833,34.758,33.739,0.0136,-0.0523,9.8339,-0.1505,-0.9263,0.447
115,1186,834,34.786,33.752,0.0549,0.0405,9.737,-0.3116,-0.0196,-0.0876
120,1194,848,34.782,33.733,-0.0102,-0.1004,9.7845,0.1194,0.8041,-0.7441
125,1186,853,34.857,33.77,0.0116,0.0088,9.7969,-0.1071,-0.7439,0.917
130,1186,857,34.698,33.818,-0.0269,0.0579,9.7388,0.116,1.0517,0.2806
135,1186,870,34.828,33.774,0.0066,0.0595,9.8418,-0.5507,-0.1898,0.1403
140,1181,881,34.779,33.835,-0.0052,0.0053,9.8776,-0.6243,-0.3873,0.2279
145,1179,878,34.732,33.789,0.0371,0.0696,9.7951,-0.2865,0.3062,-1.0699
150,1175,884,34.75,33.699,0.0507,0.0252,9.7716,-0.2034,0.0881,0.2451
155,1170,891,34.779,33.809,0.0375,0.0011,9.8546,-0.6385,0.1703,0.3111
160,1162,893,34.88,33.738,0.0376,0.0192,9.8987,-0.5509,0.5836,0.3464
165,1167,901,34.829,33.702,-0.0152,0.0029,9.8244,0.1645,-0.1463,-0.1453
170,1159,903,34.762,33.782,-0.0031,-0.0277,9.7454,0.0904,0.0995,0.2751
175,1156,908,34.855,33.702,0.0744,-0.0165,9.8772,0.9287,0.5137,-0.4861
180,1161,909,34.837,33.761,-0.0983,-0.0142,9.7766,-0.1262,-0.5405,0.1571
185,1152,912,34.755,33.741,-0.0896,-0.0122,9.8883,-0.1255,-0.8085,-0.2796
190,1145,917,34.823,33.768,0.0044,0.0064,9.7967,0.7805,-0.1705,-0.9115
195,1152,917,34.82,33.804,-0.0435,-0.0013,9.8313,-0.7005,-0.4028,-0.3694
200,1143,915,34.839,33.731,-0.0124,-0.0158,9.8143,-0.5939,-0.3172,-0.54
205,1140,925,34.785,33.82,-0.0805,0.0563,9.8341,-0.3125,0.1544,0.0757
210,1131,922,34.803,33.738,-0.0276,0.1124,9.7336,-0.3464,0.3401,0.1176
215,1128,922,34.837,33.694,0.0392,-0.0197,9.7759,-0.4885,-0.2352,-0.7118
220,1127,923,34.857,33.805,-0.0455,-0.0024,9.7805,-0.7683,-0.1178,-0.1193
225,1124,919,34.791,33.809,-0.0271,-0.0406,9.8938,0.3158,-0.3019,0.0796
230,1126,923,34.766,33.704,-0.0566,0.0374,9.8363,0.1352,-0.1671,-0.0355
235,1118,922,34.825,33.728,-0.057,-0.0434,9.8324,-1.0374,0.1717,-0.8899
240,1107,921,34.757,33.792,-0.0376,0.0303,9.7366,-0.6254,-0.3428,0.018
245,1114,914,34.918,33.734,-0.0265,0.0052,9.896,-0.8406,0.6299,-0.9999
250,1116,913,34.819,33.725,-0.0257,0.0097,9.7378,-0.2664,0.3569,-0.1938
255,1109,916,34.766,33.803,0.0561,0.0074,9.8599,-0.8247,0.1017,-0.0254
260,1111,912,34.773,33.774,-0.0079,0.0155,9.8474,0.3142,-0.3203,0.0935
265,1100,910,34.92,33.877,-0.0271,0.035,9.8078,1.0544,0.3029,-0.8052
270,1091,909,34.816,33.769,0.0316,0.0065,9.8105,-0.1355,-0.1839,-0.5571
275,1102,906,34.733,33.734,-0.0195,0.0341,9.8241,0.1218,-0.4116,-0.4211
280,1094,900,34.763,33.706,-0.0357,0.0191,9.7714,0.2438,-0.7294,-0.382
285,1099,904,34.796,33.774,-0.0125,0.0053,9.8358,0.4042,-1.5547,0.0438
290,1095,903,34.864,33.713,-0.1238,0.0262,9.8099,-0.3196,0.2488,0.7353
295,1090,898,34.829,33.788,-0.0372,-0.009,9.7478,-0.5947,-0.3869,-0.2369
300,1092,895,34.877,33.734,0.0468,0.0207,9.7716,-0.584,0.1447,0.0274
305,1080,892,34.771,33.806,-0.0396,-0.0028,9.7862,-0.4714,-0.8773,0.2306
310,1078,886,34.84,33.753,-0.072,-0.1256,9.8434,0.1441,-0.2343,0.2389
315,1076,885,34.813,33.791,0.0448,-0.0642,9.8151,0.3268,0.0227,-0.1961
320,1070,888,34.795,33.834,-0.0034,0.0382,9.8115,0.0455,0.156,1.1746
325,1074,881,34.749,33.766,0.0327,-0.0373,9.8036,-0.1238,0.1326,-0.4149
330,1069,881,34.799,33.813,0.0468,-0.0073,9.7311,-0.6861,-0.4889,-0.174
335,1066,875,34.731,33.697,0.0667,0.0029,9.8196,-0.2846,-0.2596,-0.1586
340,1053,879,34.815,33.738,-0.0254,-0.0227,9.8186,-0.1813,-0.6076,-0.4718
345,1056,881,34.793,33.863,0.0777,0.0766,9.7796,-0.0334,-0.2866,0.1664
350,1061,872,34.822,33.803,-0.0903,-0.0124,9.8598,-0.2112,0.1638,-0.4151
355,1048,869,34.747,33.755,0.1183,0.0239,9.7525,-0.6846,-0.53,-0.7311
360,1050,872,34.784,33.771,-0.0441,0.0397,9.7734,0.0585,-0.2252,-0.5065
365,1037,864,34.793,33.752,-0.0577,-0.0231,9.8619,-0.0857,-0.351,0.3277
370,1031,862,34.857,33.774,-0.0257,0.0038,9.763,0.6059,0.4524,-0.184
375,1033,862,34.83,33.795,0.0803,0.0221,9.82,0.3997,-0.2614,-0.3225
380,1016,864,34.741,33.812,-0.0982,-0.0342,9.8335,0.1475,0.0896,-0.4241
385,1014,867,34.788,33.753,0.0326,-0.0747,9.8656,0.3123,0.3536,-0.0331
390,1016,860,34.799,33.799,-0.034,0.0039,9.8084,0.3165,0.0082,0.0369
395,1007,859,34.771,33.792,0.0864,0.0127,9.864,-0.2887,-0.5688,-0.1846
400,997,857,34.89,33.736,-0.0752,0.0479,9.7578,1.0508,-0.0812,0.2088
405,974,861,34.768,33.76,0.0211,-0.0701,9.7267,0.2457,-1.5973,0.0318
410,978,858,34.779,33.827,0.0825,-0.0214,9.8649,-1.165,0.7137,0.1598
415,970,854,34.801,33.83,0.0412,0.0109,9.8612,-0.1001,0.1035,0.1255
420,961,848,34.791,33.79,0.0172,0.071,9.7976,-0.5733,0.589,-0.0324
425,955,850,34.747,33.723,-0.0311,-0.0355,9.8449,0.2806,-0.8506,0.5502
430,944,848,34.901,33.755,0.0088,0.1117,9.738,-0.0115,1.0156,0.6095
435,931,841,34.74,33.683,0.062,0.0924,9.8248,0.1755,-0.0726,-0.1646
440,923,845,34.833,33.686,-0.0223,0.0192,9.8025,0.0311,0.5864,0.4556
445,923,845,34.718,33.72,0.0294,0.0195,9.7861,-0.1171,0.959,0.4048
450,909,838,34.744,33.772,0.035,-0.0553,9.8362,1.6172,0.1462,0.0797
455,898,832,34.84,33.635,-0.0078,-0.0115,9.7627,-0.3338,0.3053,0.563
460,887,832,34.875,33.733,0.0516,-0.0191,9.8714,0.4147,-0.6744,-0.6884
465,867,829,34.795,33.721,-0.0417,-0.0171,9.8124,-0.5975,-0.6251,-0.3024
470,866,821,34.756,33.669,0.0098,0.0921,9.823,0.0532,0.6004,0.1133
475,854,817,34.816,33.699,-0.0051,-0.032,9.8241,0.1932,-0.4424,-0.2022
480,856,819,34.731,33.734,0.0936,0.0093,9.8892,-0.1534,-0.8796,-0.4024
485,844,818,34.758,33.746,-0.0116,0.0983,9.8314,-0.5527,0.3087,-0.534
490,828,814,34.842,33.751,0.0104,-0.043,9.7756,0.093,0.1597,-0.6699
495,823,810,34.866,33.743,0.0041,0.0054,9.7386,0.2395,0.4098,1.6249
500,812,801,34.819,33.644,-0.1706,0.0001,9.8093,-0.3925,-0.1004,0.5735
505,801,802,34.747,33.76,0.0413,-0.0184,9.9065,-0.6322,0.4158,0.5109
510,796,799,34.878,33.749,-0.0202,-0.0197,9.7919,-0.243,-0.5118,0.6853
515,793,789,34.777,33.703,0.0414,-0.0669,9.807,-0.1227,-0.5286,-0.1733
520,786,784,34.808,33.691,0.0507,-0.0174,9.7791,0.9547,-0.4095,-0.2729
525,773,776,34.836,33.684,-0.0162,0.1225,9.8599,-0.0149,0.1484,0.5644
530,773,773,34.796,33.787,-0.0518,0.0194,9.8508,-0.5145,-0.0574,0.4975
535,764,764,34.83,33.714,0.0524,-0.1214,9.8884,-0.1868,0.054,0.2927
540,764,762,34.769,33.747,-0.0053,-0.0024,9.7236,-0.4072,-0.5858,-0.3906
545,755,755,34.836,33.726,-0.0203,0.0366,9.8688,0.533,0.5763,-0.1056
550,743,749,34.826,33.72,0.0776,0.0344,9.8586,-0.4352,0.3471,-0.312
555,739,743,34.885,33.721,0.0296,-0.0901,9.7677,0.3205,-0.2339,0.5057
560,743,736,34.818,33.758,0.0145,0.0311,9.8029,-0.5008,0.6109,0.236
565,752,725,34.824,33.802,0.0151,0.012,9.8832,0.1626,-0.3299,-0.5042
570,749,722,34.878,33.757,-0.0054,0.0546,9.769,0.6586,0.0548,-0.1683
575,749,713,34.782,33.819,0.0105,0.0067,9.8606,-0.5237,0.2313,-0.2445
580,752,707,34.821,33.717,-0.0627,-0.0216,9.7822,-0.6958,-0.2167,0.7175
585,753,697,34.836,33.721,0.0072,0.0101,9.825,0.0864,-0.221,0.2569
590,757,694,34.894,33.798,-0.0082,-0.0031,9.8293,0.8195,0.063,0.9641
595,755,691,34.753,33.792,-0.0038,0.0266,9.8236,-0.7261,0.6921,-0.2371
600,761,684,34.794,33.729,-0.0545,-0.0331,9.7579,0.4751,-0.6476,0.6993
605,774,682,34.814,33.771,0.0379,-0.0338,9.7975,-0.7743,-0.7406,-0.2207
610,784,670,34.763,33.768,-0.0237,0.1111,9.7523,0.2693,-0.4022,-0.6362
615,787,671,34.806,33.833,0.0413,-0.0097,9.8574,0.3317,0.1739,-0.4428
620,790,666,34.82,33.835,-0.087,0.0094,9.8455,0.0466,0.0526,-0.0093
625,803,661,34.813,33.71,0.0633,0.0405,9.7645,0.0874,0.7709,-0.541
630,808,653,34.737,33.75,-0.0799,0.0145,9.7375,-0.3186,-0.2938,0.9413
635,810,653,34.755,33.755,-0.1535,0.0774,9.7419,0.5646,-0.4468,-0.4748
640,835,650,34.77,33.714,0.022,0.0372,9.7558,-0.4057,-0.7771,0.448
645,834,647,34.77,33.648,-0.0375,0.0051,9.7896,-0.478,-1.056,0.6735
650,849,643,34.769,33.693,-0.0462,-0.0109,9.7609,-0.0603,-0.7112,-0.7616
655,857,639,34.654,33.771,0.0526,-0.0058,9.8149,-0.4665,0.7884,-0.8398
660,875,636,34.853,33.771,-0.0116,-0.0222,9.7685,-0.2678,-0.2813,0.8829
665,886,645,34.816,33.782,0.0071,0.044,9.7767,0.2901,0.0764,0.3004
670,898,635,34.759,33.68,0.0472,0.005,9.8152,0.2728,0.9903,0.4267
675,914,632,34.821,33.837,0.0268,0.0585,9.8578,0.938,-0.3353,-0.2851
680,929,639,34.746,33.691,0.0618,-0.0036,9.8312,-0.1265,-0.2884,-0.4555
685,935,636,34.83,33.793,0.0072,-0.0245,9.8165,-0.2418,-0.1551,0.0226
690,961,641,34.755,33.832,-0.0226,0.0081,9.802,0.7489,0.6242,-0.2423
695,958,645,34.761,33.703,0.0262,-0.0784,9.7083,-0.4593,0.1237,-0.0
700,982,638,34.793,33.808,0.0732,0.0602,9.8601,-0.3899,-0.3385,-0.1693
705,994,647,34.774,33.713,-0.0215,0.0669,9.808,-0.6448,0.2595,0.4081
710,1008,651,34.781,33.731,0.0575,-0.0236,9.6952,0.1185,0.069,-0.3121
715,1029,651,34.75,33.673,-0.0091,0.002,9.8875,0.3764,-0.1481,-0.7073
720,1032,663,34.758,33.699,-0.0392,-0.0218,9.8802,0.0088,0.1229,-1.0427
725,1042,669,34.792,33.862,0.0778,0.0313,9.8168,-0.569,-0.4898,0.4575
730,1057,668,34.802,33.67,-0.0505,-0.0894,9.8546,0.5243,-0.0331,0.7719
735,1068,673,34.782,33.732,0.046,-0.0231,9.8323,0.0466,0.0441,-0.551
740,1077,679,34.741,33.743,0.0509,-0.0298,9.8073,0.1956,-0.4803,-0.0387
745,1081,688,34.791,33.708,0.0663,-0.0422,9.7209,1.146,0.0575,0.0107
750,1103,693,34.778,33.726,0.0448,0.0183,9.8361,0.5324,0.6849,0.1398
755,1114,699,34.742,33.742,0.0415,0.0164,9.8705,0.0318,-0.0782,0.7085
760,1122,710,34.718,33.769,0.0531,0.0786,9.7681,-0.6876,0.3242,0.3691
765,1125,713,34.772,33.734,0.0328,-0.0522,9.7737,-0.2073,0.5005,0.5707
770,1149,722,34.729,33.608,0.0698,-0.0307,9.7659,-0.0644,0.8298,-0.9257
775,1150,735,34.872,33.736,0.0454,-0.0521,9.7468,0.829,0.5756,0.1653
780,1147,742,34.665,33.773,0.0394,0.0007,9.8793,-0.286,-0.1739,-0.0197
785,1152,744,34.775,33.827,0.0479,0.0548,9.8156,-0.2686,-0.3596,-0.5846
790,1169,756,34.902,33.716,-0.0877,-0.0322,9.7539,0.4902,0.3813,-0.3116
795,1172,765,34.894,33.704,0.0157,0.0438,9.8348,0.1502,-0.6353,0.0448
800,1173,775,34.802,33.765,0.0027,-0.108,9.7383,1.0271,0.4127,0.4209
805,1183,789,34.754,33.729,-0.0736,0.0098,9.8535,0.0356,-0.831,-0.129
810,1182,787,34.908,33.734,0.0834,-0.0855,9.8899,0.2027,-0.1713,-0.0377
815,1192,797,34.827,33.736,-0.0088,-0.0742,9.8332,1.0972,0.5133,-0.426
820,1184,806,34.808,33.709,0.0206,-0.0642,9.8409,0.0378,0.156,-0.5684
825,1184,814,34.833,33.843,0.0858,0.0534,9.7181,0.6176,0.3645,-0.4199
830,1187,824,34.757,33.789,0.0816,0.0269,9.8513,-0.1018,-0.1435,-0.8275
835,1193,830,34.821,33.851,-0.0143,0.1029,9.7995,-0.9535,0.2962,-0.5008
840,1185,842,34.788,33.662,0.0945,-0.006,9.7451,-0.6083,-0.791,1.5107
845,1184,846,34.776,33.804,0.0131,0.0961,9.8088,-0.3254,-0.2381,-0.0231
850,1191,852,34.791,33.767,0.0323,-0.0174,9.7915,0.3094,0.9474,0.3012
855,1184,861,34.702,33.83,-0.1218,0.0414,9.8022,-0.2728,-0.2935,0.1157
860,1181,871,34.75,33.806,-0.0512,0.0213,9.7189,-0.4671,0.2337,0.2095
865,1184,875,34.813,33.797,-0.0056,-0.0134,9.8354,1.0936,-0.7592,-0.3397
870,1175,880,34.832,33.761,-0.0313,0.0408,9.8198,-0.2426,-0.0503,-0.2912
875,1171,878,34.688,33.646,0.0065,0.0313,9.7957,0.6833,0.2502,-0.1604
880,1177,894,34.818,33.811,0.0259,0.0574,9.8198,0.2289,1.0025,-0.291
885,1173,892,34.723,33.708,-0.0457,-0.091,9.8666,0.3646,0.1596,0.1877
890,1164,904,34.778,33.796,-0.0035,0.0455,9.8397,-0.655,1.1499,0.0508
895,1165,903,34.817,33.817,0.0062,0.0331,9.7455,-0.3037,0.3228,0.7195
900,1155,908,34.796,33.849,-0.0212,-0.0042,9.7989,0.3324,0.6146,-0.2467
905,1157,910,34.943,33.782,-0.0394,-0.0508,9.7833,-0.0428,0.2683,-0.4409
910,1148,915,34.811,33.719,-0.0416,-0.0232,9.7981,0.544,0.2153,0.7154
915,1153,917,34.819,33.806,0.0108,0.0028,9.8628,-0.6445,0.2775,-0.3926
920,1148,916,34.744,33.713,0.006,-0.0425,9.8465,-0.6854,0.6899,0.0434
925,1147,917,34.82,33.718,0.0208,-0.0815,9.8179,-0.1613,0.4743,0.5245
930,1146,926,34.706,33.784,-0.0257,-0.0484,9.7296,0.6479,0.2329,0.0065
935,1136,917,34.758,33.683,0.0825,0.0514,9.8074,0.202,0.4899,-0.4251
940,1123,923,34.858,33.749,-0.0289,-0.0731,9.8318,0.4038,-0.0571,0.2571
945,1133,923,34.907,33.759,0.0139,0.0859,9.7965,0.4702,0.7022,-0.1641
950,1122,922,34.794,33.835,-0.0322,-0.0169,9.7031,-0.236,-0.2398,-0.0189
955,1126,923,34.776,33.743,0.0416,0.0358,9.8172,0.2339,0.7068,-0.3851
960,1119,921,34.828,33.731,-0.0335,-0.0299,9.8095,-0.0176,0.6836,1.0453
965,1117,920,34.699,33.711,0.0365,0.0018,9.7859,-0.5285,-0.0594,0.2066
970,1115,918,34.8,33.851,0.0455,0.0693,9.771,0.8716,0.0835,-0.2825
975,1115,916,34.84,33.742,0.0424,-0.1101,9.7921,0.3475,0.3306,-0.2601
980,1116,915,34.809,33.792,0.0697,0.0114,9.8659,0.4892,0.3936,-0.4761
985,1101,915,34.838,33.776,0.0193,0.063,9.8057,1.148,-0.3151,-0.818
990,1105,913,34.796,33.804,-0.0625,0.0186,9.8142,0.7487,0.7344,0.2396
995,1103,908,34.678,33.739,0.0622,0.0335,9.813,0.3874,-0.7221,0.4667
1000,1093,910,34.742,33.803,0.0076,-0.078,9.8126,0.7062,-0.1168,-0.2909
1004,1109,907,34.754,33.766,0.0181,0.0138,9.8455,-0.3767,0.5657,-0.343
1010,1087,899,34.733,33.799,-0.0155,0.0358,9.7803,-0.3976,-0.0406,-0.3629
1014,1086,894,34.849,33.764,-0.0239,-0.0947,9.8587,-0.419,-0.9798,-0.3165
1020,1078,897,34.84,33.751,0.0178,0.0194,9.8356,-0.1986,0.1837,-0.2488
1025,1097,893,34.856,33.862,-0.0961,0.0237,9.7841,-0.3757,-0.9702,-0.7535
1030,1080,897,34.811,33.753,-0.0225,0.0195,9.7508,-0.1412,-0.375,-0.1068
1035,1081,889,34.778,33.808,-0.0661,-0.0443,9.8893,0.1002,0.3617,0.7164
1040,1081,895,34.787,33.819,0.0501,0.0976,9.8314,-0.3994,-0.0068,0.1639
1045,1081,884,34.768,33.71,0.0033,-0.0056,9.7447,-0.1676,-0.9382,-0.3331
1050,1066,880,34.856,33.785,-0.0756,0.0466,9.8084,-0.5775,0.1207,-0.0926
1055,1064,880,34.805,33.753,0.0039,0.0085,9.7982,-0.8987,-0.7115,-0.0608
1060,1070,882,34.823,33.799,0.0805,0.011,9.7915,-1.6363,0.0667,-0.1138
1065,1072,877,34.821,33.718,-0.0855,0.0731,9.809,-0.1702,-0.1454,0.1288
1070,1056,869,34.872,33.839,-0.0281,0.0696,9.7869,-0.3026,-0.271,0.8475
1075,1059,873,34.852,33.76,0.0735,0.0443,9.8627,0.8068,-0.8707,-0.2577
1080,1043,867,34.826,33.692,0.0363,-0.0026,9.8173,-0.5238,-0.7062,0.7959
1085,1048,870,34.844,33.791,0.0049,0.0448,9.7413,1.0731,-0.1564,0.1341
1090,1045,864,34.857,33.752,0.0506,0.0466,9.8239,0.4626,-0.5664,0.3887
1095,1035,867,34.823,33.788,-0.035,-0.0547,9.7183,0.697,-0.4887,-0.0118
1100,1021,869,34.719,33.742,-0.0098,-0.0056,9.8687,0.1421,0.6072,-0.4189
1105,1019,864,34.838,33.811,-0.0802,0.083,9.8502,0.2017,-0.3004,0.8126
1110,1017,861,34.874,33.778,0.0077,-0.0155,9.8225,0.1519,0.4211,0.8611
1115,1026,852,34.776,33.735,-0.0281,-0.0106,9.8135,-0.0078,-0.071,0.1514
1120,1004,854,34.776,33.749,-0.0637,-0.0476,9.7406,-0.3718,-0.063,0.174
1125,1001,863,34.777,33.715,-0.0387,0.0586,9.7345,0.0154,0.1232,-0.0337
1130,990,860,34.705,33.791,-0.0007,-0.0011,9.8307,0.5644,0.2324,-0.0642
1135,976,854,34.847,33.757,0.0079,-0.0522,9.8306,-0.2327,0.3853,-0.6013
1140,974,854,34.797,33.626,0.117,0.0435,9.8981,0.0759,-1.1467,-0.0634
1145,963,853,34.785,33.842,0.0262,-0.0248,9.7857,-0.9063,-0.0349,-0.5468
1150,957,848,34.788,33.777,0.0724,0.0266,9.8587,0.0868,-0.0051,0.0601
1155,942,849,34.768,33.725,-0.0348,-0.01,9.7856,0.1155,-0.245,0.5197
1160,948,844,34.788,33.675,0.0413,0.0444,9.879,-0.0089,0.447,-0.0411
1165,918,843,34.871,33.867,-0.0319,-0.0277,9.788,0.4133,-0.4268,0.5459
1170,911,839,34.813,33.815,0.1331,0.006,9.7821,0.6335,-0.523,0.179
1175,911,835,34.834,33.701,-0.0423,0.1446,9.829,0.0509,0.1437,0.9276
1180,895,834,34.699,33.729,0.0679,-0.0292,9.8329,0.1606,-1.1399,-1.0594
1185,889,837,34.806,33.86,0.0333,-0.0304,9.8145,-0.4066,0.7316,0.4372
1190,877,829,34.77,33.763,0.0663,-0.0378,9.7761,0.3395,0.5049,-0.0518
1195,865,829,34.782,33.785,-0.0144,-0.0538,9.7713,-0.5623,0.7733,-0.1645
1200,844,826,34.848,33.737,-0.0513,-0.0064,9.7242,-0.2803,-0.0156,0.421
1205,846,817,34.837,33.762,0.0042,-0.0025,9.8035,-0.395,0.5114,-0.7873
1210,832,818,34.825,33.801,-0.1078,0.0301,9.7762,0.2486,0.2105,0.0824
1215,825,808,34.813,33.778,-0.0349,0.0854,9.7305,0.1252,-0.1972,0.6538
1220,820,809,34.862,33.826,-0.0029,0.0142,9.8391,-0.348,0.1347,-0.3862
1225,821,804,34.889,33.735,-0.0521,0.0547,9.7781,0.6401,-0.0597,-0.2037
1230,802,798,34.815,33.791,0.064,-0.0098,9.7517,-0.6648,-0.4028,0.5186
1235,806,792,34.787,33.793,0.0054,0.0826,9.7966,0.3429,0.3096,-0.0729
1240,781,781,34.778,33.8,-0.0231,0.0102,9.8417,-0.2765,-0.1112,0.3756
1245,791,784,34.89,33.714,0.0429,0.015,9.8037,0.54,0.1179,0.3189
1250,775,778,34.864,33.862,-0.0641,-0.0075,9.8175,0.1592,-0.2733,-0.4492
1255,768,768,34.809,33.72,-0.0358,-0.0251,9.9218,0.3098,0.1355,0.4489
1260,765,765,34.861,33.746,-0.0762,0.0148,9.8379,-0.5124,0.1777,-0.3755
1265,754,756,34.715,33.841,0.0562,-0.0478,9.9228,0.2756,-0.0999,1.0002
1270,744,758,34.776,33.79,0.0521,-0.0223,9.8633,-0.2811,0.281,-0.3517
1275,752,746,34.836,33.776,0.0538,-0.0759,9.7894,-0.4381,0.2295,-0.4432
1280,748,739,34.805,33.763,0.0129,0.0354,9.8928,0.6734,0.9328,0.9208
1285,743,734,34.772,33.823,0.0082,0.0333,9.8988,0.5026,-0.0058,0.9676
1290,749,728,34.796,33.798,0.0259,0.0346,9.7935,-1.151,0.9044,0.6996
1295,746,723,34.744,33.755,-0.0517,0.0262,9.7511,0.7607,0.2924,0.5415
1300,754,718,34.891,33.825,-0.0199,0.0028,9.7888,-0.1363,0.018,-0.2423
1305,751,707,34.701,33.729,-0.0216,0.0822,9.8024,-0.4639,0.1133,-1.0859
1310,751,700,34.801,33.698,-0.1407,0.0459,9.7437,-0.5823,-0.8917,0.6882
1315,762,694,34.762,33.806,-0.0536,0.0071,9.7411,-0.9274,-0.5185,0.9072
1320,770,688,34.886,33.768,0.0191,0.0017,9.8923,-0.152,-0.8305,-0.6211
1325,770,684,34.832,33.775,-0.0211,0.0137,9.7748,0.5734,0.01,-0.2771
1330,770,680,34.83,33.794,0.0415,-0.0538,9.8577,0.0005,-0.6231,-0.2166
1335,785,669,34.808,33.736,-0.0644,0.0555,9.805,-0.3613,0.4174,0.6341
1340,781,673,34.756,33.704,-0.081,0.0662,9.7596,-0.4616,0.084,0.3122
1345,794,664,34.799,33.834,0.013,-0.0831,9.6627,0.0222,0.7809,-0.2797
1350,804,659,34.798,33.853,-0.0008,0.026,9.7978,-0.0639,-0.1586,-0.4653
1355,809,654,34.803,33.82,-0.0365,-0.0166,9.8363,0.0223,0.6221,-0.5335
1360,818,648,34.863,33.734,-0.0651,0.0262,9.7007,0.79,0.1987,-0.1668
1365,832,649,34.691,33.746,-0.0976,-0.034,9.8001,-0.268,0.1994,-0.7418
1370,835,641,34.857,33.755,-0.0105,-0.1427,9.7901,-0.1339,-0.2407,0.8062
1375,846,638,34.781,33.744,-0.0546,-0.0156,9.7773,0.7191,-0.0608,-0.3945
1380,870,643,34.811,33.845,-0.001,0.0904,9.7944,-0.0373,0.0849,0.6101
1385,868,636,34.795,33.774,0.066,-0.0743,9.7349,-0.2288,-0.1395,-1.1921
1390,879,640,34.867,33.65,0.0277,-0.0367,9.7841,0.4113,0.6539,-0.8334
1395,901,636,34.836,33.697,-0.1589,0.0297,9.7699,-0.3521,0.36,0.4452
1400,908,639,34.75,33.847,0.0541,0.0633,9.9084,-0.9203,0.1292,-0.2353
1405,925,636,34.802,33.795,-0.0496,0.0248,9.8437,0.7761,-0.6901,-0.3099
1410,940,629,34.794,33.752,0.0244,0.0129,9.8367,-0.5905,0.6029,-0.7392
1415,950,639,34.856,33.818,0.085,0.0512,9.7963,-0.522,0.7386,-0.0616
1420,971,638,34.794,33.823,0.0517,0.0042,9.7968,0.553,-0.4578,-0.4933
1425,983,648,34.806,33.787,0.0863,0.0515,9.7238,-0.0557,-0.173,0.7546
1430,1005,648,34.827,33.766,0.0528,0.0367,9.8321,0.165,0.4513,-0.5328
1435,996,655,34.849,33.795,0.0231,0.1536,9.7064,-0.2159,0.6832,-0.2181
1440,1019,654,34.8,33.799,0.0178,-0.0163,9.7422,-0.3834,0.2705,0.6153
1445,1028,657,34.931,33.807,-0.0169,0.0016,9.7757,0.3831,-0.4526,0.1625
1450,1040,659,34.887,33.825,0.0196,0.0191,9.7893,-0.5011,-0.5896,-0.1024
1455,1058,671,34.784,33.735,0.0302,-0.0356,9.7405,-0.7487,-0.0221,0.1309
1460,1075,671,34.731,33.882,-0.1104,-0.0887,9.7976,0.0749,-0.0358,0.8165
1465,1077,685,34.828,33.805,0.0424,-0.0297,9.7912,1.139,0.1798,0.3584
1470,1090,690,34.887,33.652,-0.0354,0.0058,9.8339,0.2439,-0.7291,0.1621
1475,1098,700,34.85,33.698,-0.0469,-0.0055,9.8991,-0.2508,0.5867,-0.0424
1480,1113,704,34.817,33.755,-0.038,0.081,9.7948,-0.7567,0.3546,0.4842
1485,1127,713,34.783,33.768,-0.0242,0.0064,9.8617,-0.4988,0.4107,0.8851
1490,1135,718,34.861,33.764,-0.0896,0.0972,9.8481,0.541,0.7018,-0.4111
1495,1136,733,34.741,33.785,-0.0427,0.0226,9.7958,0.479,-0.0385,-0.3762
1500,1143,730,34.812,33.746,0.0334,0.0359,9.8451,0.3954,-0.3659,-0.2918
1505,1158,739,34.859,33.802,-0.0378,-0.0182,9.841,0.8469,-0.0577,0.4099
1510,1156,746,34.921,33.712,0.0541,0.0019,9.8509,0.1255,0.6493,-0.0578
1515,1156,755,34.808,33.697,0.1175,0.0522,9.8271,-0.0257,-0.1747,0.347
1520,1170,764,34.78,33.705,-0.1017,-0.0577,9.806,-0.3726,0.1451,0.1895
1525,1170,778,34.747,33.737,-0.0044,0.1423,9.8749,-0.5316,0.6649,0.0416
1530,1169,781,34.78,33.858,0.0448,0.013,9.9255,0.7847,0.5634,-0.3162
1535,1183,796,34.849,33.565,-0.0112,-0.0393,9.698,-0.087,-0.283,0.4911
1540,1185,799,34.797,33.691,-0.0778,0.0532,9.8008,1.0244,-0.3688,0.0112
1545,1182,808,34.782,33.824,-0.0028,0.0036,9.7361,0.0756,-0.8125,0.1145
1550,1188,819,34.727,33.828,0.0054,0.0362,9.8099,-0.3763,0.001,0.4154
1555,1185,822,34.794,33.714,-0.0005,0.0538,9.7864,-0.8076,0.1376,0.4542
1560,1189,829,34.774,33.76,-0.0393,-0.0277,9.8097,0.3267,0.4781,0.071
1565,1188,843,34.771,33.849,-0.0515,-0.083,9.8232,0.6596,-0.161,-0.5094
1570,1191,854,34.767,33.701,-0.0003,-0.0291,9.9264,-0.083,-0.0085,1.1751
1575,1192,852,34.703,33.736,0.0361,-0.1338,9.7114,-0.3993,-0.2143,0.5144
1580,1185,862,34.845,33.751,0.0587,-0.0244,9.9247,0.1088,1.3194,0.8158
1585,1180,871,34.78,33.698,0.0465,0.0082,9.8449,-0.692,1.1054,0.2394
1590,1176,876,34.811,33.702,-0.081,-0.0647,9.8196,0.8608,0.4797,0.2566
1595,1178,878,34.749,33.863,0.0466,-0.1051,9.8847,0.2206,-0.1758,0.5353
1600,1178,886,34.834,33.757,-0.0312,0.0031,9.8031,0.0459,0.6325,0.5846
1605,1173,886,34.758,33.753,0.0274,-0.1026,9.8556,0.088,-0.8434,0.2182
1610,1174,904,34.846,33.788,-0.0262,0.0297,9.7566,0.0899,0.516,-0.9804
1615,1165,902,34.742,33.764,-0.005,0.1124,9.8038,0.2302,0.0767,-0.3081
1620,1160,904,34.754,33.736,0.0138,0.0336,9.8271,-0.3105,-0.6226,-0.4278
1625,1158,906,34.889,33.781,0.0602,0.0008,9.8039,0.3104,-0.299,-0.2498
1630,1167,912,34.82,33.695,-0.0044,-0.0413,9.725,-0.1409,0.1854,0.028
1635,1161,909,34.844,33.737,0.0142,-0.0237,9.7675,-0.3005,0.2489,0.6989
1640,1145,917,34.722,33.799,0.0262,-0.0236,9.8042,-0.085,-0.2265,-0.2552
1645,1149,915,34.872,33.771,-0.0186,-0.0224,9.8243,0.2963,-0.2687,-0.0196
1650,1143,922,34.817,33.793,0.1063,0.1098,9.8598,0.7624,-1.0578,0.4296
1655,1144,922,34.85,33.846,-0.0468,-0.1158,9.7973,-0.0648,-1.1485,0.2289
1660,1125,920,34.852,33.748,-0.0378,-0.0717,9.8827,-0.58,-0.0347,0.1207
1665,1132,918,34.791,33.737,0.022,0.0269,9.7804,-0.4007,0.1888,-0.7524
1670,1126,919,34.886,33.745,-0.0546,0.0161,9.8917,-0.5879,-0.767,-0.2843
1675,1127,923,34.836,33.764,0.0553,-0.014,9.8616,-0.1977,-0.0597,-0.4414
1680,1124,918,34.792,33.824,0.0192,0.0874,9.7846,0.1262,-0.2033,-0.0498
1685,1127,918,34.777,33.712,0.0232,-0.0161,9.7672,-0.1165,-0.6199,0.3603
1690,1115,919,34.861,33.786,-0.0617,0.0557,9.8485,0.3285,0.9026,0.1537
1695,1119,920,34.799,33.787,-0.0259,0.0236,9.7753,-0.3948,0.4567,-0.2963
1700,1116,913,34.821,33.797,0.0079,0.0053,9.8255,-1.3944,0.1246,-0.658
1705,1112,917,34.823,33.852,0.0084,-0.0608,9.8147,0.2983,-0.5526,0.2895
1710,1106,912,34.859,33.722,-0.0154,0.0469,9.7707,0.7365,-0.6541,-0.169
1715,1102,916,34.738,33.802,-0.0463,-0.014,9.7854,0.4893,0.1038,-0.0587
1720,1111,907,34.84,33.751,-0.0509,0.0326,9.8834,-0.1867,-1.0327,-0.8447
1725,1097,909,34.822,33.699,0.0393,-0.04,9.7795,-0.284,-0.4193,-0.0375
1730,1087,909,34.822,33.843,0.0444,0.138,9.683,0.2445,0.3028,-0.246
1735,1085,903,34.766,33.756,-0.0055,0.0408,9.7863,0.4096,-0.3844,0.1874
1740,1092,895,34.835,33.784,0.0085,-0.005,9.8142,-0.0849,0.5193,-0.0777
1745,1088,892,34.822,33.766,0.0467,-0.0643,9.8384,0.3562,0.2304,-0.0651
1750,1083,901,34.838,33.852,0.0375,-0.0152,9.8231,-0.0301,0.9598,-0.444
1755,1080,890,34.873,33.798,-0.0568,-0.0052,9.8737,0.5071,-0.3722,-0.0029
1760,1087,894,34.851,33.733,-0.0118,0.0451,9.8069,-0.7015,0.2367,-0.4971
1765,1085,892,34.856,33.886,-0.0631,0.0146,9.8479,0.3057,0.9734,0.301
1770,1062,884,34.8,33.859,-0.0684,-0.0534,9.8957,0.3257,-0.1327,-0.6077
1775,1081,886,34.839,33.727,-0.0024,0.0394,9.7687,0.1118,0.1799,0.0202
1780,1058,879,34.807,33.781,0.0125,-0.1129,9.7856,0.0975,-0.4569,-0.179
1785,1068,875,34.833,33.733,-0.1,-0.0186,9.8287,-0.6097,-0.3141,0.0407
1790,1065,877,34.774,33.759,0.0423,0.0071,9.7998,0.1583,1.0419,0.1433
1795,1056,879,34.891,33.845,-0.0477,0.0727,9.7629,0.017,0.1597,0.1722
1800,1061,874,34.826,33.842,0.0804,0.0331,9.7468,-0.3064,0.2631,0.7952
1805,1047,874,34.809,33.74,-0.043,-0.0045,9.7392,-0.2266,0.2947,0.4434
1810,1050,861,34.874,33.861,0.0025,-0.0739,9.8202,-0.6417,-0.2658,-0.6385
1815,1037,867,34.745,33.83,-0.0387,-0.0172,9.8653,0.0623,-0.5846,0.6231
1820,1027,864,34.879,33.773,-0.0031,-0.0147,9.783,0.2636,0.1865,-0.092
1825,1032,862,34.816,33.688,0.0357,0.0726,9.7827,0.1014,0.5563,0.5777
1830,1020,864,34.796,33.748,-0.056,0.0169,9.8848,-0.8,-0.0566,-0.4282
1835,1019,863,34.861,33.727,-0.0412,-0.0263,9.7775,-0.1972,0.7422,-0.3319
1840,1002,861,34.713,33.739,-0.0371,0.0231,9.8085,-0.1547,0.3842,-0.1183
1845,1004,858,34.839,33.761,0.0301,-0.0164,9.8596,0.2176,-0.2151,-0.492
1850,992,860,34.765,33.782,-0.0066,-0.0117,9.8712,-0.4063,0.0263,-0.5067
1855,988,858,34.823,33.835,0.0087,-0.035,9.7287,-0.5478,0.0288,0.2103
1860,986,858,34.783,33.807,0.0689,-0.004,9.8873,0.0411,-0.468,0.18
1865,972,849,34.819,33.847,0.0832,0.0342,9.7824,-1.0727,-0.8342,-0.2366
1870,962,849,34.934,33.81,-0.0116,-0.0379,9.816,-0.291,-0.7023,-0.0382
1875,959,852,34.842,33.807,0.0288,0.0569,9.8058,-0.9983,0.2714,0.2635
1880,935,849,34.83,33.902,0.1231,0.0248,9.8697,-0.637,-0.3022,0.1061
1885,943,843,34.902,33.805,-0.0565,0.0009,9.8989,1.0702,0.4603,0.8328
1890,923,837,34.743,33.786,-0.0543,-0.0538,9.8618,0.5584,-0.5271,-0.0743
1895,913,841,34.8,33.796,0.0174,0.0463,9.7539,-0.2891,-0.1093,-1.2162
1900,901,836,34.874,33.837,-0.0539,-0.009,9.7514,-0.3359,-0.4995,0.5468
1905,895,836,34.785,33.717,-0.0131,-0.0888,9.8225,-0.3442,-0.4755,0.7917
1910,884,834,34.851,33.737,-0.028,0.0082,9.8253,-0.6807,0.2895,-0.0655
1915,886,830,34.832,33.773,-0.0222,0.0499,9.7361,-0.3475,0.0508,-0.8944
1920,866,829,34.758,33.82,-0.0037,-0.0316,9.8405,-1.3776,0.1542,0.9219
1925,855,820,34.707,33.764,0.0442,-0.0213,9.7918,-0.1689,1.5017,-0.2294
1930,846,815,34.831,33.792,-0.0096,-0.0089,9.8514,-0.1005,-0.3715,0.1929
1935,833,807,34.85,33.834,0.0443,0.0361,9.7698,-0.5982,-0.5748,-0.2428
1940,823,813,34.789,33.782,-0.0147,0.0515,9.7834,0.2103,0.026,0.4215
1945,815,802,34.742,33.801,0.0377,0.0587,9.7659,-1.1413,0.3753,-0.0127
1950,801,797,34.898,33.754,-0.0277,-0.0157,9.8008,0.1806,-0.4533,-0.4258
1955,794,801,34.781,33.673,-0.0059,-0.0423,9.8185,0.0882,-0.8775,0.1904
1960,798,794,34.838,33.853,0.0228,-0.0109,9.9176,-0.5788,0.3575,-0.4016
1965,796,786,34.72,33.798,0.0523,-0.0904,9.7897,0.4667,-0.6612,-0.2191
1970,787,780,34.743,33.686,-0.0027,0.0618,9.7812,-0.1379,0.8737,-0.24
1975,774,776,34.75,33.756,0.0324,0.0568,9.7309,0.3848,-0.0286,-0.1312
1980,769,771,34.907,33.727,-0.0344,0.0985,9.78,-1.0583,-0.4863,-0.5556
1985,763,766,34.735,33.746,-0.0242,0.0463,9.808,-0.651,0.2345,0.3013
1990,754,759,34.731,33.874,0.0096,-0.008,9.9005,-0.1977,-0.6187,0.2026
1995,761,750,34.834,33.797,-0.0485,-0.0404,9.8447,-0.2536,-0.645,-0.7656
2000,745,751,34.819,33.743,0.0723,0.0487,9.7817,1.05,-0.1221,0.6702
2005,751,736,34.811,33.782,-0.0276,-0.0043,9.7354,0.6585,-1.1053,-0.6071
2009,751,736,34.806,33.742,-0.0017,0.039,9.8027,0.0233,-0.3245,-1.0087
2015,752,724,34.8,33.749,-0.0373,-0.0068,9.8349,-0.0454,-0.6207,-0.0825
2020,748,721,34.827,33.781,-0.0427,0.0462,9.8102,0.6761,0.2458,-0.9239
2025,746,716,34.862,33.919,-0.0192,-0.1077,9.8568,-0.92,0.4907,0.502
2029,750,709,34.821,33.713,-0.1314,0.0178,9.8858,1.2657,0.0206,0.2249
2035,754,708,34.778,33.777,-0.0453,0.0135,9.9245,0.4156,-0.4351,0.2864
2040,759,695,34.819,33.791,0.0126,0.0339,9.8227,0.88,0.3312,-0.0747
2045,755,684,34.87,33.861,-0.0725,-0.0448,9.8188,-0.0285,-0.0455,1.1393
2050,765,685,34.858,33.776,-0.0385,-0.076,9.7785,0.3235,0.0585,-0.9539
2055,775,679,34.89,33.747,-0.0384,-0.0384,9.7707,-0.8437,0.014,-0.1293
2060,781,675,34.896,33.793,0.0848,-0.0432,9.7877,0.0762,-0.7142,-0.316
2065,782,668,34.904,33.878,-0.0481,-0.0184,9.8901,-0.4325,0.7276,-0.2421
2070,789,661,34.874,33.799,-0.0471,-0.0395,9.7681,-1.1551,-0.4832,0.1255
2075,800,657,34.794,33.797,-0.0068,0.0512,9.7715,-0.0613,0.187,-0.0779
2080,806,655,34.791,33.802,-0.0104,0.0325,9.863,0.0305,-0.6876,0.0471
2085,822,658,34.811,33.782,-0.0117,0.0214,9.8111,-0.8606,-0.8257,-0.2308
2090,830,651,34.833,33.82,-0.027,0.0336,9.8375,-0.3746,-0.4832,0.7799
2095,839,641,34.846,33.834,0.0119,0.0225,9.7474,0.296,0.1225,-0.3277
2100,852,649,34.821,33.831,0.0592,-0.0167,9.7173,0.3316,-0.7278,-0.8577
2105,871,641,34.768,33.773,0.0597,0.0982,9.7653,0.916,-0.4851,0.4408
2110,878,637,34.842,33.804,0.0599,-0.0573,9.7882,0.0644,0.4159,0.7003
2115,889,632,34.795,33.801,-0.037,0.0049,9.813,-0.342,-0.1565,-0.0287
2120,901,632,34.868,33.765,0.0451,-0.0688,9.8077,-1.0069,1.3181,1.2941
2125,912,636,34.764,33.776,0.0093,-0.0685,9.8341,-0.1275,0.4533,-0.581
2130,929,639,34.825,33.822,-0.1288,-0.0217,9.7741,0.2789,1.0819,-0.2878
2135,942,637,34.829,33.856,-0.1129,-0.0723,9.7447,-0.6479,0.6641,0.7067
2140,959,638,34.825,33.737,-0.0234,-0.0866,9.7206,-0.7638,-0.3526,-0.6268
2145,966,644,34.788,33.735,-0.0672,0.0276,9.8454,0.8769,-0.7111,0.138
2150,971,640,34.79,33.747,-0.0312,0.0525,9.803,0.0079,1.1104,0.85
2155,1004,646,34.818,33.837,0.0588,-0.0123,9.8575,0.1437,-0.0765,0.4544
2160,1006,653,34.864,33.776,-0.0068,-0.0315,9.8021,-0.5478,-0.8452,-0.6456
2165,1012,652,34.83,33.71,0.0323,0.0253,9.7251,1.0351,0.5526,-0.14
2170,1036,658,34.833,33.676,0.0017,0.0237,9.8065,0.173,0.6902,-0.1126
2175,1054,663,34.88,33.731,-0.0441,-0.0861,9.7444,0.5738,0.0526,0.492
2180,1062,671,34.806,33.815,-0.0242,-0.0185,9.8448,0.7309,0.5124,-0.362
2185,1076,676,34.815,33.691,-0.068,0.0192,9.8008,0.1956,0.5545,-0.1234
2190,1088,678,34.726,33.781,-0.0183,0.0497,9.8455,-0.2059,0.5474,0.9458
2195,1089,695,34.87,33.772,0.0022,-0.0153,9.7759,0.4805,0.4988,-0.902
2200,1113,693,34.846,33.847,-0.0447,-0.0042,9.7916,-0.4633,0.1259,0.4922
2205,1106,702,34.758,33.813,-0.0342,-0.041,9.7855,0.2934,-0.418,0.592
2210,1121,709,34.853,33.741,0.0644,0.0178,9.7771,0.48,-0.4839,-0.7194
2215,1129,719,34.754,33.731,0.0243,0.0423,9.8636,0.22,0.3186,0.4007
2220,1138,725,34.832,33.678,-0.0308,-0.033,9.8391,-0.2865,-0.7858,-0.4281
2225,1147,730,34.772,33.691,0.0168,0.002,9.8395,0.3881,0.4915,1.0943
2230,1148,742,34.862,33.802,-0.0269,-0.0342,9.7301,-0.1958,-0.5042,0.5274
2235,1150,745,34.86,33.842,0.102,0.0729,9.8125,0.004,0.2207,-0.5612
2240,1157,762,34.809,33.733,-0.0192,0.0239,9.6795,-0.3405,0.2582,0.6473
2245,1167,766,34.852,33.873,0.0116,0.0721,9.7437,0.1171,-0.0407,-0.4102
2250,1170,779,34.856,33.885,-0.0273,0.0919,9.786,0.266,0.1314,-1.0336
2255,1183,786,34.831,33.694,0.019,-0.0651,9.9106,-0.5379,-0.3248,0.2313
2260,1186,796,34.793,33.774,0.0062,-0.0765,9.8368,-1.0598,-0.032,-0.4842
2265,1190,803,34.907,33.776,-0.0106,0.087,9.813,-0.2118,-0.4913,0.4952
2270,1188,816,34.82,33.737,0.0164,0.0647,9.7897,0.0253,0.4961,-1.0595
2275,1192,814,34.853,33.752,0.0083,0.0067,9.7766,0.4888,-0.3128,0.2932
2280,1187,830,34.825,33.82,0.1197,-0.0931,9.8329,0.0289,-0.0488,-0.3813
2285,1191,830,34.828,33.768,0.0336,0.0193,9.8376,-0.2089,-0.0969,0.3086
2290,1187,844,34.837,33.814,0.0217,-0.0139,9.7656,-0.2672,-0.466,-0.3517
2295,1185,853,34.895,33.701,0.0437,-0.0513,9.8139,-1.076,0.1576,0.0978
2300,1189,855,34.798,33.87,-0.0191,-0.0236,9.8406,-0.0352,-0.1735,0.1708
2305,1188,864,34.749,33.756,0.022,0.0356,9.747,-0.9592,0.3266,0.7114
2310,1181,872,34.83,33.799,0.0117,-0.0012,9.839,-0.8911,-0.81,-0.9238
2315,1178,875,34.883,33.776,-0.0013,-0.0873,9.783,-0.2064,-1.1796,0.3686
2320,1174,883,34.805,33.767,-0.0262,0.03,9.8084,-0.6765,0.9854,-0.3621
2325,1172,883,34.731,33.743,-0.0198,0.0186,9.8104,0.6007,-0.6291,0.3846
2330,1176,891,34.816,33.727,-0.0099,-0.0478,9.8808,0.1281,-0.188,-0.188
2335,1166,896,34.736,33.792,-0.0152,0.0207,9.7589,0.0631,0.7188,0.092
2340,1172,901,34.866,33.825,-0.0147,-0.011,9.8421,-0.0132,-0.3285,-0.0223
2345,1160,906,34.832,33.747,0.0442,0.0416,9.8365,-0.9784,-0.2314,-0.2862
2350,1158,907,34.833,33.786,0.0196,-0.0095,9.7984,0.1911,0.5899,0.0507
2355,1153,910,34.777,33.728,0.1227,0.0414,9.8616,-0.1863,-0.8244,-0.1456
2360,1161,914,34.839,33.841,0.0024,-0.0584,9.8744,0.3218,0.7052,0.0568
2365,1142,916,34.816,33.827,-0.0377,0.0111,9.7382,0.0348,0.0593,1.2198
2370,1141,917,34.889,33.842,-0.0016,0.0939,9.8066,-0.1213,0.3507,-0.3338
2375,1145,922,34.817,33.758,0.009,-0.0286,9.7786,0.365,-0.2189,-0.6454
2380,1136,919,34.747,33.751,0.0158,0.0103,9.8378,-0.1195,0.2564,0.6278
2385,1131,924,34.733,33.725,-0.0202,-0.0756,9.8778,-0.5298,-0.4703,0.0052
2390,1122,925,34.865,33.772,0.0249,0.0594,9.7166,0.2659,0.2344,-0.1048
2395,1131,922,34.888,33.783,0.0465,-0.114,9.901,0.3061,0.1032,-0.172
2400,1132,924,34.951,33.831,-0.0083,0.0514,9.7528,0.3646,0.8766,0.376
2405,1126,922,34.725,33.755,0.0293,0.0288,9.8703,0.4325,0.6217,-0.3247
2410,1120,916,34.779,33.76,0.0687,-0.0808,9.7961,-0.6963,0.8906,-0.2152
2415,1121,914,34.779,33.779,-0.0604,-0.0092,9.8288,0.7856,0.896,-0.2318
2420,1112,922,34.769,33.838,-0.0117,-0.0371,9.717,-0.51,0.3562,0.3793
2425,1117,915,34.832,33.776,0.0831,-0.0964,9.739,-0.6143,0.3008,0.6696
2430,1100,913,34.809,33.874,0.0003,-0.0286,9.8802,0.3814,-0.1514,0.5131
2435,1103,911,34.764,33.833,-0.0107,0.0045,9.9129,-0.7852,-0.6463,0.5614
2440,1105,914,34.839,33.827,-0.0364,0.0031,9.8641,-0.5199,-0.2671,-0.3135
2445,1109,910,34.881,33.717,0.079,-0.0866,9.8263,0.1548,-0.2636,1.0682
2450,1091,911,34.801,33.803,0.0306,-0.0425,9.8368,0.0939,0.3623,-0.4747
2455,1095,907,34.848,33.794,0.0553,-0.0082,9.7378,-0.0952,0.2713,-0.8278
2460,1095,903,34.897,33.708,-0.0933,0.0892,9.7793,-0.4535,0.3968,0.5718
2465,1088,903,34.909,33.74,0.008,0.0137,9.7614,0.8181,-0.0585,0.386
2470,1097,899,34.859,33.758,-0.0251,0.0153,9.7517,0.0552,-0.2313,0.5419
2475,1082,894,34.824,33.706,0.0189,-0.0289,9.8257,0.2594,-0.6131,-0.0046
2480,1087,894,34.851,33.788,-0.1154,0.0405,9.7147,0.3604,0.002,-0.7594
2485,1078,892,34.857,33.776,0.0398,-0.015,9.7937,-0.1553,-0.0307,0.2943
2490,1080,888,34.789,33.743,-0.027,0.0123,9.6868,-0.9887,0.3703,-0.5187
2495,1069,888,34.757,33.771,-0.0402,-0.1153,9.7492,-1.1399,0.0257,-0.1056
2500,1073,884,34.792,33.892,0.0382,0.0021,9.8341,0.06,-0.3205,0.2872
2505,1066,876,34.831,33.738,0.0371,0.0397,9.8372,0.6937,-0.0175,0.1793
2510,1067,882,34.788,33.761,-0.0382,0.071,9.7758,-0.5164,0.7376,-0.1035
2515,1064,875,34.886,33.772,-0.023,0.0265,9.8105,0.0192,0.5674,-0.2978
2520,1051,878,34.845,33.777,-0.0283,-0.0064,9.8121,-0.6793,-0.6131,-0.5802
2525,1055,872,34.889,33.815,-0.0626,-0.0277,9.7365,0.4805,-0.4303,0.3728
2530,1047,871,34.799,33.791,0.0047,-0.0326,9.9449,0.8614,0.0626,-0.3551
2535,1043,870,34.901,33.793,-0.0183,-0.0349,9.8112,0.4371,-0.2851,0.0431
2540,1042,868,34.786,33.782,0.0062,0.0064,9.7835,0.4065,-0.3393,0.3959
2545,1028,866,34.737,33.841,-0.0418,-0.0332,9.8036,0.4193,0.3278,-1.3949
2550,1021,867,34.794,33.813,-0.032,-0.0256,9.7917,0.2298,-0.8278,0.2767
2555,1034,865,34.86,33.742,0.0162,-0.0766,9.766,0.7714,0.1361,-0.0312
2560,1017,864,34.755,33.804,-0.0056,-0.0369,9.8732,0.2998,-0.0485,0.5738
2565,1012,861,34.861,33.699,-0.034,0.0625,9.77,-0.5948,0.0499,-0.1427
2570,997,856,34.82,33.753,0.088,-0.0521,9.813,0.2178,0.5255,-0.3403
2575,995,860,34.809,33.809,0.0155,0.0417,9.8143,-0.3834,-0.1622,0.2126
2580,997,857,34.858,33.803,0.0657,-0.0483,9.8628,-0.582,-0.1654,0.2201
2585,979,851,34.952,33.78,-0.0584,0.0218,9.8243,0.2242,0.3032,0.1083
2590,976,850,34.782,33.784,-0.0166,-0.0539,9.8313,-1.0451,-0.1729,0.3754
2595,965,853,34.85,33.812,-0.0178,0.0236,9.8109,0.1371,1.4353,0.3203
2600,940,852,34.833,33.757,0.0059,-0.0271,9.7993,0.2043,-0.1251,-0.4993
2605,932,848,34.817,33.821,0.0658,0.0601,9.7038,-0.4238,-0.2045,0.2328
2610,933,842,34.775,33.746,0.0013,0.0055,9.7172,-0.6822,0.4385,-0.1028
2615,926,841,34.771,33.743,0.0471,-0.0203,9.7317,-0.6562,0.7519,-0.5336
2620,913,840,34.893,33.732,-0.0223,0.0324,9.8315,-0.9474,-0.0807,-0.3964
2625,904,838,34.826,33.736,0.0001,-0.0737,9.762,0.7079,-0.4721,-0.0431
2630,891,836,34.839,33.891,0.0231,-0.058,9.8256,0.4774,0.3861,0.2986
2635,880,823,34.877,33.742,-0.0475,0.0324,9.8171,-0.4215,0.6968,-0.0554
2640,873,828,34.823,33.699,-0.0267,0.0074,9.7922,0.3946,0.5632,-0.2906
2645,865,829,34.844,33.739,-0.0268,-0.0058,9.7398,0.4681,0.5992,-0.5859
2650,847,822,34.816,33.821,-0.0077,-0.0063,9.7985,0.1304,-0.0487,0.1736
2655,845,821,34.871,33.689,-0.1069,0.0176,9.9066,-0.2499,0.4588,0.2535
2660,832,813,34.836,33.755,-0.0201,0.0453,9.8205,0.8188,-0.14,-0.508
2665,828,814,34.825,33.763,-0.0085,0.0396,9.8855,-0.3426,-0.1346,0.0276
2670,818,805,34.757,33.769,-0.038,0.0149,9.7838,-0.0094,-0.192,0.1226
2675,812,801,34.882,33.676,0.0302,0.0162,9.8477,-0.1182,0.5604,-0.2952
2680,797,796,34.848,33.766,-0.0396,-0.0692,9.8079,0.4748,-0.0042,-0.4763
2685,796,793,34.832,33.783,-0.0243,-0.0003,9.8324,0.6035,0.0054,-0.457
2690,784,783,34.819,33.829,0.007,0.0509,9.7578,0.5395,-0.142,0.4284
2695,773,788,34.868,33.789,-0.0095,-0.0409,9.9079,-0.119,0.3403,1.0449
2700,779,778,34.851,33.84,0.0769,0.0771,9.814,0.1906,0.3401,-0.0195
2705,767,769,34.8,33.792,-0.0697,0.0826,9.8008,-0.4492,0.2487,-0.108
2710,759,762,34.925,33.717,0.0848,-0.0531,9.7524,0.0137,1.1783,0.4447
2715,754,763,34.751,33.803,0.0249,-0.0308,9.8159,0.0057,0.0419,-0.0766
2720,752,749,34.867,33.74,0.0857,0.0793,9.7963,-1.2815,0.0822,0.2401
2725,748,746,34.855,33.843,-0.0945,0.0705,9.8825,-0.0872,0.5948,-0.0575
2730,750,738,34.849,33.815,0.0323,0.0045,9.7867,-0.1292,0.4572,0.1546
2735,743,731,34.761,33.789,-0.0758,0.062,9.8264,0.6759,-0.0907,0.8211
2740,752,730,34.795,33.742,0.0074,0.0553,9.8048,-0.2464,-0.4468,0.4211
2745,751,721,34.817,33.661,-0.0231,-0.0212,9.8863,-0.0441,0.2238,-0.5599
2750,752,719,34.825,33.797,0.0358,-0.0551,9.84,-0.4321,-0.2967,-0.6804
2755,751,710,34.836,33.796,-0.0958,0.0689,9.8237,0.0393,-0.0836,0.3892
2760,752,699,34.71,33.76,0.0801,0.079,9.8347,0.0598,0.0729,0.2862
2765,757,694,34.801,33.774,-0.0099,0.0209,9.7545,-0.5934,0.0096,0.3369
2770,756,696,34.858,33.737,-0.0118,-0.0145,9.8098,-0.0885,-0.228,-0.696
2775,771,684,34.845,33.841,0.0811,-0.0129,9.8429,0.4218,-0.0382,0.0171
2780,768,673,34.862,33.807,0.0375,0.0788,9.8385,0.3358,0.6676,0.3955
2785,782,669,34.795,33.74,0.0149,-0.0315,9.786,0.4521,0.1136,-0.2469
2790,782,671,34.785,33.748,-0.1421,0.0115,9.7288,-0.3071,-0.6508,-0.6593
2795,791,668,34.858,33.773,-0.0532,-0.0361,9.8551,-0.6886,-0.1032,-0.7035
2800,803,659,34.86,33.703,0.0237,0.0955,9.7524,-1.3732,0.5416,-0.476
2805,811,657,34.861,33.797,-0.0036,0.0351,9.7743,-0.6337,-0.1269,0.1252
2810,824,651,34.874,33.705,-0.0875,-0.1057,9.8251,0.4705,0.291,-0.0552
2815,836,645,34.794,33.736,0.1123,-0.0054,9.7598,0.7363,-0.1849,0.1897
2820,841,640,34.815,33.695,-0.0697,-0.0381,9.8703,0.1438,0.0781,-1.0143
2825,847,644,34.763,33.827,0.042,0.0724,9.7192,0.326,0.396,0.4958
2830,856,643,34.844,33.736,0.0307,-0.0447,9.8662,0.351,-0.1283,-0.1125
2835,882,639,34.889,33.846,0.051,0.0335,9.8122,0.8225,-0.769,-0.2642
2840,886,637,34.775,33.86,-0.018,0.0535,9.8328,-0.4036,0.1504,-0.3153
2845,901,638,34.836,33.785,0.0392,0.0533,9.8413,-0.7212,0.6736,0.3148
2850,923,636,34.846,33.838,0.0131,0.0374,9.8672,-0.1832,-0.1904,-0.2651
2855,921,637,34.941,33.793,0.0212,0.0613,9.8643,-0.1217,-0.2342,-0.5499
2860,942,641,34.835,33.819,0.0172,-0.0298,9.7726,-0.5429,-0.2081,-0.3836
2865,956,641,34.779,33.851,-0.0167,-0.0714,9.737,0.687,-0.4387,-0.2528
2870,971,640,34.845,33.669,-0.0376,0.0338,9.773,-0.1496,-0.0175,-0.2085
2875,977,648,34.875,33.801,-0.0739,-0.0775,9.8618,-0.2467,0.0125,-0.0131
2880,997,639,34.843,33.807,0.0675,-0.0328,9.9067,0.7144,0.12,-0.2435
2885,1013,652,34.763,33.771,0.0335,-0.0149,9.803,0.581,-0.5034,-0.2036
2890,1022,655,34.896,33.811,-0.0342,0.0326,9.811,-0.8512,-0.5515,-1.0094
2895,1037,662,34.838,33.846,-0.0135,-0.0311,9.8192,-0.4899,0.2823,-0.5115
2900,1051,663,34.899,33.764,-0.0286,0.0255,9.7952,0.1082,0.7142,-0.1259
2905,1057,669,34.77,33.813,-0.0357,0.0404,9.7362,0.3831,-0.3798,-0.0021
2910,1060,676,34.782,33.817,0.0257,0.0117,9.7757,-0.2495,0.5449,0.0144
2915,1076,678,34.844,33.856,0.0829,-0.0606,9.8008,0.7275,0.1717,-0.5641
2920,1097,681,34.845,33.726,0.0769,0.009,9.7573,-0.8863,0.3018,-0.8772
2925,1098,694,34.824,33.762,-0.0246,-0.0218,9.7364,0.1542,0.8887,0.8397
2930,1124,697,34.863,33.855,0.0297,0.0423,9.8649,-0.6018,-1.2491,-0.7441
2935,1119,703,34.826,33.832,0.0026,-0.0369,9.7731,0.4804,-0.5912,-0.1493
2940,1129,722,34.836,33.696,-0.0472,-0.0214,9.8645,-0.4575,-0.7786,1.2248
2945,1144,723,34.944,33.867,-0.1165,-0.0085,9.7969,-0.8984,-0.141,1.3181
2950,1134,733,34.859,33.784,0.0372,0.0096,9.8057,0.5434,-0.31,0.2216
2955,1151,740,34.877,33.77,-0.018,0.025,9.8994,-0.6411,0.0692,-0.1961
2960,1154,749,34.753,33.759,-0.0008,-0.065,9.818,0.0619,-0.395,-0.4707
2965,1164,766,34.782,33.75,0.0344,-0.141,9.8102,0.3815,-0.2511,0.2499
2970,1169,768,34.775,33.777,-0.0852,0.0207,9.7573,0.6831,0.6237,-0.2057
2975,1180,776,34.892,33.752,0.0402,-0.0445,9.8282,0.9351,-0.2245,-0.3834
2980,1174,784,34.799,33.725,0.0071,0.1298,9.806,0.4911,-0.5178,0.1639
2985,1180,792,34.761,33.754,-0.012,0.0755,9.8032,-0.4923,-0.0696,-0.2003
2990,1184,796,34.815,33.765,-0.07,0.0361,9.8357,-0.3695,-0.3256,0.2489
2995,1185,809,34.897,33.754,-0.0454,0.108,9.7561,0.2729,0.3109,0.331
3000,1189,815,34.765,33.781,0.076,-0.1423,9.8051,-0.0908,0.0304,0.4533
3005,1192,830,34.769,33.821,-0.0451,0.0115,9.7126,-0.456,0.4009,0.1653
3010,1186,834,34.875,33.801,0.0141,0.0792,9.8188,0.8341,-0.4309,0.1186
3015,1188,838,34.858,33.819,-0.0779,-0.0306,9.7551,1.4264,-0.3344,-0.261
3020,1182,851,34.752,33.777,0.0266,0.0601,9.8388,0.5088,-0.4078,-1.0876
3025,1171,857,34.915,33.84,-0.0506,-0.0565,9.7771,-0.0783,0.2797,-0.8195
3030,1191,864,34.796,33.849,-0.0231,0.1342,9.7773,0.3724,-0.2558,0.9787
3035,1184,869,34.756,33.782,-0.0715,0.026,9.776,0.5024,0.2828,0.6546
3040,1185,878,34.854,33.834,0.0819,-0.0417,9.9144,-0.2091,-0.4387,-0.181
3045,1180,886,34.873,33.791,-0.0345,-0.046,9.7658,-0.619,-0.5792,-0.8464
3050,1179,887,34.855,33.841,-0.1487,-0.0259,9.7582,-0.0974,0.3647,-0.8478
3055,1169,894,34.832,33.764,-0.071,-0.0754,9.8484,0.1034,0.2444,0.053
3060,1173,897,34.92,33.88,0.0207,0.0259,9.8128,-0.1591,0.0229,0.5827
3065,1166,904,34.809,33.849,0.0291,0.0076,9.7885,-0.0862,-0.1262,-0.8498
3070,1166,905,34.767,33.844,-0.0456,-0.0871,9.8776,-0.8714,0.2288,0.2799
3075,1164,903,34.872,33.783,-0.0329,-0.1006,9.7917,0.0778,-0.1714,0.7662
3080,1157,911,34.83,33.853,0.0273,0.0196,9.7955,-0.4037,-0.9498,1.0206
3085,1148,910,34.808,33.714,-0.0484,0.0705,9.8477,0.1728,-0.2449,-0.4624
3090,1147,912,34.821,33.838,-0.0173,0.0569,9.7772,-0.0187,0.6157,0.1885
3095,1147,921,34.872,33.821,0.0409,0.0722,9.8422,0.3108,0.2262,-0.1423
3100,1144,925,34.779,33.793,0.0692,0.013,9.7818,1.171,-0.178,-0.3637
3105,1147,924,34.9,33.725,0.0225,-0.0369,9.8799,-0.0808,-0.931,-0.9244
3110,1131,923,34.765,33.807,0.0365,-0.1516,9.7487,0.5202,0.02,-0.2934
3115,1134,925,34.796,33.802,0.0286,-0.0232,9.8012,0.8173,-0.8376,-0.9737
3120,1119,920,34.92,33.831,-0.0449,-0.034,9.7871,0.3948,-0.6274,-0.4264
3125,1133,920,34.831,33.846,0.0029,-0.0317,9.8352,-0.117,-0.2668,0.1046
3130,1109,922,34.751,33.787,-0.0282,0.0512,9.6989,1.0116,-0.4391,-0.2578
3135,1111,922,34.83,33.754,0.0062,-0.0147,9.7407,-0.3685,0.3448,0.44
3140,1115,920,34.942,33.814,0.0584,0.0542,9.9189,0.4247,0.8351,0.5447
3145,1107,918,34.786,33.788,-0.0214,0.0017,9.9544,-0.2394,0.257,0.9912
3150,1109,915,34.789,33.767,0.0601,0.0007,9.7473,-0.2893,0.4905,0.4403
3155,1108,913,34.759,33.694,0.0166,-0.0552,9.7787,0.5676,0.398,1.3076
3160,1103,911,34.87,33.798,-0.1079,0.0097,9.8808,-0.6314,0.5544,-0.3253
3165,1100,911,34.787,33.779,0.1267,-0.0316,9.8263,-0.0084,0.4242,-0.3102
3170,1097,907,34.867,33.745,0.044,-0.0197,9.8214,-0.2979,0.0797,-0.8591
3175,1089,910,34.792,33.763,0.0237,-0.0544,9.7442,0.3459,-0.6651,0.4496
3180,1096,905,34.789,33.788,-0.0073,-0.0139,9.785,0.2871,0.9317,0.4617
3185,1091,903,34.892,33.762,-0.0021,0.0031,9.9283,0.2829,-0.295,0.2049
3190,1095,898,34.84,33.759,-0.0108,0.0173,9.8131,-0.3006,-0.0074,-0.3878
3195,1087,896,34.844,33.76,-0.0452,-0.0162,9.9142,0.2849,-0.0876,0.0843
3200,1081,892,34.855,33.77,-0.0025,0.0354,9.7911,-0.0542,-0.3162,-0.576
3205,1082,890,34.838,33.789,-0.0617,0.0009,9.8559,-0.1652,0.6967,-0.1952
3210,1079,885,34.887,33.842,0.081,0.0368,9.9244,-0.2077,-0.4491,0.411
3215,1079,889,34.812,33.739,0.0084,0.01,9.8929,0.2116,-1.0037,-0.469
3220,1082,887,34.882,33.832,-0.0223,0.0797,9.7099,0.8542,-0.5101,0.1839
3225,1073,889,34.789,33.782,-0.0402,-0.0262,9.8703,-0.0514,0.034,-0.0375
3230,1066,882,34.792,33.81,-0.1017,0.0969,9.8938,-0.4508,-0.2338,-0.4058
3235,1065,878,34.762,33.817,-0.0462,-0.004,9.7789,-1.2288,0.2621,-0.3152
3240,1055,875,34.773,33.733,-0.0974,0.0464,9.8358,-1.0153,0.4672,0.1939
3245,1059,880,34.831,33.789,0.1011,0.0376,9.8566,0.8552,-0.5088,-0.1193
3250,1054,871,34.785,33.891,-0.0012,0.0395,9.7452,-0.6664,0.5907,-0.5125
3255,1049,871,34.819,33.791,0.0566,-0.0304,9.8628,-0.2395,-0.1331,-0.097
3260,1048,869,34.785,33.76,-0.0284,-0.0232,9.8699,-0.0305,0.326,-0.0577
3265,1034,869,34.813,33.865,-0.0151,0.0086,9.8062,0.4348,-0.2367,-0.2052
3270,1040,868,34.832,33.778,-0.0074,-0.0516,9.7971,-0.7545,0.1443,0.4727
3275,1034,863,34.846,33.764,-0.06,-0.0027,9.8559,-1.2128,-0.1687,-0.7018
3280,1019,858,34.861,33.721,-0.0936,0.0877,9.8474,0.1442,0.1105,0.4285
3285,1008,861,34.76,33.695,-0.0045,0.0324,9.8136,0.4221,-0.1483,0.7411
3290,1011,861,34.91,33.751,-0.0039,-0.0513,9.8772,0.3171,-1.7183,-0.2917
3295,999,859,34.846,33.823,0.0094,-0.0909,9.8697,0.5963,0.067,0.7145
3300,988,856,34.784,33.72,-0.0697,-0.0331,9.7751,-0.4147,0.0416,-0.1121
3305,985,856,34.86,33.78,0.0179,0.031,9.816,-0.3881,-0.0146,-0.6341
3310,985,855,34.735,33.869,-0.0524,-0.009,9.8332,0.3076,0.1966,0.1077
3315,961,850,34.898,33.922,0.0639,0.0087,9.8272,-0.0129,0.3056,0.8735
3320,960,850,34.845,33.849,0.0168,0.0089,9.739,-0.278,0.7862,-0.8987
3325,948,851,34.909,33.776,0.0393,-0.0774,9.7757,-0.7397,-0.1158,-0.7492
3330,944,844,34.978,33.706,-0.001,-0.079,9.6823,-0.3021,-0.9776,-0.1023
3335,928,846,34.838,33.738,0.0481,0.0205,9.7158,-0.6506,-0.4234,0.5311
3340,915,838,34.801,33.741,0.0298,-0.0091,9.7722,0.215,-0.979,0.0726
3345,910,837,34.853,33.761,0.102,0.0207,9.8002,-1.1035,0.084,0.9769
3350,898,840,34.781,33.82,0.0841,-0.0673,9.8616,0.9182,0.6323,0.1493
3355,893,836,34.856,33.71,-0.0678,-0.0608,9.8108,-0.1029,-0.4366,0.2377
3360,888,835,34.778,33.815,-0.0103,0.0545,9.8891,0.2443,0.0365,0.0028
3365,872,832,34.899,33.749,0.0608,-0.0215,9.8489,0.6784,0.2854,-0.7391
3370,858,826,34.772,33.794,-0.1405,0.0142,9.7149,0.043,-0.0198,-0.0646
3375,847,824,34.848,33.805,0.0198,-0.0479,9.8513,-0.67,-0.1,0.3425
3380,834,815,34.767,33.832,0.0397,-0.0568,9.8191,-0.2832,0.4984,0.3303
3385,837,812,34.866,33.795,0.0022,0.0124,9.715,0.6846,0.5634,-0.7414
3390,829,813,34.8,33.792,-0.0993,-0.004,9.9094,0.1181,0.0911,0.2272
3395,817,808,34.837,33.751,0.0344,-0.004,9.8917,-0.1181,0.6829,-0.2564
3400,816,799,34.919,33.668,-0.0607,0.014,9.7457,-0.188,0.4796,-0.4065
3405,800,795,34.834,33.743,0.14,-0.0606,9.8174,-0.8506,0.2755,0.9422
3410,800,789,34.897,33.756,-0.0636,-0.0102,9.8067,-0.1937,0.0887,-0.184
3415,785,789,34.848,33.726,-0.0146,0.0882,9.8201,-1.0601,-0.4222,-0.1597
3420,782,779,34.924,33.728,-0.0092,-0.0056,9.8241,-0.1605,-0.7091,0.0404
3425,773,778,34.763,33.782,0.0015,0.0243,9.7651,-0.0888,0.7898,0.0979
3430,762,769,34.869,33.818,0.0391,-0.0425,9.8278,-0.4208,0.2025,0.2053
3435,763,763,34.791,33.807,-0.0093,0.0266,9.8628,1.1118,-0.6604,0.1288
3440,755,763,34.786,33.831,-0.0025,-0.1447,9.8238,0.4614,-0.4103,-0.4013
3445,749,752,34.838,33.741,0.0332,-0.057,9.7883,0.4523,0.5913,0.3544
3450,753,741,34.858,33.82,-0.0335,-0.0636,9.8393,0.9365,0.1363,-0.593
3455,744,740,34.821,33.71,0.044,0.0414,9.8657,0.4398,0.2796,-0.5865
3460,756,737,34.825,33.88,0.0024,-0.1342,9.9203,0.3892,0.1818,0.353
3465,747,725,34.746,33.791,-0.0302,0.0321,9.9168,-0.5187,-0.7611,-0.7397
3470,751,716,34.869,33.787,0.0714,0.1069,9.806,-0.5787,0.269,0.1046
3475,745,711,34.819,33.836,-0.0346,0.0144,9.837,0.0768,0.4771,-0.6077
3480,751,709,34.785,33.811,-0.0134,-0.032,9.8652,0.5954,-0.2055,1.0453
3485,758,704,34.904,33.721,-0.0134,-0.0583,9.812,0.6223,0.2943,-0.0573
3490,756,691,34.829,33.796,-0.02,-0.0012,9.7831,-0.0504,0.3567,0.3554
3495,760,689,34.923,33.732,0.0129,0.0289,9.7605,0.2269,-0.3175,-0.0974
3500,764,682,34.784,33.795,-0.0442,-0.0142,9.7982,-0.1812,1.1492,0.4994
3505,784,679,34.792,33.808,-0.0549,-0.1019,9.8909,0.6737,0.2893,-0.1381
3510,781,672,34.883,33.728,0.027,0.0487,9.8203,0.0733,-0.0701,-0.1409
3515,791,671,34.839,33.805,-0.0368,0.0038,9.8376,0.4467,-0.2666,0.3527
3520,795,661,34.78,33.804,-0.0329,-0.0124,9.7687,-0.0399,-0.5668,-0.3145
3525,803,659,34.868,33.781,0.0304,-0.0828,9.8842,1.0719,0.5116,-0.1583
3530,811,653,34.86,33.758,0.0027,0.0302,9.8635,0.1545,0.4451,-0.3192
3535,813,652,34.879,33.78,0.0387,0.0219,9.7942,0.3375,-0.4165,-0.6792
3540,833,646,34.818,33.831,-0.0863,-0.0671,9.8579,0.6896,0.15,0.9435
3545,841,644,34.85,33.76,0.0177,0.0234,9.8056,-0.101,1.1036,-0.0368
3550,844,640,34.836,33.861,-0.0124,-0.0116,9.7394,0.3278,-0.3417,-0.1358
3555,868,640,34.76,33.767,-0.0127,0.0227,9.8149,-0.5144,0.0143,-0.4665
3560,882,635,34.874,33.821,0.046,0.0712,9.7951,0.2903,0.3598,0.7454
3565,891,629,34.871,33.816,0.0358,-0.0056,9.7947,0.9739,-0.8943,0.2595
3570,900,637,34.87,33.832,-0.0058,0.0288,9.8195,-0.2811,0.8515,0.2414
3575,916,635,34.841,33.739,0.0065,0.1543,9.7492,-0.5326,0.2967,1.2433
3580,919,636,34.848,33.874,-0.0979,-0.0212,9.8222,0.2811,0.6236,0.2513
3585,939,635,34.853,33.736,-0.025,-0.0142,9.8255,0.119,0.5654,-0.1118
3590,968,643,34.827,33.872,0.0118,-0.038,9.7224,-0.2053,0.1979,0.5078
3595,975,642,34.823,33.701,0.0519,-0.0088,9.7626,0.0102,-0.3082,-0.2097
3600,986,645,34.752,33.793,-0.0017,0.0396,9.7488,-1.0696,0.5767,-1.2643
3605,992,651,34.868,33.794,0.0465,-0.0447,9.8459,-0.0321,-0.1717,1.1787
3610,1009,650,34.829,33.775,0.0155,-0.0349,9.8747,-0.4894,0.1422,0.3964
3615,1017,656,34.924,33.836,0.0233,-0.0034,9.8642,-0.8956,-0.6218,-0.4349
3620,1034,664,34.794,33.781,0.0744,0.0163,9.8162,-0.307,0.1886,-0.4933
3625,1040,662,34.875,33.747,-0.0075,0.015,9.8004,0.0125,0.275,0.0459
3630,1061,667,34.933,33.81,0.0126,-0.0867,9.7506,-0.8728,1.2287,0.0595
3635,1077,677,34.859,33.777,-0.0001,0.0479,9.7896,-0.1381,-0.1569,-0.2268
3640,1089,687,34.882,33.809,0.0091,-0.033,9.8596,0.2426,0.7322,-0.44
3645,1082,692,34.931,33.776,0.0194,-0.0606,9.8184,-0.892,-0.4351,-0.6017
3650,1100,695,34.806,33.696,-0.0479,0.0334,9.8124,-0.3153,-0.3782,0.4655
3655,1114,702,34.86,33.8,-0.0211,0.0565,9.7851,0.1791,-0.5384,0.0106
3660,1121,713,34.806,33.774,0.0184,0.0308,9.8657,-0.4283,-0.1693,0.384
3665,1134,715,34.751,33.721,0.0138,-0.0255,9.8288,-0.4587,0.0509,0.4623
3670,1145,723,34.846,33.763,-0.049,0.0168,9.8281,-0.283,-0.3781,0.2849
3675,1139,734,34.817,33.835,-0.0088,0.0516,9.7813,0.4097,0.4705,0.4798
3680,1142,740,34.873,33.887,-0.037,0.0164,9.7202,0.3413,0.332,-0.1331
3685,1151,751,34.857,33.74,-0.0473,0.0235,9.7824,0.6803,-0.0199,0.1607
3690,1160,759,34.769,33.77,-0.0363,-0.0129,9.8392,0.6496,-0.4501,-0.1966
3695,1172,763,34.853,33.799,0.0049,0.0098,9.807,0.189,0.2752,-0.4978
3700,1176,773,34.881,33.808,0.039,-0.0902,9.7932,0.3772,-0.5648,0.5444
3705,1171,789,34.765,33.811,0.0676,0.0624,9.7374,-0.1782,-0.249,0.1742
3710,1176,792,34.946,33.815,-0.0092,-0.0164,9.8603,-0.515,-0.1359,-0.0501
3715,1182,803,34.804,33.753,-0.0397,0.0172,9.8056,0.0972,-0.2501,-0.2369
3720,1179,812,34.794,33.875,-0.0179,-0.0878,9.7925,0.6673,-0.0021,1.1366
3725,1178,817,34.712,33.814,-0.1022,0.0912,9.7998,0.172,0.3309,0.5357
3730,1184,828,34.877,33.676,-0.0283,-0.0491,9.8443,-1.0228,0.1082,0.2099
3735,1185,834,34.807,33.875,0.0123,0.028,9.6993,-0.6463,-0.8625,0.0773
3740,1182,845,34.837,33.859,-0.0286,-0.1014,9.8435,-0.4268,0.4378,0.6242
3745,1183,844,34.815,33.838,-0.077,-0.036,9.8109,-1.155,-0.4413,-0.295
3750,1188,859,34.876,33.877,-0.0248,0.0121,9.809,0.0569,1.5113,-0.0733
3755,1173,862,34.879,33.822,-0.066,-0.0407,9.9018,0.8523,0.4714,-0.1725
3760,1186,872,34.83,33.779,0.0702,0.0603,9.738,0.0905,-0.5229,0.8395
3765,1186,877,34.916,33.84,0.0331,-0.0517,9.8442,-0.2176,-0.097,0.3786
3770,1176,881,34.837,33.832,-0.0314,0.0321,9.8373,0.5901,0.652,-0.0209
3775,1179,889,34.858,33.767,-0.0803,-0.0286,9.7745,-0.4822,-0.0215,1.2205
3780,1178,891,34.857,33.789,0.0649,-0.037,9.8109,0.29,-0.3595,0.3341
3785,1164,900,34.783,33.795,0.0059,-0.0161,9.8606,-0.1372,-0.4054,-0.1164
3790,1168,901,34.87,33.737,0.044,0.06,9.804,-0.1436,-0.0626,-0.6865
3795,1168,906,34.821,33.884,0.0504,0.0573,9.8726,-0.3734,0.1969,-1.1724
3800,1157,908,34.842,33.828,-0.042,-0.0558,9.8162,-0.1127,0.0218,-0.1412
3805,1153,913,34.785,33.881,0.0331,-0.0248,9.8431,-0.4502,0.6028,0.2748
3810,1149,914,34.882,33.77,0.0614,0.0072,9.7865,0.4401,0.8404,-0.5363
3815,1148,914,34.789,33.767,0.0408,-0.0061,9.7037,-0.4224,0.254,0.0216
3820,1144,920,34.8,33.719,-0.0543,0.0669,9.8395,0.353,-0.0739,-0.7579
3825,1142,920,34.8,33.87,0.0441,-0.0172,9.6964,-0.2164,1.0539,0.4002
3830,1133,928,34.867,33.807,-0.0447,-0.016,9.9163,0.5434,-0.6525,-0.4644
3835,1134,922,34.843,33.81,-0.0162,-0.0431,9.7931,0.3485,0.608,0.1249
3840,1134,923,34.839,33.783,-0.0319,0.0299,9.7561,0.2231,0.8055,0.0057
3845,1128,923,34.907,33.734,-0.0192,-0.046,9.7301,-0.3243,-0.1096,0.7149
3850,1120,921,34.746,33.751,-0.0391,0.0416,9.8055,0.8317,0.3203,-0.3812
3855,1123,921,34.882,33.777,-0.0428,0.117,9.7639,0.1294,0.3556,-0.5805
3860,1110,924,34.871,33.801,-0.0259,-0.0073,9.7811,0.4307,0.3535,0.311
3865,1110,918,34.85,33.761,-0.0513,-0.0404,9.7419,-0.1439,0.8802,0.0818
3870,1110,920,34.792,33.87,-0.0318,-0.0586,9.6311,-0.5368,-0.1879,0.5184
3875,1111,918,34.917,33.785,-0.0224,0.0948,9.8659,0.3929,0.1662,-0.1635
3880,1109,916,34.832,33.724,-0.005,0.0109,9.8476,-0.2397,0.0307,-0.1122
3885,1109,912,34.826,33.826,0.0468,-0.0155,9.8637,-1.1883,0.3847,0.9016
3890,1099,913,34.921,33.781,-0.0392,0.052,9.8307,0.3356,-0.017,0.4667
3895,1102,904,34.923,33.941,0.0715,-0.0311,9.8053,0.0249,0.3077,0.8511
3900,1095,902,34.839,33.745,0.0568,0.1384,9.832,-0.1944,0.3702,-0.2549
3905,1090,898,34.939,33.781,-0.088,0.0482,9.7927,0.8267,-0.3689,-0.669
3910,1092,901,34.839,33.827,0.0247,0.0502,9.8529,0.1561,0.0067,-0.7311
3915,1092,903,34.852,33.857,0.0265,-0.0804,9.702,0.4163,-0.6797,-0.2815
3920,1090,899,34.798,33.744,0.0364,-0.0411,9.8772,-0.0877,-0.1321,-0.2695
3925,1082,898,34.797,33.866,0.014,0.0189,9.7549,1.4187,0.6746,-0.3902
3930,1089,890,34.853,33.811,-0.0158,0.0444,9.8898,-0.0547,0.1756,0.7768
3935,1076,887,34.85,33.862,-0.0209,0.0326,9.8235,0.6125,-0.54,-0.0305
3940,1071,893,34.84,33.85,-0.06,0.008,9.8512,0.1306,-0.1948,0.7618
3945,1067,881,34.872,33.785,0.0443,0.0347,9.8649,0.0297,0.1151,-0.011
3950,1074,889,34.84,33.849,-0.0147,-0.0298,9.8441,0.3109,0.6657,-0.3884
3955,1069,876,34.883,33.824,-0.0639,0.0387,9.7032,-0.1849,-0.125,-0.2001
3960,1073,877,34.737,33.758,-0.0652,-0.0141,9.824,-0.2483,-0.005,0.9258
3965,1055,876,34.853,33.867,-0.0314,-0.0422,9.8569,-0.8015,0.7246,0.6811
3970,1054,870,34.815,33.786,0.0453,0.0056,9.7915,0.4123,0.3248,-0.6147
3975,1058,872,34.885,33.764,-0.0092,-0.0302,9.8246,-0.097,-0.2855,0.122
3980,1044,871,34.818,33.875,-0.0226,0.0171,9.8033,0.0067,-0.2941,-1.0586
3985,1033,872,34.938,33.87,0.0415,-0.0035,9.8614,-0.6256,-0.4175,-0.9756
3990,1036,863,34.8,33.753,0.059,-0.0577,9.8084,-0.0638,0.1756,0.1527
3995,1032,863,34.881,33.853,-0.0532,0.1012,9.7597,-0.0324,0.9061,0.2308
4000,1028,868,34.783,33.831,-0.0124,0.0147,9.8084,0.3402,0.1787,0.0877
4005,1008,864,34.823,33.895,-0.0365,-0.0325,9.8065,-0.2077,0.0116,0.4322
4010,1014,860,34.856,33.719,-0.0377,-0.0211,9.8261,-0.1682,0.7892,0.8981
4014,1000,856,34.76,33.776,0.0258,-0.0105,9.7797,-0.4471,-0.1673,-0.5484
4019,998,859,34.845,33.769,0.0494,-0.1088,9.8216,0.4375,0.0174,-0.076
4025,993,853,34.894,33.768,-0.0774,-0.0485,9.8923,0.336,-0.3028,0.2275
4030,989,851,34.837,33.871,-0.079,0.0166,9.7678,-0.4147,0.6347,-0.3396
4035,966,855,34.795,33.782,0.0858,-0.0412,9.7466,0.237,0.1681,-0.8081
4040,952,860,34.88,33.823,0.098,0.0067,9.7686,0.0713,-0.0047,-0.1991
4045,960,848,34.895,33.871,0.0081,-0.0428,9.7516,0.1612,-0.1488,0.8422
4050,953,850,34.976,33.804,0.0181,-0.0326,9.7518,0.186,0.0924,0.3174
4054,942,847,34.811,33.75,0.0478,0.0252,9.7997,0.9349,1.0534,0.0536
4059,926,843,34.86,33.837,-0.0733,0.0652,9.7805,0.5051,-0.526,-1.6945
4065,920,844,34.788,33.69,-0.0116,0.0118,9.8127,-0.1422,0.0877,-0.4704
4070,912,837,34.882,33.828,0.0048,-0.0869,9.8157,0.0829,0.4756,-1.2566
4075,907,840,34.837,33.825,-0.0033,-0.0577,9.7427,-0.1192,0.9017,0.4063
4080,902,836,34.913,33.84,-0.0193,0.0721,9.8156,-0.3174,0.2417,-0.2824
4085,887,830,34.778,33.87,0.0263,-0.0244,9.7488,0.0176,0.6754,-0.5376
4090,884,832,34.888,33.789,-0.0099,0.0139,9.832,0.125,-0.4423,0.5761
4094,853,828,34.851,33.842,-0.0143,-0.0056,9.7626,0.3693,0.1047,0.4927
4100,863,821,34.858,33.715,0.0283,0.0639,9.73,-1.0519,0.3138,-0.6107
4105,843,821,34.776,33.748,-0.0013,-0.0284,9.7797,0.1878,0.0425,-0.0028
4110,838,813,34.795,33.718,-0.0919,0.022,9.7877,-0.3701,-1.203,-0.3552
4115,823,810,34.929,33.707,-0.0073,-0.0083,9.8162,0.11,0.4203,0.6896
4120,811,807,34.826,33.692,-0.0775,-0.0187,9.8002,-0.0194,0.8756,0.1992
4125,811,802,34.838,33.825,0.0302,-0.0523,9.7761,0.3069,-0.0673,-0.5024
4130,797,794,34.761,33.843,0.0058,0.0348,9.8226,-0.6664,-0.7203,-0.1531
4135,788,796,34.845,33.756,0.0372,-0.0258,9.8455,-0.1762,0.3664,-0.7387
4140,791,780,34.829,33.821,0.0122,-0.0334,9.739,-0.8406,-0.6621,0.5291
4145,776,777,34.938,33.787,-0.0454,0.0014,9.8339,0.7258,0.2269,0.0114
4150,769,774,34.745,33.811,-0.0227,-0.0361,9.8152,-0.6354,-0.9982,-0.6882
4155,762,771,34.831,33.765,-0.045,-0.0036,9.9128,0.5609,0.5315,-0.1323
4160,762,763,34.9,33.809,0.0145,-0.0351,9.8144,-0.2225,0.2128,0.3012
4165,768,751,34.798,33.763,0.0236,-0.0913,9.7618,0.7151,-0.3047,-0.0416
4170,749,749,34.893,33.775,-0.0217,-0.0366,9.8837,0.703,0.2601,0.3297
4175,763,746,34.859,33.801,-0.0676,-0.0414,9.7705,-0.7947,-0.8908,0.1061
4180,740,738,34.822,33.89,0.04,-0.052,9.8083,0.0254,1.2722,0.3777
4185,746,732,34.834,33.781,0.096,0.0581,9.7627,-0.0864,0.5436,0.4083
4190,755,725,34.827,33.809,-0.0033,0.0506,9.7688,-0.1004,-0.3946,-0.8528
4195,748,717,34.822,33.736,-0.0547,-0.0111,9.8019,-0.4156,-0.0616,-0.0933
4200,751,716,34.864,33.807,0.015,0.0287,9.7139,0.5938,-0.1961,0.0675
4205,761,707,34.817,33.776,-0.0098,0.0305,9.7906,-0.0982,-0.454,0.1289
4210,748,700,34.933,33.678,-0.0304,-0.0643,9.8078,-0.5301,0.4241,0.8027
4215,762,695,34.876,33.803,-0.0233,0.1266,9.7934,0.2416,-0.0742,0.3505
4220,763,688,34.839,33.783,0.0533,0.0491,9.8804,-0.6579,-0.0352,0.6508
4225,765,685,34.831,33.765,-0.0885,0.0076,9.8339,-0.1306,-0.2171,0.2919
4230,782,675,34.786,33.866,0.0116,-0.0092,9.8778,0.338,0.3525,-0.2364
4235,777,673,34.836,33.818,-0.035,0.0112,9.7888,-0.5044,-0.1376,0.5393
4240,787,669,34.868,33.769,-0.008,0.0509,9.8081,-0.6212,0.6973,-0.2347
4245,794,660,34.876,33.78,0.0018,-0.0626,9.8418,0.2416,-0.1793,-0.0396
4250,798,655,34.841,33.858,0.0082,-0.0269,9.7758,0.478,-0.0994,0.4228
4255,811,654,34.843,33.803,-0.0375,0.0977,9.8358,-0.1362,-0.2045,0.257
4260,828,643,34.797,33.765,-0.0789,0.0632,9.8167,0.7782,0.4038,0.0427
4265,833,649,34.823,33.875,-0.013,0.0215,9.7439,-0.3267,-0.9581,0.5119
4270,842,644,34.894,33.741,-0.0304,-0.0333,9.8034,-0.4024,-0.1726,-0.0706
4275,855,641,34.834,33.855,-0.0072,-0.0423,9.7888,-0.3852,0.1629,-0.4292
4280,866,633,34.82,33.761,0.0064,-0.0055,9.7961,-0.1261,-0.2298,0.277
4285,866,638,34.931,33.825,0.0632,0.0007,9.757,0.2072,0.3094,-0.5831
4290,890,635,34.896,33.81,-0.0432,0.0274,9.7255,-0.0128,1.035,0.3128
4295,907,639,34.787,33.8,-0.0859,0.0606,9.8387,-0.532,0.5862,-0.4724
4300,921,639,34.781,33.833,0.0068,-0.0097,9.7976,-0.9851,0.5076,-0.1426
4305,931,638,34.81,33.856,-0.0156,0.0312,9.828,0.5893,0.7162,-0.2655
4310,940,643,34.848,33.822,0.036,-0.1078,9.8541,-0.563,-0.4581,-0.667
4315,955,637,34.909,33.86,0.0429,0.0516,9.8195,0.9812,0.3886,-0.1701
4320,969,644,34.767,33.839,0.0367,0.0232,9.7969,0.2056,-0.0676,-0.6287
4325,984,642,34.839,33.807,0.0094,-0.0484,9.7373,0.1219,0.0783,-0.0639
4330,998,649,34.821,33.906,0.0348,0.0992,9.7536,0.3956,0.3372,-0.0284
4335,1008,649,34.742,33.77,0.0714,0.0487,9.8849,-0.3453,0.8696,0.0114
4340,1016,655,34.884,33.828,-0.0195,0.0729,9.7628,0.5245,-0.3747,-0.4442
4345,1027,663,34.958,33.842,-0.0368,-0.0417,9.8262,0.4377,0.3252,0.1577
4350,1050,662,34.88,33.84,-0.0398,-0.0362,9.8306,-0.4464,0.0044,-1.0809
4355,1059,666,34.774,33.792,0.0322,-0.0386,9.7626,-0.6935,-0.632,1.0162
4360,1071,673,34.752,33.788,-0.0437,0.0077,9.7519,-1.0449,0.2335,-0.007
4365,1090,683,34.827,33.841,0.0162,0.0262,9.7488,0.3465,-0.1353,0.6111
4370,1094,689,34.846,33.807,0.0377,-0.0691,9.7774,-1.0355,-0.0019,0.9254
4375,1099,698,34.824,33.772,-0.0043,0.0085,9.8461,0.1262,0.1409,-0.67
4380,1120,704,34.78,33.741,-0.0075,-0.018,9.7759,0.663,0.507,0.7846
4385,1126,710,34.819,33.813,-0.0331,-0.0052,9.823,-0.2166,0.0095,0.4883
4390,1125,723,34.818,33.738,0.0627,-0.0412,9.7208,0.3998,-0.0408,-0.64
4395,1129,723,34.861,33.874,-0.0452,-0.0099,9.8267,-0.6113,-0.7226,-0.3097
4400,1151,732,34.816,33.82,-0.0567,0.0041,9.7478,1.5403,0.0072,-0.0966
4405,1157,746,34.965,33.774,-0.0141,0.0155,9.9158,-0.2664,0.173,-0.3865
4410,1166,751,34.826,33.88,0.0517,0.0082,9.7307,-0.4751,0.2465,-0.7138
4415,1157,762,34.848,33.82,0.0072,-0.0023,9.808,0.697,-0.0272,-0.0193
4420,1168,765,34.924,33.789,0.0421,-0.0055,9.9159,0.0519,0.7773,-0.4447
4425,1184,774,34.903,33.838,0.0129,0.067,9.7524,0.0203,-0.0696,0.2202
4430,1175,786,34.806,33.762,0.0573,-0.0175,9.7331,0.2467,0.4,0.4125
4435,1179,790,34.837,33.813,-0.0439,0.0434,9.7546,0.2084,0.315,-0.4473
4440,1180,804,34.777,33.819,0.0143,0.068,9.8765,0.6414,-0.3782,-0.9852
4445,1188,806,34.941,33.779,-0.1043,-0.0521,9.8191,-0.0718,-0.3528,0.1691
4450,1190,815,34.949,33.784,-0.0134,-0.0232,9.8108,0.1366,-0.9441,0.1075
4455,1193,831,34.919,33.79,-0.0166,-0.021,9.8229,0.5724,0.0103,0.3596
4460,1194,839,34.77,33.776,0.0571,-0.0908,9.8119,-0.4949,0.3258,-0.6965
4465,1183,844,34.774,33.698,-0.0325,0.0308,9.8314,-0.0389,0.6925,0.9174
4470,1178,851,34.871,33.818,-0.0076,0.1105,9.7976,-0.1401,-0.3586,-1.0342
4475,1188,859,34.885,33.824,-0.0688,0.0215,9.8467,0.4568,-0.7822,0.3819
4480,1193,865,34.934,33.804,-0.0084,-0.0309,9.8317,-0.072,0.5588,-0.0852
4485,1179,875,34.881,33.78,-0.0337,0.0166,9.8855,-0.1412,0.1184,0.3386
4490,1183,879,34.896,33.782,0.0171,-0.1037,9.8678,-0.2617,-0.4928,-0.2153
4495,1170,880,34.83,33.79,-0.0464,-0.0138,9.8412,-1.1996,-0.0895,0.2887
4500,1181,887,34.792,33.771,0.0146,-0.0044,9.7645,-0.3594,-0.9322,0.2715
4505,1168,887,34.864,33.727,-0.0525,0.0163,9.7648,0.021,0.5466,-0.4149
4510,1169,895,34.912,33.719,0.0236,0.0202,9.8058,-0.5686,-0.0173,0.4923
4515,1167,900,34.837,33.835,0.0005,0.0785,9.8931,0.4566,0.1589,-1.0689
4520,1156,898,34.92,33.799,-0.0436,-0.0193,9.7633,0.1744,0.5475,-0.091
4525,1158,910,34.834,33.804,0.0211,-0.0884,9.7415,-0.2515,0.3512,0.1474
4530,1150,909,34.977,33.902,0.0598,0.0412,9.8413,0.5279,0.4873,-0.2781
4535,1147,913,34.865,33.776,-0.0754,-0.0303,9.9012,0.3234,-1.1706,0.3777
4540,1150,913,34.758,33.77,0.0263,-0.007,9.7284,0.5475,-1.2613,0.6249
4545,1143,919,34.83,33.846,0.0552,0.0529,9.8018,-0.1099,0.7034,0.5795
4550,1146,921,34.902,33.826,0.0025,0.0128,9.7176,0.1876,-0.6565,0.2531
4555,1135,921,34.823,33.739,-0.0097,-0.0769,9.7979,0.409,-0.3133,0.4611
4560,1130,919,34.837,33.832,-0.003,-0.0146,9.881,-0.0597,0.0885,0.7748
4565,1134,922,34.904,33.753,0.0519,-0.0492,9.7572,0.3048,-0.9016,0.3382
4570,1126,921,34.862,33.774,-0.0186,0.0131,9.9039,0.7601,0.0538,0.2879
4575,1127,918,34.795,33.858,0.0811,-0.0775,9.8176,0.6371,-0.1066,1.0587
4580,1113,924,34.845,33.794,-0.0076,0.0383,9.7639,-0.4182,0.0348,-0.3281
4585,1112,921,34.887,33.842,0.0057,-0.0447,9.856,-0.0673,-0.841,0.1568
4590,1107,914,34.84,33.735,-0.0158,0.0496,9.8658,-0.6184,-0.3009,0.5855
4595,1110,913,34.809,33.807,-0.0374,-0.0213,9.7614,-0.1945,-0.8726,-0.7237
4600,1112,918,34.801,33.767,-0.0581,-0.0199,9.8064,0.5411,-0.2368,-0.1099
4605,1110,911,34.858,33.755,-0.0055,-0.0498,9.8153,0.0999,0.0126,0.807
4610,1105,919,34.793,33.784,0.0616,0.022,9.8488,-0.213,0.1599,-0.1144
4615,1099,913,34.845,33.847,0.0663,-0.0069,9.7072,-0.7476,-0.4117,-0.3036
4620,1099,907,34.823,33.809,0.0481,-0.0183,9.8428,0.5886,-0.2005,0.1535
4625,1099,906,34.841,33.831,0.0565,-0.0167,9.7892,0.2259,0.2385,0.4872
4630,1101,903,34.865,33.836,0.0537,0.0637,9.7368,-1.1009,-0.4078,-0.6075
4635,1088,901,34.898,33.827,0.0048,0.1168,9.9485,-0.3841,-0.1512,0.1568
4640,1083,902,34.808,33.843,-0.0331,0.0567,9.8083,-0.1198,-0.4776,-0.185
4645,1093,897,34.798,33.803,0.0461,0.105,9.8876,-0.0871,-0.311,0.5277
4650,1082,891,34.892,33.779,0.0142,-0.0041,9.8996,0.2084,0.3224,-0.0083
4655,1076,889,34.767,33.872,-0.0133,-0.0539,9.7607,0.1341,-0.4299,-0.1551
4660,1082,887,34.777,33.781,0.0702,-0.0743,9.7949,1.2144,0.2295,0.0694
4665,1080,888,34.852,33.742,0.053,-0.0012,9.8496,0.188,-0.1127,-0.3063
4670,1066,885,34.77,33.775,0.0184,-0.0099,9.8435,0.0246,0.2497,-0.4843
4675,1062,879,34.933,33.788,0.0219,0.0153,9.8772,0.088,0.488,0.3955
4680,1071,881,34.824,33.701,-0.037,0.0238,9.7642,-0.9953,-0.4261,0.0269
4685,1059,880,34.778,33.757,0.0319,-0.0288,9.8773,-0.3854,0.4639,0.0383
4690,1060,872,34.746,33.775,0.0359,-0.0422,9.9618,-0.3209,-0.1121,-0.2621
4695,1052,877,34.946,33.815,-0.0254,0.0949,9.7849,0.9694,-0.6975,-0.6101
4700,1049,870,34.804,33.813,-0.0997,0.0777,9.7642,-0.0639,0.4179,-0.1111
4705,1047,869,34.809,33.762,-0.0404,-0.0372,9.8521,-0.548,0.4066,0.1881
4710,1043,870,34.846,33.711,0.0895,-0.0457,9.8152,0.0311,-0.3997,-0.2048
4715,1042,869,34.771,33.758,-0.0013,-0.0249,9.8671,0.4866,-0.8221,-0.5357
4720,1035,861,34.79,33.837,0.1047,-0.0503,9.7008,0.3126,-0.852,-0.0113
4725,1022,865,34.73,33.768,-0.0436,-0.0469,9.9095,0.2364,0.1093,0.364
4730,1015,868,34.749,33.796,-0.0118,-0.0717,9.8372,-0.3736,0.2675,-1.051
4735,1012,859,34.857,33.756,0.0068,-0.0349,9.854,0.0373,0.9659,-0.1584
4740,1007,858,34.842,33.794,0.0244,-0.0885,9.8133,-0.3617,-0.9167,0.071
4745,1000,860,34.779,33.803,-0.0489,-0.0998,9.7976,-0.2393,-0.7764,0.392
4750,987,854,34.865,33.839,0.0354,-0.0723,9.906,-0.584,-0.2971,-0.7958
4755,995,854,34.776,33.776,0.0036,-0.1191,9.8095,-0.5836,0.7122,0.7189
4760,978,851,34.893,33.852,-0.002,0.0035,9.8058,-1.3261,1.043,0.3805
4765,976,849,34.859,33.751,0.0034,0.0458,9.7318,0.4843,-0.3379,-0.3988
4770,959,847,34.906,33.832,0.0247,0.061,9.8041,0.0323,-0.4476,0.5276
4775,944,849,34.858,33.772,-0.0359,-0.0297,9.7998,0.1643,-0.3677,0.0032
4780,955,846,34.862,33.835,0.0033,-0.0047,9.8671,0.2284,0.4832,0.1396
4785,927,846,34.788,33.754,0.0241,0.0123,9.7646,0.3347,0.4432,-0.2653
4790,927,843,34.952,33.763,-0.0116,0.0234,9.8118,0.5547,0.4709,0.154
4795,908,842,34.824,33.737,0.0451,-0.0016,9.8129,0.5652,-0.3313,-0.3858
4800,907,834,34.857,33.741,-0.0036,0.0601,9.7522,-0.1103,-0.0453,-0.1927
4805,902,836,34.818,33.778,-0.0456,-0.0622,9.8197,-0.0529,1.1351,0.1835
4810,881,836,34.906,33.901,0.0262,0.0114,9.8228,-0.851,0.1137,-0.1877
4815,870,829,34.825,33.853,-0.0311,0.0532,9.7748,0.2678,-0.1399,0.2868
4820,862,824,34.825,33.89,0.029,0.0841,9.8099,-0.812,0.3211,-0.6042
4825,853,815,34.81,33.906,0.0137,-0.0133,9.8729,-0.129,-0.5681,0.0899
4830,838,821,34.823,33.863,-0.0034,-0.0418,9.7609,0.272,0.7495,0.0777
4835,827,818,34.9,33.806,0.0483,-0.0083,9.8363,0.0107,0.5119,-0.2269
4840,825,812,34.865,33.739,0.061,0.0019,9.7374,0.2667,-0.3064,-0.8923
4845,815,810,34.772,33.685,0.0249,-0.0746,9.834,-0.755,-0.1558,-0.2225
4850,810,802,34.827,33.804,-0.0154,-0.0022,9.8209,0.244,0.2295,0.2445
4855,798,797,34.788,33.812,0.0003,0.0412,9.7099,0.7021,0.3716,0.0752
4860,789,788,34.866,33.842,0.0129,-0.0048,9.7862,-0.5246,0.0243,0.1559
4865,776,787,34.909,33.783,0.0086,-0.0231,9.8359,0.2874,-0.1418,0.0805
4870,770,782,34.783,33.766,-0.0234,0.0036,9.8407,0.9386,-0.6225,0.1301
4875,774,773,34.849,33.761,-0.0751,-0.0606,9.7455,-0.249,-0.343,0.4169
4880,760,771,34.81,33.782,0.0431,0.0464,9.7921,0.3965,-0.1121,-0.7167
4885,763,766,34.748,33.795,0.065,-0.0331,9.882,0.5589,0.072,-0.2597
4890,758,757,34.802,33.841,-0.0095,-0.003,9.7335,0.4559,0.1726,0.4705
4895,767,748,34.838,33.936,0.023,0.0101,9.8513,-1.032,0.3473,0.6822
4900,753,743,34.836,33.789,-0.0119,0.0276,9.8283,-0.2718,0.0455,-1.2874
4905,757,741,34.887,33.865,0.0063,-0.0778,9.7985,-0.8021,0.7331,0.154
4910,747,737,34.836,33.767,0.0159,-0.0492,9.8269,-0.4571,0.0824,0.1165
4915,752,727,34.728,33.813,0.0265,0.027,9.8412,0.4471,0.3971,-0.9683
4920,748,721,34.902,33.748,-0.0635,0.049,9.8615,0.3951,-0.1721,0.2082
4925,755,716,34.844,33.811,0.0822,-0.0473,9.8691,0.058,0.2122,0.0816
4930,750,705,34.868,33.908,-0.0516,0.0566,9.7686,-0.6326,0.1301,-0.306
4935,746,701,34.815,33.761,-0.0236,-0.0466,9.7831,0.263,0.6247,-0.2913
4940,759,692,34.875,33.809,0.0449,-0.016,9.7534,-0.1015,-0.5556,-1.0533
4945,762,686,34.871,33.832,-0.0185,-0.0225,9.8415,0.9306,0.4593,-0.0764
4950,771,677,34.894,33.713,-0.0269,-0.1363,9.8064,-0.1549,-0.9081,0.588
4955,769,675,34.795,33.838,-0.0211,-0.0491,9.8566,-0.1685,0.2105,-0.2047
4960,772,670,34.876,33.806,0.012,0.0032,9.8656,-0.0856,0.6786,1.9617
4965,784,670,34.85,33.798,-0.0328,-0.0395,9.7656,0.3564,-0.2118,-0.0008
4970,795,661,34.827,33.801,0.0668,0.045,9.8085,0.3367,0.7358,0.2222
4975,798,653,34.848,33.766,0.0152,-0.0059,9.7812,-0.6097,0.646,-0.1601
4980,810,656,34.833,33.847,0.0447,-0.0005,9.8021,0.6527,0.3837,0.4509
4985,825,645,34.882,33.84,0.0689,0.0441,9.7723,0.604,-0.5045,-0.013
4990,827,647,34.847,33.86,0.0113,-0.0463,9.779,-0.5922,0.0544,1.4226
4995,835,642,34.734,33.781,0.0487,0.0372,9.7905,-0.6797,-0.3896,-0.1159
5000,849,639,34.889,33.816,-0.0417,0.0533,9.8481,-0.168,0.1584,-0.1577
5005,865,639,34.865,33.833,-0.0038,0.0162,9.8404,0.5518,0.8718,0.4069
5010,876,641,34.863,33.715,-0.0212,-0.0146,9.6978,-0.312,0.3011,0.29
5015,895,635,34.912,33.805,-0.0151,-0.0116,9.849,0.4113,-0.2546,0.5926
5020,901,636,34.806,33.732,-0.0412,-0.0072,9.8642,0.1549,-0.7127,-0.134
5025,912,636,34.858,33.863,0.0723,0.0092,9.7565,-0.5138,0.1649,0.2938
5030,934,640,34.783,33.904,-0.0176,0.0188,9.7757,0.8264,0.8172,0.6811
5035,945,637,34.901,33.842,-0.0669,0.061,9.7848,0.6743,0.013,-0.3376
5040,955,638,34.855,33.759,-0.0682,0.0095,9.8603,0.983,0.3387,-0.0832
5045,967,639,34.858,33.711,0.0191,-0.025,9.7529,1.0623,-0.186,-0.0845
5050,984,649,34.764,33.763,0.0917,-0.0196,9.7457,-0.6882,0.8551,-0.7692
5055,994,646,34.933,33.818,-0.0269,-0.033,9.7841,0.4453,-0.1493,0.2492
5060,1009,651,34.814,33.84,0.0318,-0.0479,9.8996,-0.2414,0.059,0.4578
5065,1026,656,34.843,33.791,-0.1021,0.0503,9.7823,0.0764,-0.1801,0.3535
5070,1033,661,34.863,33.743,-0.0416,0.0448,9.7852,0.0728,-0.6833,0.3064
5075,1045,665,34.863,33.754,0.0304,0.0706,9.8554,0.1484,0.0353,-0.3067
5080,1068,668,34.852,33.815,-0.0118,-0.0253,9.7914,0.3275,-0.483,0.0095
5085,1067,671,34.856,33.899,0.0878,0.0378,9.7383,0.2778,-1.0951,-0.1684
5090,1085,684,34.886,33.86,-0.0639,-0.0485,9.7069,-0.4937,0.0463,-0.0487
5095,1102,689,34.739,33.835,-0.0339,-0.0317,9.7973,0.6324,-0.283,0.509
5100,1096,699,34.847,33.752,-0.007,0.0337,9.8524,0.5214,-0.2788,0.5942
5105,1110,700,34.817,33.852,-0.0654,0.1227,9.8218,-0.1806,-0.1119,1.5465
5110,1131,708,34.831,33.836,-0.0143,0.0681,9.8742,-0.1714,0.4111,-0.3668
5115,1132,719,34.899,33.759,-0.0182,0.1031,9.9012,-0.1322,-0.1454,0.891
5120,1134,728,34.824,33.906,0.0949,-0.0306,9.7326,-0.2573,-0.2426,0.7319
5125,1142,730,34.838,33.683,0.1503,0.072,9.8483,0.2996,-0.1562,0.7118
5130,1154,745,34.783,33.7,0.0409,0.0679,9.824,0.0566,0.2479,0.9563
5135,1159,753,34.974,33.807,-0.0169,0.0025,9.8047,0.8859,0.7329,0.1206
5140,1169,760,34.849,33.833,0.0507,0.0021,9.8106,-0.8734,-0.1104,-0.6764
5145,1175,769,34.815,33.838,0.0494,0.0131,9.9237,0.1376,0.0914,-0.1747
5150,1178,781,34.807,33.754,-0.0258,-0.0048,9.6723,-0.2774,0.1515,0.0819
5155,1181,782,34.797,33.713,-0.0356,-0.0999,9.8306,-0.1155,-0.1058,-0.2246
5160,1175,792,34.832,33.779,-0.035,-0.0166,9.8023,0.5914,0.2612,1.2244
5165,1177,804,34.772,33.9,-0.0238,0.0384,9.7673,-0.0119,-0.4678,0.1994
5170,1190,819,34.884,33.886,-0.0395,0.1621,9.8046,0.1545,-0.3168,-0.6994
5175,1195,822,34.874,33.841,0.0285,0.032,9.853,-0.9122,-0.0085,-0.4429
5180,1189,828,34.835,33.781,-0.005,0.0679,9.8021,0.3728,0.1013,0.0772
5185,1195,836,34.881,33.786,0.0791,0.0605,9.7474,0.0302,-0.5737,0.1397
5190,1170,847,34.743,33.774,-0.0049,-0.0111,9.8224,-0.4249,-0.0018,-0.0779
5195,1192,852,34.887,33.83,-0.0405,0.0014,9.79,-0.3578,0.087,0.4447
5200,1187,857,34.784,33.751,-0.0177,0.0668,9.8235,0.3685,-0.6789,-0.0138
5205,1182,866,34.853,33.779,-0.042,0.0341,9.7689,-0.2055,-0.0397,0.5807
5210,1184,873,34.827,33.86,0.0205,-0.0878,9.7586,0.4803,-0.0584,-0.2182
5215,1176,879,34.84,33.869,0.1012,-0.043,9.7941,0.6974,-0.5347,0.6161
5220,1185,884,34.893,33.814,-0.0231,-0.0641,9.7883,0.0587,-0.2006,0.3634
5225,1171,883,34.838,33.747,-0.0472,-0.0594,9.9746,0.6731,0.1047,0.1068
5230,1179,893,34.943,33.793,-0.022,-0.053,9.8724,0.6887,-0.9063,0.0116
5235,1170,898,34.817,33.854,0.0436,0.0089,9.8462,-0.6324,-0.6414,-0.1545
5240,1167,903,34.852,33.872,0.0803,-0.0343,9.8206,-0.3124,-0.4603,1.4956
5245,1167,907,34.897,33.866,0.0287,-0.0054,9.7993,0.1913,0.8459,-0.4153
5250,1157,912,34.792,33.808,0.0555,0.0322,9.7226,-0.0048,0.4644,0.8567
5255,1155,917,34.836,33.755,0.0248,-0.0171,9.9023,-0.9259,0.3766,1.2804
5260,1152,912,34.724,33.787,-0.0087,0.0152,9.7986,-0.1564,-0.2176,-0.2923
5265,1142,920,34.893,33.742,0.0222,-0.0116,9.8614,-1.1547,0.811,-0.0159
5270,1144,923,34.741,33.79,-0.0034,0.0148,9.7608,-0.0397,-0.3727,0.3094
5275,1142,921,34.835,33.835,-0.0325,-0.0498,9.89,-0.6132,-0.3543,-0.4498
5280,1134,919,34.909,33.846,0.0506,0.0706,9.8441,-0.4326,-0.15,0.6389
5285,1132,920,34.879,33.871,-0.0394,0.0003,9.815,-0.075,-0.3085,-0.3243
5290,1130,921,34.892,33.733,-0.0274,-0.0245,9.8218,0.8838,-0.1974,-0.4871
5295,1129,921,34.957,33.796,0.0647,-0.0161,9.7867,0.2207,0.129,0.209
5300,1128,921,34.81,33.773,0.0154,-0.0211,9.8355,0.0027,0.1061,0.6133
5305,1128,915,34.862,33.843,-0.0736,0.0682,9.7414,-0.0321,-0.3566,-0.4625
5310,1115,921,34.893,33.759,0.0472,-0.0309,9.7323,0.2269,0.4575,-0.3371
5315,1105,925,34.776,33.896,-0.025,-0.0469,9.858,0.33,0.5756,0.2293
5320,1114,921,34.769,33.768,-0.1033,0.114,9.7711,0.1226,-0.1472,0.9006
5325,1109,916,34.813,33.86,0.0307,-0.0249,9.803,0.2569,-0.1974,0.4582
5330,1110,920,34.888,33.833,-0.0516,0.0047,9.7313,0.2187,-0.6002,-0.0581
5335,1097,911,34.85,33.838,-0.0279,0.0034,9.7763,-0.4097,0.2043,0.2493
5340,1100,906,34.884,33.754,-0.0539,0.0174,9.8996,0.7339,-0.3663,0.7792
5345,1099,911,34.921,33.813,-0.069,0.1086,9.7174,0.452,0.1069,-0.3774
5350,1083,913,34.868,33.8,0.1246,0.017,9.8227,0.4595,0.2058,0.4064
5355,1107,906,34.865,33.827,-0.0183,-0.0287,9.8097,-0.4715,0.5777,-0.3277
5360,1095,900,34.795,33.77,0.0961,-0.0359,9.7685,0.0936,1.0012,0.8408
5365,1085,899,34.973,33.819,-0.079,-0.001,9.7932,-0.0821,0.5054,-0.1169
5370,1090,899,34.867,33.776,0.1223,-0.0848,9.7627,0.8463,0.0137,0.7549
5375,1096,897,34.843,33.807,-0.0828,-0.0466,9.7966,0.4495,-0.7722,-0.4154
5380,1082,893,34.773,33.706,0.0481,0.025,9.8737,-0.0121,-0.6004,-0.074
5385,1083,890,34.903,33.845,0.042,0.07,9.7681,0.1082,-0.0856,0.4695
5390,1073,887,34.807,33.84,0.0108,-0.0098,9.7943,0.816,-0.228,-0.0307
5395,1077,886,34.824,33.878,0.0418,-0.0147,9.7896,-0.1443,0.0559,0.0826
5400,1074,879,34.892,33.779,-0.0667,-0.0329,9.7175,0.0938,0.5552,0.2124
5405,1068,880,34.794,33.887,0.0507,-0.0489,9.8579,0.2782,-0.4353,0.7912
5410,1064,879,34.892,33.773,-0.0196,0.0535,9.886,0.4462,-0.5714,-0.4506
5415,1066,878,34.832,33.823,-0.0045,0.0465,9.8105,0.764,0.6878,0.4077
5420,1049,872,34.813,33.861,-0.0169,-0.0668,9.8234,0.463,-0.5614,0.2119
5425,1047,875,34.873,33.82,0.0426,-0.0039,9.8202,0.0015,-0.2112,-0.4752
5430,1045,867,34.827,33.846,0.1012,0.0637,9.8574,-0.5879,-0.0402,0.1664
5435,1042,870,34.834,33.819,0.0057,0.0905,9.7531,-0.3714,0.7069,-0.4042
5440,1031,868,34.931,33.803,-0.0607,0.0184,9.8615,0.4122,0.7515,-0.4503
5445,1034,863,34.835,33.813,-0.0722,0.0382,9.7273,-0.811,0.7149,0.9313
5450,1024,867,34.868,33.82,0.0138,-0.0152,9.8434,-0.5306,0.0362,-0.0443
5455,1015,862,34.893,33.813,-0.0405,0.0613,9.8616,-0.4413,1.5353,-0.5625
5460,1012,859,34.894,33.74,-0.0418,-0.0305,9.8003,-0.4207,0.0427,0.1534
5465,1007,859,34.896,33.776,0.067,0.0548,9.7455,0.044,0.5294,-0.6366
5470,996,855,34.795,33.815,0.1031,-0.0066,9.7982,0.1785,-0.5189,0.5765
5475,992,855,34.859,33.721,0.0173,0.0277,9.8209,-0.3492,-0.5124,-0.0232
5480,985,851,34.917,33.777,0.0024,0.0252,9.7034,0.7306,0.2174,-0.6309
5485,977,853,34.789,33.835,-0.004,-0.1166,9.7782,-0.0153,-0.4455,0.2925
5490,965,850,34.858,33.734,0.1306,0.0533,9.813,0.162,-0.4565,-0.1303
5495,959,848,34.883,33.821,0.1247,-0.0477,9.7793,-0.5868,0.0051,-0.3646
5500,947,850,34.778,33.783,-0.0442,0.0079,9.8637,0.1515,-0.53,0.6286
5505,942,845,34.883,33.842,-0.028,-0.0005,9.756,-0.2232,1.1663,0.1497
5510,928,849,34.867,33.772,-0.0736,-0.1152,9.7873,0.0447,-0.2817,-0.6977
5515,922,840,34.854,33.751,-0.0307,-0.0804,9.801,-0.7941,0.341,-0.3538
5520,914,841,34.844,33.818,0.0355,-0.0362,9.8331,-0.2309,-0.6459,0.7729
5525,898,839,34.902,33.848,-0.0589,-0.0197,9.8248,0.0681,0.8145,-0.0352
5530,891,836,34.909,33.793,-0.0098,0.0117,9.9002,0.2251,0.3778,-0.2102
5535,878,837,34.818,33.728,-0.1395,-0.0157,9.8166,-0.4897,-0.321,-0.0867
5540,868,826,34.837,33.784,-0.0127,0.069,9.7806,0.7776,0.0259,-0.9239
5545,853,826,34.805,33.737,0.0257,-0.0264,9.8281,0.1859,-0.1329,1.0751
5550,855,822,34.883,33.825,-0.0304,-0.0656,9.7913,0.8595,0.5564,0.3784
5555,853,824,34.875,33.741,-0.093,0.0033,9.8895,0.1902,0.941,-0.5663
5560,832,818,34.811,33.854,-0.0506,-0.0289,9.8252,-0.5829,-0.8972,-0.6046
5565,814,806,34.726,33.829,-0.071,0.0323,9.8247,0.2436,0.314,0.6117
5570,812,805,34.917,33.886,-0.101,0.0484,9.8195,0.9426,-0.2658,-0.083
5575,804,800,34.79,33.811,-0.0638,0.0296,9.7702,0.2498,0.4622,-0.209
5580,800,791,34.833,33.798,0.0395,-0.0563,9.8007,0.2057,0.2446,-1.0016
5585,794,792,34.881,33.729,0.0055,-0.0347,9.8204,-0.3015,0.4077,-0.2668
5590,779,789,34.833,33.756,-0.0177,0.0443,9.7134,0.4005,0.378,0.1413
5595,775,783,34.863,33.765,-0.0063,0.0594,9.8242,0.2512,-0.2111,-0.3753
5600,775,772,34.793,33.866,-0.0363,-0.0283,9.7883,0.1268,-0.3256,-0.9609
5605,767,769,34.844,33.837,0.0126,0.0146,9.7586,-0.7032,0.3193,-0.8183
5610,766,763,34.838,33.858,0.0353,-0.1007,9.7733,-0.0302,0.2257,0.6037
5615,757,760,34.788,33.777,-0.0257,-0.0592,9.6888,-0.4379,-0.201,0.187
5620,746,748,34.833,33.792,0.0032,-0.0423,9.8983,-0.2569,-0.7462,-0.3194
5625,758,743,34.752,33.722,0.0216,0.0163,9.854,-0.1216,-0.3385,0.0655
5630,749,737,34.823,33.774,-0.0266,-0.0603,9.8,-0.6906,-0.065,0.1345
5635,742,732,34.79,33.773,0.0511,0.022,9.7735,-0.5729,-0.7764,-1.0405
5640,748,727,34.767,33.83,-0.0407,-0.0368,9.8189,-0.3623,0.0065,0.3706
5645,753,715,34.817,33.848,0.0499,-0.078,9.787,-0.5848,0.7735,0.1945
5650,749,710,34.823,33.897,0.0138,0.0095,9.7743,-0.3156,-0.1093,-0.1479
5655,757,706,34.855,33.907,-0.0148,0.0281,9.9191,0.2968,-0.1239,0.3996
5660,746,700,34.781,33.74,0.0124,0.083,9.8502,-0.1867,-0.3071,0.394
5665,759,694,34.996,33.742,0.0032,0.0398,9.7921,0.124,-0.4659,0.2752
5670,759,693,34.856,33.849,0.0231,0.0966,9.7885,-0.0842,0.0059,0.7207
5675,771,681,34.834,33.839,-0.0062,-0.0373,9.8902,-0.1177,0.3476,0.3504
5680,772,670,34.946,33.85,0.0318,0.0132,9.8136,0.3412,0.3094,0.0947
5685,777,671,34.879,33.752,-0.0228,-0.098,9.7309,0.6296,-0.0102,-0.5713
5690,789,664,34.903,33.879,-0.0149,-0.0213,9.8312,-0.3841,0.2293,0.0705
5695,787,669,34.923,33.816,0.0149,0.0444,9.8003,1.22,-0.4555,0.6537
5700,803,653,34.812,33.863,-0.0247,0.0831,9.8048,0.0635,0.3718,-0.2412
5705,821,654,34.815,33.856,-0.0271,-0.0662,9.663,0.6827,0.5866,-0.3814
5710,820,651,34.847,33.768,-0.0328,-0.0144,9.9166,-0.0268,-0.769,0.7838
5715,835,648,34.924,33.866,-0.004,-0.0417,9.7516,-0.5926,-0.2227,-0.09
5720,852,643,34.894,33.901,0.0132,0.0812,9.9452,0.4417,-0.7245,0.5482
5725,863,638,34.8,33.849,-0.0285,0.063,9.9516,0.0991,0.3,-0.0739
5730,875,639,34.855,33.807,0.0686,0.0774,9.7846,0.3642,0.7434,0.9968
5735,872,640,34.867,33.829,0.0247,0.0055,9.7512,-0.5745,-0.2934,-0.6291
5740,894,637,34.75,33.768,-0.0084,0.0424,9.8322,-0.0353,0.0735,-0.0167
5745,909,632,34.957,33.876,-0.0227,-0.0617,9.8203,-0.2171,-0.0839,-0.7723
5750,924,637,34.863,33.832,-0.0122,-0.0127,9.8102,0.1842,1.2329,-0.9287
5755,929,633,34.837,33.773,-0.0175,-0.0279,9.8397,0.4721,-0.3928,0.0434
5760,947,638,34.828,33.79,-0.0302,-0.0069,9.7977,-0.3152,-0.0665,0.768
5765,956,635,34.883,33.761,0.0221,-0.0901,9.8535,-0.3242,0.7251,0.3956
5770,968,643,34.815,33.803,-0.062,0.0495,9.8203,-0.1549,0.6189,0.5084
5775,989,645,34.822,33.795,-0.003,-0.0337,9.9043,-0.2197,-0.3048,-0.7391
5780,1003,646,34.893,33.75,-0.0124,-0.1003,9.9156,0.6998,-0.2903,-0.2627
5785,1011,649,34.873,33.819,0.0027,0.0069,9.8417,0.3234,-0.303,-0.1936
5790,1029,658,34.802,33.898,0.0194,-0.015,9.8365,-0.0738,-0.0566,0.7232
5795,1041,661,34.768,33.81,0.0335,-0.0287,9.8514,-0.0333,0.4129,-0.0855
5800,1045,666,34.827,33.826,0.059,0.0408,9.8586,-0.4233,0.0324,0.0986
5805,1050,671,34.795,33.756,-0.0355,-0.0676,9.7443,0.1062,-0.1418,-0.7019
5810,1070,677,34.781,33.788,-0.0167,-0.0111,9.8112,-0.5672,-0.6275,0.5417
5815,1083,687,34.826,33.787,0.0067,-0.0136,9.871,0.1803,-0.2365,-0.2358
5820,1095,691,34.862,33.986,-0.0277,0.0865,9.823,0.346,-0.5067,-0.0631
5825,1113,703,34.996,33.764,0.0423,-0.0414,9.7458,0.3426,0.3444,-0.3855
5830,1120,708,34.814,33.816,-0.0001,-0.066,9.8222,-0.1248,0.1153,-0.2453
5835,1116,710,34.872,33.909,0.0678,-0.0593,9.8118,0.0576,-0.5682,0.2916
5840,1137,716,34.768,33.835,0.0495,-0.0281,9.7681,1.3319,-0.6625,-0.4599
5845,1137,730,34.815,33.754,-0.0769,0.0081,9.8172,0.1839,-0.5264,-0.108
5850,1148,737,34.878,33.753,0.0343,-0.0009,9.8399,0.3042,0.2084,0.4109
5855,1153,744,34.871,33.753,0.0038,0.0033,9.8345,0.7062,0.0403,0.611
5860,1164,757,34.818,33.789,-0.0305,0.0539,9.6314,0.3471,0.4123,-0.8123
5865,1159,762,34.788,33.762,-0.0552,0.0348,9.8882,-0.4643,0.3043,-0.0514
5870,1171,772,34.817,33.777,-0.001,-0.0638,9.7881,0.1389,0.0752,0.6136
5875,1176,776,34.793,33.792,-0.0625,0.0196,9.8519,0.7414,0.5674,0.0313
5880,1174,789,34.785,33.804,-0.0696,0.0098,9.8391,1.0412,-0.2048,-0.2367
5885,1186,797,34.905,33.836,-0.0463,0.002,9.8648,0.012,-0.2677,-0.1656
5890,1185,806,34.821,33.818,0.0689,0.0157,9.8049,-0.0251,-0.6851,-0.4762
5895,1187,812,34.815,33.828,-0.0713,-0.027,9.8299,-0.6403,0.9642,0.3583
5900,1186,822,34.928,33.788,0.0401,0.0591,9.8011,0.8816,0.2032,0.6268
5905,1193,831,34.844,33.785,-0.0058,0.0238,9.7402,0.4367,0.6926,0.4132
5910,1192,839,34.89,33.792,-0.0277,-0.0412,9.8663,0.3542,-0.1753,0.5729
5915,1182,849,34.852,33.835,0.03,0.0425,9.7982,0.482,0.3481,0.7329
5920,1186,853,34.872,33.836,-0.0419,-0.0508,9.9251,0.1577,0.2552,1.0293
5925,1186,865,34.883,33.737,0.0343,0.0511,9.7846,0.4451,0.2235,1.3543
5930,1189,864,34.846,33.772,-0.057,0.0414,9.8498,0.2147,0.2692,-1.055
5935,1177,874,34.766,33.743,0.0113,-0.0072,9.8105,-0.7887,-0.0726,0.4178
5940,1175,880,34.916,33.788,0.0715,-0.0156,9.9114,-0.7378,0.5822,0.0128
5945,1180,884,34.839,33.803,-0.0176,0.0502,9.7484,0.2466,-0.4891,-0.0965
5950,1173,889,34.897,33.815,0.0236,-0.0209,9.7893,0.2231,0.4691,0.1828
5955,1166,894,34.845,33.75,-0.116,-0.0759,9.7888,-0.3889,-0.4264,-0.2898
5960,1158,901,34.847,33.79,0.0595,-0.0172,9.8673,-0.2338,-0.1372,-0.3832
5965,1163,896,34.808,33.823,-0.0034,-0.0557,9.8322,0.5387,-0.4564,-0.1539
5970,1171,906,34.864,33.812,-0.0139,-0.0529,9.8044,-0.1703,-0.6951,-0.3791
5975,1162,907,34.902,33.797,-0.0801,-0.0678,9.831,0.4215,-0.5594,-0.6072
5980,1161,905,34.817,33.874,0.0048,-0.0009,9.7802,-0.1175,0.7456,-0.8176
5985,1150,916,34.832,33.837,0.0101,-0.0088,9.7669,-0.2179,0.5224,-0.1963
5990,1154,919,34.907,33.824,0.0845,-0.0083,9.7521,-0.0621,-0.1394,-1.0401
5995,1150,919,34.919,33.812,-0.0158,-0.028,9.7693,-0.4309,0.2129,-0.6356
6000,1140,921,34.872,33.774,0.0385,0.1221,9.8963,0.4221,0.5241,-0.0627
6005,1132,917,34.852,33.802,-0.0359,0.0379,9.7921,0.5177,0.1808,-0.0842
6010,1137,924,34.811,33.775,0.0085,-0.0264,9.8373,0.1347,-0.0129,-1.3861
6015,1130,925,34.834,33.801,0.0155,-0.098,9.8766,0.348,0.3698,-0.4486
6020,1122,919,34.839,33.809,-0.0631,-0.1038,9.7723,-0.0007,0.0796,-0.4372
6025,1119,928,34.848,33.76,0.031,0.053,9.7362,0.4298,0.3179,-0.0289
6030,1119,921,34.916,33.77,-0.0189,0.0015,9.7886,0.3843,0.9718,-0.088
6035,1118,916,34.909,33.822,-0.0241,0.0382,9.6744,0.4758,0.2505,0.0313
6040,1110,915,34.845,33.83,0.0196,0.0503,9.7763,-0.5878,0.2844,0.2453
6045,1113,913,34.896,33.851,-0.0316,-0.0864,9.7397,-0.4205,-0.0995,0.4488
6050,1104,914,34.813,33.87,-0.0113,-0.0108,9.8372,-0.2577,-0.3326,-0.0896
6055,1102,914,34.782,33.746,0.0403,0.0369,9.83,0.4074,0.058,-0.6136
6060,1099,916,34.859,33.801,0.0357,-0.0339,9.8347,-0.4473,-0.7692,-0.1727
6065,1106,913,34.936,33.777,0.0306,-0.0646,9.841,-0.2708,0.1452,-0.0665
6070,1096,904,34.882,33.742,-0.0845,-0.042,9.7708,0.3065,0.5298,0.5373
6075,1092,909,34.881,33.864,-0.0976,0.0045,9.8125,-0.472,-0.359,-0.2359
6080,1095,897,34.858,33.766,0.0249,0.0772,9.7808,0.0445,0.1669,0.4961
6085,1091,903,34.825,33.872,-0.0163,0.0298,9.8221,0.4131,-0.2308,-0.5268
6090,1077,898,34.877,33.795,-0.0907,-0.0197,9.7962,0.2114,0.5664,-0.308
6095,1086,897,34.821,33.808,0.0063,-0.0749,9.8122,-0.0059,0.408,-0.2763
6100,1081,898,34.835,33.9,0.0161,0.0292,9.7485,-0.6889,-0.1296,0.0333
6105,1076,886,34.958,33.881,0.0921,0.0421,9.7864,0.7118,0.3707,0.5721
6110,1083,894,34.896,33.849,-0.0023,-0.0229,9.8259,-0.0765,-0.0733,0.2051
6115,1076,888,34.908,33.765,0.0605,0.0171,9.8924,0.4409,0.6627,-0.2419
6120,1084,887,34.834,33.836,-0.0297,0.0665,9.7353,-0.2687,-0.967,-0.4161
6125,1067,886,34.941,33.735,0.0887,0.1434,9.8365,0.4786,0.4762,-0.5721
6130,1059,879,34.871,33.806,-0.0463,-0.0645,9.8062,0.3543,-0.0243,0.2715
6135,1058,880,34.885,33.808,-0.0365,-0.0321,9.7882,-0.6174,0.2685,0.7049
6140,1066,874,34.935,33.815,0.0393,-0.0223,9.7889,-0.6482,-0.2849,-0.1065
6145,1065,872,34.866,33.814,0.0433,-0.0007,9.8647,-0.272,-0.294,-0.1921
6150,1049,873,34.834,33.809,-0.0164,-0.1193,9.7697,-0.5675,-0.4,-0.5719
6155,1044,873,34.923,33.786,0.0479,-0.0392,9.8755,-0.7868,-0.4265,-0.1122
6160,1035,869,34.839,33.855,0.0453,-0.0328,9.8455,0.3941,0.2241,-0.2954
6165,1035,868,34.864,33.867,-0.0076,-0.0739,9.8161,0.5572,0.1857,0.6467
6170,1021,866,34.857,33.798,-0.1027,0.0416,9.8317,-0.3789,0.1179,0.6353
6175,1030,868,34.827,33.829,0.0304,-0.0948,9.8846,0.376,-0.2786,0.1084
6180,1022,863,34.871,33.823,-0.0265,0.0078,9.7761,-0.9505,-0.1103,0.187
6185,1014,865,34.815,33.814,0.0167,-0.0391,9.7307,0.4577,0.1856,-0.695
6190,1005,859,34.806,33.789,0.0305,-0.0116,9.8422,-0.9428,-0.0639,-0.436
6195,991,854,34.882,33.814,0.1005,0.0057,9.7989,-0.399,0.2395,-0.0864
6200,996,859,34.9,33.819,0.0105,-0.0407,9.8644,0.9471,-0.4342,-0.5055
6205,981,855,34.885,33.828,-0.0321,0.0556,9.8019,0.206,0.3204,0.8316
6210,967,851,34.852,33.797,0.0151,0.0615,9.7998,-0.5474,0.3485,0.2361
6215,964,853,34.908,33.809,0.0264,-0.0928,9.8308,-0.2727,-0.0662,0.4199
6220,966,847,34.879,33.754,-0.0298,0.0786,9.7634,-0.1728,0.9617,-0.3085
6225,945,846,34.875,33.807,-0.0327,0.0276,9.8388,-0.3762,0.6616,-0.2972
6230,942,847,34.833,33.721,0.043,0.1901,9.7794,-0.4009,-0.3062,0.7623
6235,934,847,34.841,33.777,-0.0047,0.0086,9.8236,-0.0803,0.3907,0.0047
6240,924,847,34.932,33.832,-0.0012,-0.0198,9.8138,0.1371,-0.1956,0.2819
6245,906,847,34.867,33.868,-0.0799,-0.0194,9.7942,-0.8483,-0.294,-0.0076
6250,903,840,34.962,33.742,-0.1033,0.0078,9.8324,0.6298,-0.8065,-0.4372
6255,894,830,34.776,33.839,-0.0163,-0.0649,9.79,-0.5103,-0.7558,-0.5729
6260,874,837,34.919,33.76,-0.0314,-0.041,9.799,-0.2983,-1.0826,-0.5943
6265,880,829,34.815,33.842,-0.0333,-0.0678,9.7746,0.5792,0.5778,0.239
6270,858,824,34.874,33.743,-0.0037,-0.013,9.8115,0.2329,0.2157,0.2519
6275,858,823,34.868,33.839,-0.0688,0.0277,9.7459,1.342,-0.105,0.1668
6280,839,821,34.814,33.856,-0.0312,0.0014,9.857,-0.1279,0.0946,0.7532
6285,834,816,34.876,33.84,-0.0133,-0.0871,9.8393,0.2002,-0.4325,-0.3772
6290,828,806,34.822,33.857,0.0369,-0.0407,9.799,0.4521,-1.0684,0.5087
6295,815,803,34.848,33.868,-0.0278,0.0142,9.8894,0.3675,-0.3825,0.1187
6300,798,801,34.795,33.809,-0.0596,0.025,9.8119,-0.8874,-0.1305,-0.0244
6305,801,793,34.831,33.844,-0.0287,-0.0077,9.8418,-0.2869,0.117,-0.2157
6310,785,793,34.864,33.79,0.0133,-0.0942,9.9106,-0.4579,-0.0014,0.1714
6315,786,784,34.899,33.859,-0.0089,0.0219,9.8322,-0.5503,-0.3277,-0.4893
6320,780,783,34.916,33.769,0.0759,0.0697,9.7505,0.0816,-0.264,0.063
6325,777,776,34.85,33.817,0.0707,-0.0098,9.9023,0.0723,0.4768,0.7723
6330,764,764,34.85,33.735,0.0123,-0.01,9.7944,-0.4137,0.0658,-0.234
6335,758,768,34.865,33.824,0.0367,0.0008,9.815,-0.3503,0.5852,-0.0377
6340,747,753,34.841,33.77,0.0705,-0.0187,9.7538,-0.3975,0.3782,0.485
6345,754,746,34.89,33.795,0.0207,-0.0073,9.8105,-0.1187,0.8354,-0.0755
6350,752,742,34.802,33.774,0.011,-0.0677,9.7743,0.6426,0.2495,0.2377
6355,752,742,34.84,33.77,-0.0147,-0.0246,9.7665,0.1081,0.3776,0.2322
6360,749,734,34.815,33.806,0.0416,0.0333,9.7629,-1.2124,0.687,0.8991
6365,749,724,34.907,33.748,-0.0709,0.0018,9.7921,-0.3794,-0.5952,-0.4772
6370,751,719,34.849,33.783,0.0303,-0.015,9.9217,0.108,-0.0341,-0.1616
6375,750,714,34.788,33.79,-0.0026,-0.1425,9.868,-0.4425,0.4559,0.44
6380,758,703,34.854,33.931,-0.019,-0.0294,9.8292,-0.7484,0.4663,0.3878
6385,753,698,34.945,33.871,0.0162,0.0072,9.8191,0.3729,0.0157,-0.138
6390,765,696,34.833,33.81,0.0086,0.0074,9.7958,0.9192,0.4381,-0.4839
6395,768,688,34.912,33.869,0.0009,0.0316,9.8086,0.4483,-0.57,-0.2935
6400,767,682,34.827,33.876,-0.0753,0.0629,9.7828,-1.1493,0.5022,0.1037
6405,774,680,34.965,33.748,0.0126,-0.0141,9.8224,0.1625,0.0432,-0.462
6410,786,668,34.821,33.823,-0.0467,-0.0204,9.8446,-0.4981,-0.1718,-0.6145
6415,793,669,34.886,33.741,-0.0486,-0.0002,9.8712,0.7428,0.3802,-0.4846
6420,801,659,34.921,33.813,-0.0726,0.0695,9.7932,0.2918,0.0785,0.2728
6425,806,660,34.907,33.832,0.1357,0.0278,9.7981,0.5005,-0.4878,0.166
6430,811,654,34.819,33.82,-0.0096,0.0533,9.86,-0.1793,0.0485,-0.2833
6435,826,649,34.878,33.751,-0.006,-0.0523,9.8644,0.443,0.5535,0.0797
6440,850,644,34.934,33.898,-0.1313,0.0929,9.8458,0.8655,-0.1268,0.0655
6445,849,645,34.875,33.838,-0.0137,-0.0613,9.8029,0.2788,0.4816,0.571
6450,859,639,34.889,33.886,0.072,0.1214,9.6949,-0.534,0.7689,0.669
6455,870,633,34.861,33.82,-0.0544,0.0358,9.8152,0.5848,0.1126,-0.1179
6460,883,634,34.939,33.895,-0.0322,-0.0373,9.8775,-0.6156,1.0349,-0.1678
6465,903,640,34.903,33.844,-0.0431,0.0506,9.773,-0.4086,0.359,-0.1622
6470,908,640,34.824,33.812,0.0556,0.0141,9.8081,0.9005,0.6446,0.5476
6475,926,637,34.902,33.803,-0.0082,-0.0686,9.7925,0.5734,0.4537,-0.6148
6480,936,640,34.88,33.733,0.0655,-0.0327,9.8034,0.0414,-0.0606,0.2786
6485,949,641,34.866,33.764,-0.0185,-0.0178,9.8772,-0.2691,-1.1568,0.433
6490,974,640,34.793,33.822,-0.0102,-0.0566,9.8142,0.4363,0.6384,-0.4758
6495,975,640,34.885,33.791,-0.0004,-0.1107,9.7469,0.3981,0.3812,-0.422
6500,986,648,34.842,33.823,0.0139,0.0114,9.8034,0.2031,0.2802,0.5538
6505,1008,647,34.806,33.753,0.0652,0.0565,9.7557,-0.0573,-0.155,-0.1369
6510,1007,652,34.929,33.839,0.0584,0.0831,9.8694,0.5643,-0.0359,0.0252
6515,1023,658,34.916,33.752,0.0038,0.0568,9.7851,-0.0021,0.3698,-0.7952
6520,1043,663,34.842,33.793,-0.0841,-0.0189,9.863,-0.9653,-0.4215,0.4503
6525,1048,665,34.813,33.76,-0.0333,0.083,9.8194,-0.0897,-0.3068,0.1006
6530,1064,676,34.771,33.808,-0.0234,0.0286,9.8307,-0.6991,0.3835,0.8567
6535,1069,676,34.729,33.807,0.0207,0.0052,9.8704,-0.3831,-0.7257,0.3368
6540,1087,682,34.917,33.856,0.034,0.0251,9.8526,0.4747,-0.2977,0.1101
6545,1097,694,34.855,33.804,0.0243,0.0114,9.8826,-0.8234,-0.9467,-0.4331
6550,1103,700,34.876,33.883,-0.0599,0.0219,9.7357,-0.0445,-0.1182,1.0601
6555,1119,702,34.771,33.816,0.0047,0.0314,9.8048,-0.3764,0.0838,0.2178
6560,1125,714,34.878,33.891,-0.033,-0.0557,9.8077,0.7637,0.4129,-0.2844
6565,1136,722,34.835,33.825,-0.0139,0.013,9.7096,0.0696,0.477,-0.2285
6570,1151,728,34.838,33.838,0.0656,-0.0029,9.8567,0.5232,0.0179,0.0135
6575,1145,737,34.768,33.762,-0.0576,0.0436,9.7208,0.0911,0.5402,-0.7374
6580,1154,747,34.847,33.731,-0.0104,-0.0348,9.7492,-0.0651,0.0692,0.5581
6585,1165,751,34.846,33.8,0.041,0.0328,9.7545,0.6461,-0.147,-0.367
6590,1160,761,34.87,33.836,-0.0567,-0.0149,9.8037,-0.1035,0.1611,-0.566
6595,1174,772,34.714,33.858,0.0614,-0.0165,9.7971,-0.0263,-0.0405,0.3801
6600,1179,787,34.834,33.782,0.0619,0.0058,9.8435,1.0669,-0.2028,-0.4337
6605,1181,789,34.774,33.903,0.03,0.0212,9.7849,0.1637,0.7457,-0.1758
6610,1180,798,34.796,33.861,-0.1413,0.0232,9.9002,1.3091,0.1599,-0.3399
6615,1187,807,34.865,33.857,0.0122,-0.0733,9.7583,0.3229,0.3368,-0.1138
6620,1183,817,34.762,33.822,0.0575,0.0044,9.8163,-0.7526,0.285,-0.7738
6625,1195,824,34.853,33.813,-0.0054,-0.0311,9.8171,0.0389,-0.8085,-0.3069
6630,1197,829,34.866,33.862,-0.0251,0.0114,9.8589,-0.2675,0.1022,-0.7153
6635,1182,838,34.82,33.942,0.051,-0.0999,9.8016,1.2445,-0.4199,0.2821
6640,1191,844,34.788,33.757,0.0946,0.0764,9.8447,0.1872,0.0179,0.4495
6645,1191,850,34.787,33.858,-0.0516,-0.0584,9.7539,-0.2479,0.1818,-0.7136
6650,1188,861,34.855,33.737,0.0034,-0.0523,9.8315,0.6192,-0.4107,0.0525
6655,1185,862,34.877,33.756,-0.0259,-0.0138,9.8006,-0.6576,-0.3026,0.417
6660,1185,877,34.899,33.817,0.0569,-0.0176,9.7965,0.1023,0.8487,-0.3508
6665,1176,881,34.86,33.827,0.002,-0.0369,9.8972,-0.4679,0.1369,0.3979
6670,1168,890,34.897,33.841,-0.0249,0.0898,9.7459,-1.0919,0.2313,0.1344
6675,1177,887,34.886,33.807,-0.0127,0.0567,9.7421,-0.3801,0.4357,0.3083
6680,1177,899,34.868,33.815,0.0427,-0.0765,9.7485,0.0591,0.0022,-0.6231
6685,1175,889,34.876,33.803,0.0274,0.0258,9.7997,-0.3967,-0.1968,-0.2684
6690,1168,900,34.894,33.964,-0.0829,-0.0128,9.8201,-0.2061,0.0098,0.5591
6695,1164,908,34.875,33.969,-0.0554,0.0593,9.8826,-0.2317,0.3462,0.9186
6700,1156,905,34.817,33.867,-0.029,0.0497,9.7637,0.3218,-0.6111,0.2718
6705,1168,915,34.889,33.754,-0.0325,0.0183,9.842,0.6572,-0.4198,0.3278
6710,1149,920,34.783,33.859,-0.0586,-0.0617,9.7795,0.0009,-0.4071,-0.3528
6715,1142,915,34.9,33.758,0.0477,-0.0038,9.9064,-0.1966,0.6595,-1.2611
6720,1147,919,34.861,33.789,0.0353,0.0698,9.7444,0.0081,0.3562,-1.0143
6725,1140,920,34.895,33.841,-0.0244,0.0469,9.7393,0.3907,-0.2505,0.075
6730,1137,921,34.767,33.858,0.0036,-0.0003,9.7841,-0.6266,0.1387,0.6561
6735,1133,921,34.86,33.854,-0.0752,0.0702,9.8531,-0.9592,-0.2555,-0.3061
6740,1142,920,34.844,33.883,-0.0719,0.0561,9.7902,0.2133,-0.385,0.3567
6745,1127,918,34.869,33.849,-0.0109,0.0164,9.8606,-0.6363,0.758,0.1405
6750,1122,920,34.8,33.842,-0.118,0.1256,9.809,0.4427,0.0888,-0.0741
6755,1116,923,34.838,33.838,-0.0781,0.0797,9.8755,-0.5454,-0.314,0.0685
6760,1122,917,34.911,33.763,0.0529,0.0406,9.7693,-0.2652,0.1736,-0.5202
6765,1120,923,34.81,33.835,0.0443,-0.0405,9.9106,-0.7693,0.7995,-0.4915
6770,1117,914,34.819,33.809,-0.0554,-0.0806,9.7476,-0.2558,-0.3903,-0.5494
6775,1109,916,34.808,33.893,-0.0195,0.0143,9.8021,0.1583,0.7443,-0.0828
6780,1107,915,34.817,33.945,0.0149,0.0457,9.8212,-0.8177,1.1902,0.1251
6785,1096,917,34.823,33.868,0.0148,-0.0442,9.8753,0.6287,0.042,0.5738
6790,1111,915,34.893,33.879,-0.0096,0.0368,9.716,-1.0054,0.5463,-0.7023
6795,1100,905,34.923,33.839,0.0718,0.0397,9.7055,0.2979,0.6624,-1.0288
6800,1101,900,34.886,33.838,0.0056,0.0362,9.7916,0.5683,0.6207,-0.4616
6805,1084,902,34.947,33.776,0.0451,-0.0224,9.8019,-0.2506,0.2196,0.3243
6810,1094,903,34.85,33.803,0.0491,-0.0068,9.7798,0.5933,-0.3073,0.5129
6815,1075,897,34.833,33.828,0.1008,0.0097,9.8403,-0.3026,-0.2107,-0.8168
6820,1083,896,34.944,33.724,0.0534,0.0076,9.8525,-0.1236,0.1673,0.4824
6825,1084,897,34.814,33.875,-0.0125,0.0769,9.7872,-0.2569,-0.0499,-0.6549
6830,1086,885,34.72,33.822,-0.0211,0.0834,9.7275,0.3815,-0.3789,-0.959
6835,1077,889,34.804,33.922,0.0297,-0.0217,9.7639,0.3409,0.0495,-0.2736
6840,1087,885,34.937,33.78,-0.0137,-0.0543,9.8071,-0.0078,-0.0465,0.2711
6845,1082,886,34.848,33.786,0.0093,-0.002,9.8018,-0.1744,-0.9301,-0.5407
6850,1075,881,34.824,33.896,-0.0837,0.011,9.8518,0.1873,0.1691,-0.4898
6855,1061,882,34.954,33.759,-0.0127,-0.0037,9.8705,-0.1072,-0.0817,-0.4038
6860,1061,881,34.856,33.849,-0.0508,-0.0538,9.8268,-0.0741,-0.0533,-0.3824
6865,1067,871,34.832,33.827,0.118,-0.0015,9.7836,0.4194,0.5405,0.746
6870,1053,871,34.765,33.843,0.0025,-0.0263,9.7125,0.4335,0.4374,0.2609
6875,1039,874,34.854,33.778,0.025,0.0678,9.7683,0.3716,-0.1068,-0.4228
6880,1048,870,34.866,33.828,-0.0659,-0.0748,9.7846,0.8233,1.0745,-0.4581
6885,1038,871,34.893,33.863,0.0338,-0.0471,9.7946,0.4047,-0.3762,-0.4192
6890,1044,867,34.729,33.826,-0.0084,0.0257,9.8655,0.3706,-0.2154,-0.5169
6895,1033,866,34.876,33.833,-0.0324,-0.0146,9.7993,-0.1305,-0.1194,-0.3338
6900,1012,859,34.84,33.836,0.0441,0.0436,9.88,-0.4788,0.1685,-0.0886
6905,1019,856,34.765,33.735,-0.0845,0.0374,9.8291,-0.4439,0.6673,0.31
6910,1015,860,34.851,33.783,-0.0248,0.025,9.7439,0.004,0.5524,-0.61
6915,1007,856,34.834,33.891,-0.0778,-0.0036,9.8954,0.0439,0.5398,0.5357
6920,1004,861,34.865,33.867,0.0035,0.0828,9.7814,0.3414,-0.7412,-1.0608
6925,988,856,34.88,33.752,0.0495,-0.0291,9.8595,0.2434,0.5038,-0.551
6930,989,853,34.895,33.794,-0.0071,-0.031,9.7095,-0.7742,-0.0227,0.1092
6935,973,854,34.876,33.811,-0.0884,-0.0477,9.7209,-0.0646,0.5381,0.1141
6940,970,854,34.899,33.815,-0.069,-0.0404,9.8122,-0.3022,1.2745,-0.0504
6945,958,855,34.911,33.777,0.0587,-0.0235,9.9568,-0.2942,-0.5776,0.109
6950,953,846,34.879,33.879,-0.0006,-0.073,9.8338,-0.4018,0.1652,-0.4586
6955,936,843,34.828,33.795,0.0065,-0.0208,9.7673,0.4501,-0.1565,0.4377
6960,937,840,34.902,33.908,0.047,-0.0061,9.8257,0.3893,-0.24,0.2561
6965,919,841,34.923,33.839,-0.0027,0.0088,9.874,-0.2265,-0.4621,-0.2623
6970,906,839,34.862,33.778,0.0591,0.0007,9.8454,0.3089,-0.4897,-0.4234
6975,904,830,34.962,33.857,0.0675,0.0866,9.8561,-0.6544,0.9159,-0.2005
6980,883,832,34.744,33.906,-0.0304,-0.0232,9.8432,-0.052,-0.2213,0.9248
6985,880,832,34.878,33.794,-0.015,0.0225,9.812,0.0053,1.0829,0.0126
6990,872,827,34.909,33.808,-0.02,-0.0601,9.8589,0.9556,-0.7428,1.3446
6995,849,826,34.805,33.84,0.0493,-0.0296,9.8525,0.2349,-0.3233,0.1176
7000,852,824,34.792,33.778,0.0606,-0.0331,9.7727,-1.0262,0.5097,0.0115
7005,845,820,34.915,33.833,0.1034,0.0528,9.8969,0.0669,-0.2145,0.462
7010,832,816,34.937,33.846,0.0279,0.0144,9.8312,-0.1247,0.9035,-0.4176
7015,819,813,34.732,33.9,0.0298,0.0301,9.9088,0.3497,-0.1927,0.7357
7020,812,806,34.818,33.776,-0.0462,-0.0334,9.8444,0.1277,-0.0128,-0.3513
7025,807,801,34.908,33.788,0.0444,0.0502,9.8704,-0.2715,0.3434,-0.3528
7030,798,795,34.867,33.861,-0.007,0.0301,9.7203,0.0557,-1.4506,-0.6457
7035,790,788,34.902,33.897,0.0946,0.0668,9.7938,0.1528,-0.9475,-0.1244
7040,777,785,34.811,33.834,-0.0751,0.0517,9.824,0.6541,-0.0668,-1.0109
7045,778,777,34.925,33.835,-0.0032,0.0568,9.8373,-0.4148,0.4582,-0.5324
7050,765,773,34.891,33.769,-0.0146,-0.0654,9.8145,0.8962,0.2714,0.3561
7055,765,768,34.785,33.776,-0.0312,-0.0662,9.7977,-0.3296,-0.1775,-0.3043
7060,764,767,34.86,33.823,0.0159,0.0483,9.7458,0.7837,-1.0245,-0.0145
7065,759,756,34.848,33.804,-0.0927,0.0231,9.8354,-0.1973,0.0074,0.949
7070,753,753,34.851,33.805,0.0067,-0.0606,9.7827,-0.1961,0.1371,0.0861
7075,740,742,34.879,33.833,0.0324,-0.0401,9.8449,0.1169,-0.0546,0.1823
7080,756,736,34.868,33.742,0.0036,-0.0063,9.7858,0.0781,0.119,-0.2236
7085,753,731,34.813,33.864,-0.0077,-0.1175,9.7942,0.3577,0.7313,0.6309
7090,750,726,34.885,33.725,-0.0813,0.0559,9.8451,-0.0451,0.3873,-0.8818
7095,739,713,34.936,33.844,-0.0383,-0.0284,9.7844,0.777,0.5027,-1.0633
7100,738,711,34.781,33.813,0.0219,0.0574,9.7385,-0.0085,-0.7696,0.0706
7105,747,707,34.866,33.749,-0.0628,0.0131,9.737,0.2465,-0.1635,0.6549
7110,748,699,34.839,33.874,-0.0321,-0.034,9.9006,-0.1157,-0.7703,0.9216
7115,760,693,34.925,33.809,0.0798,0.009,9.8048,-0.4908,-0.7594,1.3004
7120,764,689,34.815,33.855,-0.0948,-0.0379,9.7573,-0.2822,-0.0285,1.314
7125,766,674,34.92,33.781,-0.0452,0.0159,9.8065,-0.4932,0.7895,-0.08
7130,774,673,34.858,33.83,0.045,-0.04,9.8412,0.0829,-0.6017,-0.4512
7135,777,676,34.921,33.749,0.0318,0.0261,9.7971,-0.0234,-0.0958,-0.1134
7140,792,673,34.794,33.822,0.0567,-0.0863,9.7565,-0.5224,0.2334,-0.5167
7145,796,663,34.807,33.856,-0.0871,-0.0587,9.7936,0.0149,-0.2196,-0.8846
7150,809,658,34.945,33.795,-0.0261,-0.0642,9.7827,-0.0366,0.1013,-0.3066
7155,819,651,34.874,33.863,-0.0046,0.0553,9.8281,0.1513,-0.0435,-0.7968
7160,821,647,34.922,33.822,-0.0834,-0.0142,9.7329,0.6005,-0.1818,-0.0162
7165,838,643,34.954,33.778,0.0906,0.0028,9.7709,-0.4267,0.19,-0.4576
7170,852,647,34.869,33.851,-0.1344,-0.0755,9.8541,0.674,-0.0215,0.1544
7175,853,644,34.908,33.795,0.0048,0.0069,9.8443,-0.8074,-0.0053,0.2531
7180,866,641,34.87,33.742,-0.0061,0.0959,9.803,0.0339,0.5913,0.5652
7185,883,638,34.837,33.822,0.0101,0.0279,9.748,0.2236,-0.079,-0.0511
7190,889,628,34.825,33.84,-0.0353,-0.0053,9.7319,-0.558,-0.0475,0.3267
7195,907,638,34.829,33.866,0.014,-0.0122,9.7991,0.2672,0.7372,0.1267
7200,913,639,34.87,33.804,0.0964,0.0423,9.7917,-0.678,-0.7835,0.5429
7205,930,634,34.829,33.858,0.0055,0.0392,9.8044,0.0885,0.2081,-0.1609
7210,953,635,34.873,33.831,-0.0228,0.0881,9.8515,0.8346,0.804,0.604
7215,962,642,34.825,33.854,0.0339,0.0309,9.7612,-0.9052,0.2026,0.1236
7220,983,644,34.863,33.827,-0.0102,0.0602,9.8236,0.0281,-0.072,-0.0547
7225,989,638,34.836,33.807,-0.1108,0.0139,9.8289,0.6174,1.341,0.6446
7230,1007,646,34.877,33.874,0.0507,0.0234,9.8311,-0.0735,0.7983,-1.0018
7235,1017,656,34.865,33.795,0.0278,-0.0055,9.7979,-0.8427,0.3087,0.6027
7240,1020,656,34.855,33.881,-0.0443,0.0747,9.8173,0.6981,0.045,-0.3461
7245,1038,665,34.878,33.893,-0.0855,0.0824,9.8257,-0.4354,-0.0503,0.0473
7250,1049,667,34.944,33.773,0.044,0.0538,9.8395,1.025,-0.3004,-0.3842
7255,1063,674,34.772,33.872,-0.0668,-0.0558,9.7752,0.2584,-0.5406,-0.6348
7260,1080,674,34.927,33.81,0.0192,0.0394,9.8326,-0.439,-0.0133,-0.4966
7265,1086,680,34.836,33.831,-0.0349,0.0046,9.8367,-0.0048,-0.1302,0.0225
7270,1096,695,34.863,33.819,-0.0305,-0.0212,9.7849,-0.7446,0.2429,-0.3921
7275,1117,700,34.824,33.754,-0.0391,-0.0409,9.8089,0.3026,-0.1475,-0.6527
7280,1121,707,34.8,33.821,0.0868,-0.0894,9.8005,0.346,-0.1237,0.3135
7285,1128,711,34.896,33.806,0.024,0.0185,9.8968,-0.6,-0.4143,0.0181
7290,1129,728,34.878,33.897,-0.032,0.0112,9.7877,-0.6158,-1.3245,-0.9368
7295,1142,726,34.867,33.786,0.0004,0.0983,9.7063,-0.3283,0.6348,0.222
7300,1149,743,34.811,33.772,0.0801,0.0115,9.7984,-0.0107,0.2937,0.0151
7305,1156,745,34.889,33.775,0.0157,-0.0502,9.8526,0.4866,0.9074,-0.6818
7310,1163,752,34.916,33.84,-0.0093,-0.0408,9.7286,0.3668,-0.2112,0.7545
7315,1157,757,34.875,33.81,0.0658,-0.0252,9.7917,0.2718,0.2782,-0.2983
7320,1174,775,34.851,33.836,0.0251,0.0654,9.8015,0.1932,0.0328,-0.5621
7325,1174,783,34.729,33.775,0.1649,-0.032,9.7624,-0.194,-0.2727,0.1919
7330,1174,788,34.901,33.878,-0.0408,0.0186,9.8277,-0.2645,-0.8896,1.7338
7335,1177,803,34.836,33.847,-0.0114,-0.007,9.7484,0.1088,-0.0273,-0.8378
7340,1181,801,34.881,33.841,-0.0677,-0.0116,9.8374,-0.159,0.2,-0.1097
7345,1194,818,34.869,33.876,-0.0286,-0.0101,9.8855,0.4617,0.1612,-0.3061
7350,1182,826,34.913,33.812,0.1068,-0.0634,9.8649,-0.0263,0.0118,-0.4389
7355,1187,829,34.876,33.87,0.0489,-0.1103,9.8266,0.5436,0.4557,-0.1514
7360,1186,841,34.886,33.87,-0.0037,-0.0594,9.8524,-0.4161,-0.5411,0.4589
7365,1190,854,34.978,33.871,0.0691,-0.0546,9.8235,0.537,0.1343,0.1608
7370,1178,852,34.878,33.829,0.0176,-0.0279,9.8826,-0.1385,-0.4048,-0.6358
7375,1187,861,34.867,33.876,0.0802,0.0662,9.768,0.0383,-0.1916,-0.3096
7380,1187,871,34.895,33.857,0.0163,0.0718,9.8164,-0.4026,-0.2596,-0.295
7385,1183,873,34.832,33.791,0.0107,0.0358,9.9099,-0.0766,0.3828,-0.8372
7390,1195,879,34.876,33.797,0.0394,0.0188,9.8102,0.1266,-0.0968,-0.6647
7395,1177,885,34.862,33.869,-0.0587,-0.0032,9.7627,0.264,0.4473,0.4478
7400,1171,887,34.842,33.803,-0.0704,0.0647,9.8001,0.2537,-0.3858,0.4518
7405,1173,890,34.91,33.758,0.0407,0.0179,9.7618,0.1013,-0.1156,0.3344
7410,1181,900,34.881,33.804,-0.0292,0.004,9.8969,-0.5602,0.286,-0.5048
7415,1171,902,34.891,33.892,-0.0338,0.003,9.8022,0.0445,0.5228,0.1655
7420,1158,901,34.927,33.782,-0.0867,0.0974,9.8245,0.4569,0.0527,-0.3072
7425,1153,909,34.92,33.864,-0.0448,-0.0191,9.8257,-0.6287,-0.0748,0.014
7430,1160,912,34.886,33.859,-0.0695,0.0632,9.8094,0.6539,-0.0058,0.4576
7435,1148,913,34.862,33.835,-0.0372,0.0952,9.7781,-0.3867,0.5329,0.003
7440,1158,917,34.928,33.806,0.0302,0.0517,9.6841,0.9034,0.6321,0.4134
7445,1145,921,34.881,33.928,-0.0078,0.0127,9.8545,-0.0407,0.5914,0.0661
7450,1128,918,34.905,33.824,0.0971,0.0134,9.7453,-0.8448,0.1264,-0.1219
7455,1133,920,34.781,33.756,0.0416,0.0022,9.7969,0.1165,0.3892,0.0429
7460,1143,927,34.866,33.864,-0.0796,-0.0138,9.8498,0.729,-0.1854,0.4697
7465,1130,926,34.718,33.921,-0.0763,-0.0062,9.705,0.5632,-0.2396,0.5021
7470,1120,921,34.96,33.824,0.0433,-0.019,9.8251,0.4267,0.0587,0.1488
7475,1121,928,34.851,33.779,0.0312,0.0592,9.7964,-0.1901,-0.5735,0.503
7480,1110,917,34.824,33.805,0.0835,-0.0565,9.7648,-0.3947,0.9568,0.2585
7485,1118,922,34.905,33.79,-0.016,-0.0023,9.7843,0.6156,-0.4028,0.0668
7490,1109,916,34.835,33.814,-0.0228,0.0084,9.8965,0.1455,-0.1556,0.1259
7495,1118,914,34.836,33.817,-0.011,0.0201,9.8223,0.2306,0.0715,0.0803
7500,1102,918,34.891,33.837,0.0088,-0.0704,9.8486,0.7924,0.593,0.0277
7505,1103,911,34.879,33.823,0.059,-0.0058,9.8344,-0.555,-0.6524,-0.1329
7510,1094,914,34.873,33.858,0.005,0.1033,9.7888,-0.7416,0.2099,-0.749
7515,1096,908,34.866,33.667,-0.0389,-0.0129,9.8426,0.0581,0.7569,-1.2689
7520,1093,908,34.828,33.822,0.0596,-0.0591,9.8661,0.322,-0.9056,0.6539
7525,1098,902,34.901,33.792,-0.0084,0.0246,9.8202,-0.261,-0.6448,-0.7341
7530,1091,902,34.868,33.802,-0.0104,0.009,9.7939,-0.7238,0.3697,0.2163
7535,1091,899,34.957,33.838,0.0935,0.016,9.7332,-0.2551,0.0938,0.2509
7540,1086,895,34.984,33.797,-0.038,-0.0124,9.8675,-0.6725,-0.6136,-0.1842
7545,1079,895,34.824,33.749,-0.022,0.0013,9.7513,-0.2882,-0.1669,-0.7455
7550,1087,894,34.919,33.888,-0.0345,-0.026,9.7106,0.6346,0.3297,0.8395
7555,1077,893,34.775,33.813,-0.0322,0.015,9.7749,0.4679,-0.1722,-0.5982
7560,1068,892,34.869,33.941,0.0328,0.037,9.8676,0.2663,1.1017,0.2765
7565,1072,886,34.935,33.82,0.0493,0.0295,9.9015,0.123,0.6416,0.1932
7570,1071,885,34.83,33.769,-0.026,-0.0752,9.8132,0.6186,-0.8076,-0.6853
7575,1070,881,34.936,33.832,0.0067,0.0082,9.7671,0.5598,0.3044,0.3738
7580,1071,880,34.869,33.811,-0.0142,-0.0042,9.7787,0.3286,0.0436,0.7268
7585,1068,871,34.8,33.856,0.0048,-0.1445,9.756,0.2127,-0.1951,0.2936
7590,1062,876,34.865,33.826,0.0261,0.0101,9.8256,-0.7432,-0.4356,1.2315
7595,1050,872,34.911,33.761,0.0355,0.0083,9.874,-0.1977,0.3687,-0.1237
7600,1055,873,34.884,33.832,-0.0209,0.0199,9.7757,-0.3894,0.0636,0.3772
7605,1048,868,34.87,33.819,0.0099,-0.0719,9.7756,0.288,0.2199,1.1013
7610,1035,870,34.938,33.894,-0.0593,0.0316,9.7542,0.9952,0.0999,0.7363
7615,1035,870,34.85,33.75,-0.012,-0.0116,9.7459,-0.3288,0.217,0.6194
7620,1017,870,34.791,33.848,-0.1176,-0.0459,9.8235,-0.2337,-0.2245,0.3807
7625,1039,858,34.829,33.901,0.0344,0.0338,9.7521,0.3781,0.1268,-0.2398
7630,1018,862,34.789,33.754,-0.0564,-0.0052,9.8143,0.0372,0.2424,0.3211
7635,1013,863,34.952,33.788,0.0187,-0.039,9.7598,-0.9383,-0.0777,0.5639
7640,1013,852,34.863,33.811,-0.0398,-0.102,9.7842,-0.0539,0.3714,0.777
7645,989,857,34.879,33.749,0.0499,0.0674,9.8608,0.3523,0.3661,-0.0915
7650,992,848,34.875,33.787,-0.0415,0.0312,9.8208,-0.7624,0.2616,0.581
7655,986,853,34.888,33.78,-0.038,0.0552,9.7172,-0.9482,0.1537,-0.1299
7660,972,853,34.855,33.917,0.0146,0.0245,9.8522,0.887,0.5398,0.0054
7665,968,850,34.832,33.855,0.0448,0.0312,9.8439,-0.8746,0.498,0.463
7670,960,851,34.953,33.759,0.0525,-0.0521,9.8296,0.7054,0.1458,0.1298
7675,941,849,34.803,33.877,-0.0562,0.065,9.8298,0.2282,-0.1136,-0.3489
7680,931,844,34.819,33.779,-0.0679,0.0789,9.8063,0.5897,-0.524,0.1607
7685,932,843,34.867,33.88,-0.0686,0.0688,9.835,-0.3343,0.6543,0.1104
7690,916,839,34.785,33.778,0.0165,0.094,9.7317,-0.1681,0.1855,0.2192
7695,905,836,34.821,33.848,-0.1024,-0.0194,9.8039,0.654,-0.3456,0.0528
7700,898,834,34.863,33.792,0.0157,-0.0356,9.8482,0.4331,0.6887,-0.7038
7705,897,837,34.971,33.878,0.0275,0.03,9.7281,0.2921,0.3864,-0.3527
7710,877,838,34.957,33.841,0.0126,-0.0191,9.7512,0.6695,-1.2119,0.2806
7715,868,829,34.869,33.893,-0.0681,0.0131,9.8608,0.6581,-0.2425,-0.2666
7720,859,825,34.822,33.904,-0.0266,-0.0034,9.7837,0.0568,-0.0166,0.3226
7725,842,820,34.803,33.797,0.0315,0.0569,9.705,-0.0105,-0.1116,0.2724
7730,851,817,34.816,33.793,-0.0117,-0.0822,9.8321,-0.2008,0.3937,-0.4836
7735,831,812,34.939,33.817,0.0245,-0.0251,9.8053,0.1331,-0.752,0.7677
7740,815,807,34.938,33.848,-0.0572,-0.0718,9.8343,-0.3693,0.0335,-0.0303
7745,807,806,34.75,33.872,0.0512,-0.0528,9.8606,0.1651,-0.3555,-0.2594
7750,806,795,34.859,33.834,-0.0364,-0.0384,9.8112,-1.1214,0.6169,0.8154
7755,795,793,34.827,33.795,0.01,-0.0041,9.7611,0.5986,-0.17,0.1362
7760,792,784,34.834,33.868,-0.0678,0.0307,9.8228,-0.6042,0.0615,0.9513
7765,779,785,34.829,33.802,0.121,-0.0199,9.7556,-0.078,0.483,-0.1166
7770,770,783,34.882,33.816,-0.0078,0.0521,9.8401,0.1292,0.5241,-1.1608
7775,774,768,34.874,33.799,-0.0713,0.004,9.7752,-0.4446,0.3059,0.136
7780,763,763,34.979,33.9,0.0327,-0.04,9.9652,0.2261,-0.1635,0.4604
7785,760,758,34.832,33.803,-0.0111,-0.1098,9.7829,0.3681,0.2817,-0.042
7790,759,756,34.882,33.859,0.0317,0.1237,9.8038,-0.3075,-0.3529,0.1418
7795,755,748,34.905,33.816,-0.041,-0.0216,9.7738,-0.0015,0.2188,-0.3605
7800,754,742,34.836,33.871,0.0179,0.0367,9.7597,-0.3934,-0.3683,-0.2019
7805,746,735,34.894,33.859,0.0256,-0.04,9.7778,-0.7485,0.447,0.1237
7810,749,731,34.798,33.773,0.0387,-0.0024,9.7502,1.026,0.4865,-0.8371
7815,746,723,34.827,33.847,-0.0023,0.0164,9.8572,-0.4434,-0.0512,0.6224
7820,750,713,34.851,33.825,0.0345,0.0464,9.8151,-0.1663,-0.2612,-0.6838
7825,743,712,34.894,33.792,-0.0746,-0.0149,9.7486,0.6161,-0.0873,-0.1264
7830,753,706,34.817,33.959,-0.1156,0.0754,9.8691,-0.5197,0.0057,-0.4066
7835,751,693,34.922,33.831,-0.0521,-0.0035,9.7344,0.2028,0.0235,0.0092
7840,754,694,34.924,33.862,-0.0869,0.0432,9.8756,0.3237,-0.2896,1.4427
7845,768,685,34.886,33.795,-0.0682,0.0177,9.8715,-0.4616,-0.3992,-0.112
7850,763,677,34.782,33.844,-0.0752,0.019,9.9586,-0.3601,-0.5571,-0.2694
7855,771,675,34.915,33.761,-0.0176,0.0096,9.7218,0.3891,0.6276,0.7952
7860,784,669,34.853,33.787,0.0539,-0.0561,9.7939,0.0325,-0.0418,-0.5159
7865,786,663,34.847,33.843,-0.0113,0.0402,9.8313,-0.542,-0.0692,1.4553
7870,804,661,34.917,33.884,-0.0074,0.0115,9.8252,0.3178,-0.5003,0.5247
7875,803,653,34.885,33.836,0.0332,-0.0379,9.8134,0.6279,0.6238,0.8497
7880,819,654,34.941,33.764,-0.0346,-0.0209,9.8717,0.5742,-0.0332,0.6276
7885,825,651,34.871,33.911,0.0197,-0.0291,9.838,0.3016,0.6643,0.6976
7890,830,640,34.892,33.858,-0.0103,-0.0378,9.7542,0.2558,0.16,0.1981
7895,845,641,34.851,33.835,-0.0558,-0.0243,9.7719,0.2288,-0.1094,0.9717
7900,858,644,34.835,33.841,0.025,0.0389,9.8405,0.0404,0.0529,0.5494
7905,866,640,34.841,33.804,-0.0202,0.0334,9.884,-0.3612,0.1005,-0.5858
7910,883,637,34.861,33.839,0.0174,0.0334,9.8284,-0.0116,-0.1175,-0.0597
7915,897,637,34.981,33.904,0.0109,0.0486,9.7437,0.0445,-0.0974,0.6811
7920,912,637,34.805,33.92,0.0503,0.0197,9.8692,-0.2653,0.0268,-0.5977
7925,921,636,34.869,33.834,-0.0367,-0.0274,9.7568,-0.3396,0.2191,-0.1484
7930,934,639,34.915,33.905,-0.0039,-0.0358,9.7176,0.0469,-0.504,0.1365
7935,954,642,34.825,33.872,-0.0203,0.0562,9.7048,-0.2141,0.0667,0.8885
7940,964,641,34.878,33.825,-0.0726,0.0337,9.8437,0.1061,0.059,0.2431
7945,971,639,34.805,33.883,-0.0639,0.0174,9.8409,-0.2419,-0.3407,0.1461
7950,987,647,34.831,33.834,-0.0715,-0.1256,9.9184,0.2835,-0.7181,-0.8165
7955,999,644,34.867,33.881,0.0456,-0.0976,9.8129,-0.0741,0.4296,0.0364
7960,1009,651,34.795,33.82,0.0281,-0.0818,9.8895,0.034,0.2437,0.4415
7965,1032,653,34.913,33.827,-0.0649,-0.0093,9.8221,0.9728,0.1889,-0.7161
7970,1037,659,34.812,33.801,0.0465,-0.0317,9.7792,-0.1374,0.0365,-0.6527
7975,1047,665,34.899,33.844,-0.0719,0.0266,9.8391,-1.3112,-0.4917,0.1823
7980,1066,672,34.966,33.707,-0.0324,-0.0015,9.8103,0.4882,0.4277,-0.297
7985,1079,681,34.861,33.856,0.012,0.0184,9.8898,0.2617,0.0768,-0.1267
7990,1087,688,34.761,33.819,0.0645,-0.0356,9.8058,-0.2658,0.531,0.5655
7995,1098,696,34.908,33.805,0.0224,-0.0188,9.804,0.5926,-0.0286,-0.1135
8000,1097,696,34.868,33.858,-0.0286,-0.004,9.8091,-0.5812,-0.0912,-0.0266
8005,1120,706,34.861,33.79,-0.0491,0.0315,9.8948,0.0642,0.009,0.3024
8010,1128,712,34.946,33.781,0.0069,0.0228,9.8699,0.4135,-0.1655,0.5214
8015,1134,723,34.846,33.864,0.0204,-0.0338,9.8492,0.3192,0.2755,0.4295
8020,1137,729,34.838,33.836,0.0168,-0.0629,9.7934,-0.6934,0.3371,-0.5202
8025,1146,732,34.884,33.867,0.0312,0.0128,9.8111,-0.2033,-0.2903,-0.0507
8029,1154,746,34.859,33.756,-0.0241,-0.0283,9.8352,0.0595,0.4125,-0.9034
8035,1157,752,34.882,33.849,-0.0061,0.0254,9.7899,-0.064,0.3086,0.5394
8039,1166,761,34.817,33.871,0.0339,0.0597,9.7973,-0.2438,-0.0797,-0.1529
8045,1170,778,34.852,33.846,0.0104,0.0258,9.7831,0.2797,-0.2304,0.2107
8050,1172,777,34.824,33.827,0.0304,0.0231,9.802,0.2116,-0.2713,-0.3195
8055,1187,785,34.949,33.748,0.033,-0.0424,9.8469,-0.1521,-0.0294,0.4559
8060,1175,799,34.853,33.875,0.0511,-0.0205,9.8261,0.5225,-0.1669,-0.0719
8064,1190,807,34.956,33.835,-0.037,0.032,9.7731,0.4354,-0.3252,0.4391
8070,1195,816,34.856,33.845,0.0752,-0.0247,9.8277,-0.1094,-0.6433,1.0044
8074,1195,823,34.932,33.717,0.0124,0.0247,9.7995,-1.0514,-0.636,0.3474
8080,1187,833,34.872,33.8,0.038,0.0304,9.7772,0.2868,0.0233,-0.8722
8085,1193,840,34.864,33.836,0.0364,-0.0235,9.8416,0.4676,0.5704,0.3998
8090,1192,844,34.905,33.766,-0.0366,0.1205,9.7543,-0.261,0.4419,-0.7245
8095,1192,854,34.853,33.841,0.0521,0.0801,9.8566,0.3816,0.0299,0.6221
8100,1179,859,34.901,33.802,-0.021,-0.0431,9.9659,-0.1749,0.1859,0.0713
8105,1178,871,34.968,33.854,0.0313,-0.0384,9.8511,0.4423,-0.1366,-0.3166
8109,1174,879,34.885,33.868,-0.1,-0.0126,9.8477,-0.8801,-0.2366,0.7655
8115,1174,881,34.953,33.816,0.0595,0.0778,9.7529,-0.6765,-1.373,-0.1188
8119,1177,886,34.958,33.813,-0.0517,-0.002,9.779,-0.5884,0.6185,-0.0715
8125,1173,890,34.853,33.923,-0.1315,0.0618,9.7614,0.4708,-0.0292,0.6638
8130,1176,890,34.87,33.857,0.0078,-0.0,9.8108,0.0882,-0.3823,-0.6743
8135,1169,899,34.874,33.805,-0.0095,-0.0059,9.8151,-0.2657,-0.1468,0.2165
8140,1156,905,34.883,33.885,-0.0156,0.1105,9.8036,-0.3392,-0.042,-0.5554
8145,1165,900,34.901,33.888,-0.0357,-0.0407,9.7686,-0.4524,-0.0758,-0.4925
8150,1167,912,34.827,33.884,0.0399,0.03,9.8745,-0.1314,0.4774,-0.7727
8154,1158,914,34.893,33.874,-0.0538,-0.0741,9.8597,0.5121,-0.542,-0.0322
8160,1148,918,34.892,33.821,-0.0201,-0.0549,9.825,-0.0359,0.172,0.4427
8164,1137,915,34.929,33.797,-0.0512,0.0427,9.8037,-0.198,0.5336,-0.5161
8170,1147,922,34.877,33.881,0.0814,-0.1307,9.8497,-0.1834,-0.4728,1.1204
8175,1140,924,34.864,33.873,-0.1267,-0.0191,9.8636,-0.6977,0.1084,-0.2289
8180,1135,920,34.799,33.911,-0.0422,0.0092,9.7564,-0.0993,-0.5604,0.0215
8185,1136,923,34.889,33.856,-0.0251,-0.1248,9.895,-0.0792,-0.276,0.5093
8189,1129,923,34.886,33.887,0.1223,-0.0038,9.778,-0.6526,0.931,-0.426
8195,1122,923,34.852,33.882,0.0011,0.0719,9.7651,-0.9031,0.1175,-0.6385
8200,1126,919,34.895,33.911,0.0415,-0.0299,9.8188,0.1807,-0.3948,0.0861
8205,1125,918,34.915,33.87,-0.0563,0.0321,9.7531,0.167,-0.275,0.9023
8210,1115,923,34.896,33.929,0.0308,0.0273,9.8088,0.1521,-0.7245,-0.0607
8215,1112,924,34.922,33.805,-0.0484,0.02,9.7941,-0.6129,-0.7078,-0.3736
8220,1102,913,34.881,33.853,0.0609,0.0251,9.7434,0.5479,0.7096,-0.3467
8225,1121,912,34.856,33.844,0.0093,0.0938,9.734,-0.0195,0.8892,-0.5874
8230,1104,919,34.933,33.762,-0.0587,0.0242,9.8638,1.2877,0.5492,-0.0855
8235,1098,915,35.005,33.924,-0.0333,-0.0339,9.8103,-0.1678,0.5335,0.5578
8240,1108,906,34.903,33.829,-0.0326,0.0666,9.6928,0.4624,-0.0214,-0.3762
8245,1106,913,34.823,33.762,-0.0856,-0.0298,9.8456,-0.4035,-0.631,-0.188
8250,1093,898,34.877,33.828,0.0,-0.0218,9.8708,0.86,-0.4849,0.5202
8255,1085,898,34.815,33.758,0.0714,0.1197,9.8683,0.598,0.1623,-0.1429
8260,1084,900,34.88,33.767,-0.065,-0.0734,9.7673,-0.7511,-0.3927,0.5144
8265,1090,898,34.863,33.877,0.0739,-0.0083,9.9105,0.3385,0.1431,0.8721
8270,1087,898,34.948,33.819,-0.0459,-0.009,9.8486,-0.1007,0.4029,0.642
8275,1082,889,34.909,33.777,-0.0283,0.0633,9.8779,0.6911,0.8269,-0.2803
8280,1078,888,34.922,33.849,0.0195,0.0343,9.8049,-0.5335,0.3075,0.2653
8285,1081,890,34.849,33.873,-0.0616,-0.0186,9.8121,-0.0624,-0.6183,0.5148
8290,1074,886,34.89,33.872,-0.0532,-0.0702,9.6984,-0.3754,-0.2196,-0.3727
8295,1070,886,34.847,33.828,-0.0003,-0.0186,9.8217,0.1481,-0.7478,-0.6542
8300,1071,880,34.846,33.781,0.0089,-0.0014,9.8431,0.2925,-0.3706,-0.6026
8305,1068,880,34.858,33.864,-0.021,-0.0647,9.7414,-0.3276,-0.0708,-0.0336
8310,1059,872,34.879,33.917,-0.0092,0.0431,9.7438,-0.6773,0.3254,1.2384
8315,1059,869,34.858,33.918,0.0301,-0.0207,9.7822,0.0556,0.1485,-0.414
8320,1047,878,34.834,33.81,-0.0162,-0.0253,9.7659,0.338,-0.0969,-0.0821
8325,1046,872,34.928,33.856,-0.0137,-0.0005,9.8349,-0.0592,0.4536,0.3069
8330,1049,868,34.93,33.774,-0.0202,-0.0366,9.7573,-0.4968,0.8901,0.4544
8335,1043,868,34.925,33.747,0.0847,-0.0238,9.893,-0.3121,0.9857,0.166
8340,1038,865,34.941,33.814,0.0988,-0.0168,9.7526,-0.6591,-0.0101,-0.1031
8345,1026,865,34.888,33.758,-0.0304,0.0192,9.8425,-0.0493,0.6459,0.4746
8350,1030,863,34.84,33.808,-0.0526,-0.0394,9.826,-0.2334,0.0507,-0.1499
8355,1010,862,34.851,33.833,0.0212,-0.0673,9.8624,-0.3968,0.4223,0.4059
8360,1016,862,34.922,33.821,0.0198,-0.0772,9.791,0.5746,-0.1638,0.1907
8365,1003,862,34.851,33.756,-0.0851,-0.0113,9.7652,-0.2382,-0.5586,0.4963
8370,1002,859,34.849,33.798,-0.0721,0.0695,9.7948,0.8742,0.0761,0.4174
8375,983,853,34.923,33.892,-0.0031,-0.053,9.6672,-0.3821,0.7993,0.5684
8380,975,857,34.934,33.895,0.0478,0.061,9.7178,-0.1491,-0.8368,-0.0291
8385,979,852,34.892,33.842,-0.0357,-0.0289,9.7197,-0.9599,0.3348,-0.6119
8390,960,855,34.881,33.887,-0.0197,-0.0641,9.7958,-0.1332,-0.6314,-0.1519
8395,954,848,34.805,33.898,0.02,-0.0484,9.8017,-0.076,0.5715,0.207
8400,953,847,34.814,33.846,0.036,0.0517,9.7809,0.3003,0.3464,-0.3443
8405,932,844,34.944,33.823,0.0041,0.013,9.8026,0.1839,-0.6719,1.1645
8410,927,844,34.864,33.851,0.0384,-0.0397,9.7653,-0.1975,0.3151,-0.1581
8415,908,843,34.859,33.825,-0.0292,0.015,9.7136,0.5578,-0.0435,-0.0921
8420,905,841,34.855,33.838,-0.0193,0.0129,9.8746,-0.6499,0.0242,-0.7946
8425,891,834,34.878,33.85,-0.0883,0.0727,9.802,-0.3387,0.6359,0.8596
