timestamp_ms,ir_finger,ir_toe,temp_finger,temp_toe,ax,ay,az,gx,gy,gz
0,1033,680,34.47,33.518,-0.0213,0.0291,9.7414,-0.2934,0.3069,0.4729
5,1054,686,34.463,33.471,-0.1121,0.0041,9.7715,0.0517,0.5017,0.8027
10,1057,689,34.482,33.475,-0.0027,-0.0111,9.7839,-0.4827,-0.0551,0.7532
15,1067,699,34.404,33.567,0.0669,-0.0281,9.8025,-0.0672,-0.7632,-0.1863
20,1074,698,34.505,33.456,0.1009,0.0277,9.8165,-0.9546,-0.0983,-0.342
25,1094,697,34.37,33.57,0.0083,-0.022,9.7953,-0.3503,0.2252,-0.4585
30,1085,707,34.419,33.513,0.0941,-0.0345,9.8515,0.443,0.1241,-0.1046
35,1096,710,34.431,33.582,-0.048,0.0129,9.8183,0.0743,0.1148,0.1307
40,1119,718,34.522,33.559,-0.0004,-0.0182,9.7426,0.3494,-0.5345,-0.0638
45,1122,722,34.504,33.564,0.0373,-0.045,9.872,-0.2065,0.2176,-0.3598
50,1126,726,34.426,33.571,0.0342,0.0009,9.7311,-0.1889,-0.3086,-0.1661
55,1133,735,34.503,33.582,-0.036,0.0008,9.7769,0.6059,-0.1084,0.1501
60,1140,739,34.432,33.556,-0.0441,-0.0295,9.7246,0.6414,-0.1954,-0.6329
65,1140,743,34.561,33.494,-0.0017,0.0583,9.742,0.2228,-0.4969,-0.4446
70,1144,746,34.457,33.571,0.0385,0.0158,9.7482,-0.8161,-0.978,0.4224
75,1155,751,34.441,33.446,-0.0095,-0.0898,9.8222,0.0289,-0.601,-0.324
80,1160,762,34.398,33.576,-0.006,-0.0284,9.8247,0.1336,-0.4156,0.4796
85,1160,766,34.46,33.456,-0.0233,0.0091,9.8025,0.404,-0.5773,0.7579
90,1173,773,34.405,33.524,0.0696,0.0068,9.8432,0.361,0.0208,-0.1297
95,1167,778,34.489,33.607,-0.0568,-0.0175,9.7468,1.0045,-0.6476,0.3391
100,1168,788,34.491,33.594,0.01,-0.0158,9.8401,0.2833,-0.43,0.6993
105,1169,793,34.464,33.605,0.0023,0.0767,9.8786,0.5322,0.414,0.5711
110,1180,796,34.491,33.401,0.0318,-0.0231,9.8218,0.505,0.2515,-0.3505
115,1181,804,34.413,33.641,0.0628,0.006,9.7328,0.2639,-0.4485,-0.0745
120,1180,805,34.431,33.571,-0.0213,0.0307,9.7392,-0.3327,-0.9583,0.3644
125,1187,816,34.485,33.559,-0.0185,-0.1289,9.7538,0.7764,0.4305,0.5244
130,1186,821,34.413,33.491,0.0028,0.0168,9.6991,-0.1105,0.7948,-0.1702
135,1192,826,34.442,33.526,0.032,0.0071,9.668,-0.1614,-0.1317,0.4427
140,1193,832,34.414,33.556,-0.0731,0.0479,9.8116,-0.91,-0.7754,-0.1698
145,1200,836,34.464,33.434,0.1075,0.0148,9.8449,-0.263,-0.0151,-0.1779
150,1183,838,34.462,33.496,-0.0109,-0.0825,9.8354,0.3267,-0.3393,-0.7008
155,1187,847,34.447,33.472,-0.021,-0.0928,9.7946,-0.9203,0.2129,0.5412
160,1186,853,34.51,33.546,-0.0584,-0.0069,9.7889,-0.523,1.1322,-0.5783
165,1184,858,34.44,33.495,0.0228,-0.0547,9.823,-0.3555,0.5603,-0.2352
170,1185,862,34.433,33.535,0.0228,0.0232,9.8905,0.2549,-0.5097,-1.0368
175,1181,865,34.453,33.547,-0.0427,-0.0365,9.8122,-0.2138,0.0285,0.1361
180,1183,871,34.435,33.405,0.0725,-0.0184,9.7935,0.3431,-0.2724,0.5149
185,1182,869,34.543,33.525,-0.0049,-0.0807,9.788,-0.0046,-0.3904,-0.6732
190,1176,878,34.454,33.511,-0.1043,0.0315,9.8236,0.4281,0.1213,-0.1022
195,1178,880,34.494,33.574,-0.0268,0.0059,9.7384,0.3172,0.5326,0.5495
200,1174,886,34.373,33.505,-0.03,-0.0518,9.7855,0.1457,-0.0928,0.1906
205,1176,883,34.431,33.522,0.0964,0.0104,9.8266,1.2332,0.1338,1.8154
210,1178,891,34.412,33.492,-0.0075,0.0193,9.7823,0.1051,0.3676,0.0855
215,1167,891,34.424,33.461,0.0541,-0.0561,9.7535,-0.1332,-0.1079,-0.0668
220,1164,887,34.486,33.605,-0.0528,-0.0201,9.8913,0.7743,-0.1255,0.0704
225,1165,896,34.421,33.587,0.0416,0.0095,9.8356,0.2053,1.1017,0.145
230,1146,898,34.322,33.535,-0.0168,0.0056,9.8306,0.2244,0.23,0.0835
235,1164,903,34.414,33.601,-0.0374,0.0213,9.7932,0.3451,0.4574,0.1641
240,1158,903,34.442,33.65,0.0188,-0.0134,9.7928,0.1645,-0.6401,-0.3584
245,1159,907,34.416,33.493,-0.0361,0.0594,9.7139,-0.0076,0.7265,0.0295
250,1158,906,34.5,33.607,0.0014,-0.0299,9.8277,0.4711,0.1432,-0.2284
255,1145,905,34.422,33.527,-0.0411,-0.0227,9.8544,0.4643,0.553,-0.0969
260,1136,914,34.45,33.464,-0.052,-0.0128,9.8722,0.3683,0.9988,0.2497
265,1141,907,34.344,33.579,0.0266,-0.0416,9.7068,-0.455,0.2309,-0.7346
270,1137,912,34.501,33.526,0.0182,0.0069,9.7962,0.1889,-0.4707,-0.8569
275,1138,906,34.458,33.53,-0.0791,-0.0222,9.8323,0.3885,0.4741,-0.3813
280,1130,906,34.473,33.513,0.0013,-0.0088,9.7986,-1.0422,0.7369,-0.609
285,1133,910,34.451,33.565,-0.0171,-0.0132,9.7246,0.0323,0.6237,0.5848
290,1124,908,34.426,33.576,0.0213,0.13,9.7939,-0.5123,-0.6776,0.439
295,1127,907,34.494,33.6,0.0121,-0.1072,9.8281,0.1398,-0.7249,0.0474
300,1127,906,34.446,33.545,0.0074,0.043,9.7844,-0.0503,0.2366,0.1437
305,1110,909,34.416,33.556,-0.0378,0.0885,9.8507,-0.252,-0.6969,-0.38
310,1119,906,34.48,33.514,-0.0261,-0.0605,9.8098,0.1668,1.1411,0.0014
315,1122,902,34.567,33.486,-0.0484,0.0656,9.9026,0.1996,-0.9072,0.0713
320,1109,905,34.403,33.518,0.0056,0.0224,9.9287,-0.2825,-0.2805,-0.6485
325,1112,905,34.501,33.438,0.0196,0.1168,9.7966,-0.3712,0.232,0.8624
330,1098,905,34.455,33.557,0.0003,-0.0808,9.7932,-0.5935,0.3551,-0.2153
335,1107,898,34.509,33.578,-0.0352,-0.0947,9.7921,-1.1485,0.0478,0.1116
340,1102,905,34.441,33.459,-0.0141,-0.0367,9.8703,0.2338,-0.1652,-0.0613
345,1102,902,34.469,33.543,0.0005,0.0795,9.8456,-0.8512,-0.4301,0.3463
350,1104,900,34.477,33.476,-0.0518,0.0259,9.7953,-0.6939,-0.39,-0.1072
355,1107,900,34.402,33.532,0.0083,-0.0296,9.8402,0.5831,0.2867,-0.313
360,1098,895,34.441,33.506,0.0511,-0.0183,9.8459,0.2322,0.0465,-0.1084
365,1090,899,34.434,33.453,0.034,0.0389,9.8167,-0.3332,0.0639,1.1789
370,1093,892,34.38,33.568,0.0027,-0.0011,9.8725,-0.3165,-0.4602,-0.9208
375,1089,891,34.358,33.521,0.0101,0.0402,9.8286,0.2801,0.0754,-0.1012
380,1092,888,34.411,33.537,0.0353,0.0077,9.8577,-0.6588,-0.7716,-0.0272
385,1096,886,34.509,33.528,-0.022,-0.039,9.8018,-0.4171,-0.1294,-0.5762
390,1090,888,34.47,33.526,0.0047,0.1159,9.8617,0.4793,0.2269,-0.1383
395,1094,886,34.505,33.595,0.0192,-0.0174,9.8185,0.1424,0.9132,-0.0536
400,1084,885,34.47,33.628,0.0361,-0.0093,9.8906,0.9611,-0.1558,0.3069
405,1085,876,34.445,33.557,-0.0004,0.0584,9.7628,-0.0671,-0.0662,-0.791
410,1075,882,34.401,33.592,0.0242,-0.0002,9.789,-0.4245,-0.082,0.612
415,1079,879,34.506,33.506,0.0324,-0.0493,9.7884,-0.3416,0.0437,0.2702
420,1077,871,34.52,33.599,-0.007,0.0058,9.8226,-0.1982,1.2036,-0.2802
425,1074,879,34.426,33.576,0.0154,0.0537,9.7906,0.1563,-0.2296,-0.5859
430,1076,874,34.46,33.516,-0.0437,-0.016,9.8691,-0.0715,0.0252,-0.3282
435,1081,874,34.428,33.475,0.0587,-0.0529,9.9328,0.4541,0.1713,-0.0676
440,1073,872,34.426,33.427,-0.0595,0.0271,9.8561,0.1406,-0.072,-0.9266
445,1060,873,34.453,33.558,-0.0127,-0.0082,9.7389,-0.6966,-0.4754,0.9645
450,1059,864,34.473,33.536,0.0093,0.0013,9.7664,0.0414,0.0349,0.58
455,1060,864,34.445,33.633,-0.0995,-0.0599,9.7595,-1.2587,0.0943,-1.1387
460,1050,865,34.429,33.51,-0.0245,-0.0236,9.8004,0.72,-0.2559,-1.007
465,1056,862,34.407,33.494,-0.0696,-0.0499,9.7913,-0.2353,-0.1348,-0.0525
470,1050,858,34.377,33.536,-0.0282,-0.0448,9.8216,-0.0911,0.5084,-0.565
475,1040,866,34.429,33.498,-0.0074,0.018,9.8975,1.2362,0.2254,-0.5652
480,1036,861,34.457,33.552,0.0916,-0.0186,9.813,-0.174,0.0167,0.4803
485,1031,855,34.469,33.45,0.0406,-0.0471,9.8616,0.0927,-0.2771,0.6977
490,1026,856,34.454,33.44,-0.0194,-0.0033,9.8684,0.5842,0.1048,0.45
495,1026,863,34.533,33.576,0.0074,0.0309,9.7403,-0.3756,-0.3707,0.1735
500,1028,858,34.463,33.612,-0.041,0.0488,9.8021,-0.6781,0.4818,0.4887
505,1012,854,34.312,33.458,0.0384,0.0161,9.7799,-0.8503,-0.7349,-0.642
510,1018,856,34.445,33.581,-0.0102,0.0,9.8599,-0.4666,-0.8666,-0.4396
515,1008,848,34.466,33.54,0.0774,-0.0055,9.9351,0.5127,0.2313,-0.2805
520,1002,849,34.438,33.533,0.0092,-0.0176,9.8306,-0.0422,-0.3065,0.1101
525,982,850,34.475,33.532,-0.0255,-0.0448,9.774,0.1994,-0.6677,-0.1546
530,988,851,34.505,33.57,0.0133,-0.0287,9.7804,-0.3892,0.3859,0.8656
535,974,844,34.423,33.532,0.0478,0.0569,9.8693,-0.4145,-0.7887,-0.2143
540,978,851,34.447,33.569,0.0842,0.0692,9.8785,0.1445,-0.5931,-0.7104
545,968,848,34.492,33.528,-0.041,-0.0118,9.892,0.0681,-0.0652,-0.1174
550,955,843,34.533,33.561,-0.0719,-0.0763,9.7124,0.0477,0.2999,-0.2898
555,953,847,34.495,33.548,-0.042,0.0489,9.7662,0.3847,-0.1813,-0.6521
560,948,842,34.448,33.542,-0.0139,-0.0527,9.8226,-0.2176,-0.7137,-0.9252
565,936,831,34.505,33.552,0.0169,-0.0433,9.901,-0.2104,-0.4316,0.0844
570,943,841,34.468,33.519,0.0708,0.0328,9.7772,0.1516,0.3922,-0.354
575,928,834,34.472,33.457,0.0108,-0.0193,9.8461,0.0167,0.2916,0.0612
580,908,838,34.414,33.568,0.015,0.0877,9.7812,-0.2311,0.1558,-0.1669
585,908,838,34.437,33.62,-0.0562,0.0824,9.8304,-0.203,0.3119,0.9983
590,902,828,34.397,33.501,-0.0097,0.068,9.8792,-0.4636,0.0553,0.0195
595,898,828,34.558,33.518,0.112,-0.0042,9.8103,0.0065,-0.4021,-0.3667
600,886,824,34.448,33.537,-0.0314,0.0284,9.8253,0.251,-0.2949,-1.0103
605,890,832,34.437,33.463,0.0255,-0.0195,9.7794,-0.0005,-0.6146,-0.4288
610,866,824,34.312,33.557,0.0197,-0.0493,9.7618,0.176,0.2899,0.3854
615,868,819,34.376,33.587,-0.0325,0.0354,9.8164,0.8939,0.4494,-0.4054
620,857,819,34.434,33.548,-0.0329,-0.0205,9.8198,0.0816,-0.965,0.7525
625,860,814,34.445,33.538,0.0647,0.0471,9.8424,-0.1524,-0.3187,0.8797
630,845,815,34.389,33.485,-0.0408,-0.0202,9.8268,0.3432,0.3922,-0.0465
635,836,811,34.46,33.511,-0.0873,-0.1121,9.8762,0.1355,0.1676,-0.3228
640,833,811,34.421,33.568,-0.0158,0.024,9.8495,-0.0518,0.4397,1.0182
645,825,807,34.436,33.581,0.0083,-0.0041,9.7692,0.2957,0.0611,0.1606
650,818,803,34.419,33.473,0.021,-0.0285,9.7888,-0.1767,0.5754,0.4471
655,803,797,34.363,33.597,-0.0318,-0.0385,9.7997,0.2982,0.0741,0.3046
660,809,791,34.468,33.625,0.0656,0.0538,9.7571,0.0574,1.3259,-0.3071
665,805,791,34.479,33.489,-0.0039,0.0427,9.7458,-0.306,0.6133,-0.0023
670,793,787,34.491,33.529,0.0021,0.0612,9.8227,0.6962,0.2926,-0.3493
675,785,782,34.42,33.549,-0.0509,-0.0099,9.8598,-0.4363,0.0525,0.5624
680,779,783,34.459,33.457,0.0302,0.0914,9.7455,0.5922,-0.4953,-0.1186
685,777,774,34.479,33.507,-0.0013,0.0475,9.9055,-0.1235,0.9377,0.2604
690,775,770,34.413,33.536,0.0295,-0.0609,9.7941,0.3845,-0.9125,-0.4713
695,756,764,34.434,33.558,0.0228,-0.0512,9.7923,0.6338,0.7435,-0.6827
700,772,768,34.388,33.566,0.0303,0.0388,9.7369,0.6861,0.0346,-0.4085
705,759,760,34.522,33.499,-0.0673,-0.024,9.9145,0.5953,0.6371,0.3679
710,760,751,34.421,33.474,-0.0363,-0.0186,9.7962,0.4906,-0.8646,-0.3603
715,751,751,34.456,33.47,-0.0509,0.0282,9.8135,1.0087,0.7073,0.4229
720,749,745,34.506,33.653,-0.0314,-0.0068,9.8102,0.0754,-0.0105,0.1207
725,756,739,34.373,33.644,-0.0165,0.0433,9.8016,0.0369,-0.2442,-0.17
730,757,741,34.497,33.465,0.0339,0.0141,9.8065,-0.1247,0.0804,0.3014
735,750,739,34.484,33.53,0.1384,0.0442,9.7916,-0.134,-0.5874,0.8013
740,745,736,34.441,33.498,-0.0137,0.0828,9.7708,0.3844,-0.7573,-0.2292
745,750,721,34.452,33.537,0.0487,0.0178,9.7465,0.8573,0.1665,1.0076
750,744,724,34.493,33.47,0.0442,-0.0364,9.7726,0.2259,0.2518,0.8521
755,748,717,34.463,33.474,0.03,0.0982,9.7596,0.3019,0.6203,0.3588
760,753,713,34.436,33.478,0.0192,0.0144,9.7443,-0.3194,-0.1858,-0.5986
765,754,705,34.437,33.496,-0.0621,0.0263,9.7416,0.44,-0.7017,0.2601
770,746,705,34.459,33.558,-0.0035,0.0941,9.8121,0.2608,-0.0709,0.2862
775,755,701,34.412,33.524,0.0207,-0.0155,9.7578,0.6721,0.5286,-0.0551
780,760,694,34.477,33.443,0.0941,0.0328,9.768,-0.5034,-0.3636,-0.5777
785,758,693,34.481,33.538,-0.0516,0.1212,9.8092,0.1985,-0.2891,0.3882
790,767,689,34.454,33.618,0.0055,-0.0263,9.7407,-0.2481,0.6517,-0.4965
795,772,683,34.48,33.547,-0.0016,-0.026,9.7707,-0.4301,0.9279,-0.3639
800,773,683,34.427,33.458,-0.0484,-0.0141,9.7122,-0.699,0.3034,0.5674
805,787,675,34.506,33.541,-0.0665,-0.0623,9.7768,0.1462,-0.5023,0.5787
810,797,674,34.513,33.461,-0.0424,0.0194,9.8752,-0.8707,-0.2064,-0.1407
815,800,672,34.439,33.615,0.0404,0.0559,9.8627,0.3787,0.0817,0.2158
820,799,671,34.491,33.625,-0.0054,-0.059,9.7836,-1.0204,-0.4076,-0.2335
825,800,667,34.514,33.503,-0.0799,0.0401,9.7547,-0.5831,-0.6801,0.1784
830,822,659,34.422,33.562,-0.02,-0.0954,9.7344,0.6218,0.1025,0.4816
835,822,663,34.5,33.567,0.041,-0.0447,9.8335,-0.265,-0.7624,0.5884
840,827,658,34.443,33.575,0.0073,0.0262,9.8081,0.8518,-0.2428,0.1057
845,837,657,34.468,33.526,0.0392,0.0527,9.8137,-0.2347,0.8931,0.5967
850,843,656,34.404,33.521,-0.0024,-0.0504,9.829,0.2816,-0.2666,-0.2553
855,851,656,34.475,33.561,0.0292,-0.0853,9.797,-0.5189,0.1135,-0.0863
860,858,651,34.399,33.527,-0.0437,-0.0369,9.7041,-0.3457,-0.1611,0.3529
865,879,652,34.362,33.576,0.021,-0.0806,9.7834,-0.6275,1.5548,0.2863
870,890,655,34.551,33.521,0.0092,-0.0529,9.8619,-0.0976,0.5444,0.2089
875,896,654,34.523,33.501,0.0324,-0.0199,9.7968,-0.6102,-0.4589,-0.0704
880,898,649,34.42,33.476,-0.1058,-0.0454,9.7958,-0.341,-0.1341,0.5042
885,912,651,34.396,33.561,0.0177,0.0709,9.8023,0.0484,-0.9159,-0.2278
890,925,658,34.533,33.493,-0.0052,-0.0148,9.8123,-0.3346,-0.3603,0.2145
895,932,650,34.368,33.623,0.0389,-0.0284,9.7691,0.6987,0.6519,-0.3871
900,943,658,34.527,33.515,0.0075,0.1055,9.8466,0.3193,0.0122,-0.0498
905,953,654,34.526,33.553,-0.0997,0.0239,9.8398,0.527,0.1377,0.0168
910,965,660,34.426,33.568,0.0161,0.012,9.8124,-0.8307,0.2725,1.1729
915,975,656,34.497,33.537,-0.073,-0.0393,9.8326,-0.3096,0.8421,-0.0376
920,992,664,34.547,33.528,-0.059,0.0272,9.8767,-0.0981,0.2455,-0.6121
925,994,666,34.537,33.525,-0.0688,-0.0462,9.7536,0.2913,-0.7798,0.6428
930,1005,663,34.523,33.494,-0.0126,-0.0018,9.8098,-1.4756,-0.4473,-0.4708
935,1015,670,34.393,33.515,0.0311,-0.0332,9.7783,-0.3498,-0.1071,-0.123
940,1034,671,34.395,33.546,-0.0577,-0.0149,9.7811,0.4043,0.209,-0.1581
945,1032,682,34.461,33.549,0.108,-0.0611,9.8167,0.6016,-0.4526,-0.5016
950,1045,681,34.414,33.476,-0.1507,-0.0628,9.8246,-0.4866,0.0634,-0.0855
955,1061,685,34.515,33.576,0.0665,0.0395,9.6936,-0.4367,-0.6024,0.3025
960,1061,690,34.385,33.426,-0.0787,0.0464,9.7698,-0.1846,-0.3898,0.4445
965,1072,696,34.472,33.507,-0.0022,0.0214,9.8025,-0.5225,-0.2506,-0.9606
970,1072,702,34.528,33.565,-0.0007,0.0162,9.8176,0.2414,0.3987,0.1533
975,1097,699,34.461,33.503,-0.0031,-0.0478,9.7092,-0.3617,1.1916,1.1082
980,1098,705,34.489,33.584,0.0287,0.0735,9.739,-0.1317,0.1184,0.4669
985,1101,713,34.556,33.51,0.0379,-0.0182,9.823,0.349,-0.0428,0.1628
990,1120,719,34.415,33.527,-0.0284,-0.0706,9.8905,-0.5311,-0.8069,0.079
995,1113,721,34.444,33.568,-0.0396,0.0823,9.7912,-0.3046,1.0557,0.0447
1000,1125,729,34.475,33.5,0.0454,0.0965,9.708,0.022,-0.384,0.7817
1004,1139,732,34.514,33.581,-0.1204,0.0127,9.8592,0.0714,0.0341,-0.056
1010,1131,740,34.486,33.422,-0.0826,-0.0057,9.773,-0.3662,0.4919,-0.2828
1014,1147,740,34.483,33.493,-0.0329,0.024,9.7868,0.2389,-0.3375,0.8829
1020,1156,751,34.502,33.507,-0.0165,0.0198,9.8371,-0.1232,-0.2535,0.4589
1025,1151,757,34.511,33.581,0.0239,-0.0644,9.7518,-0.4072,-1.8546,-0.2356
1030,1151,762,34.493,33.569,0.022,0.0395,9.8133,0.1287,1.2637,0.9726
1035,1156,759,34.42,33.614,-0.0005,0.0171,9.7775,-0.0858,0.1353,0.6976
1040,1169,780,34.485,33.563,0.0097,-0.0186,9.8163,-0.5309,0.0194,0.2841
1045,1173,783,34.353,33.505,0.0543,-0.0001,9.8675,0.4188,-0.2139,-0.9145
1050,1172,792,34.529,33.531,-0.0765,0.0111,9.811,-0.6969,0.212,-0.8201
1055,1180,793,34.464,33.599,-0.0088,0.0424,9.844,-0.7311,-0.3537,-0.3671
1060,1187,798,34.473,33.504,-0.0242,0.0682,9.9022,-0.1523,-0.5551,-0.0811
1065,1186,804,34.463,33.492,0.047,-0.0344,9.862,0.8145,0.2067,0.2942
1070,1181,816,34.555,33.52,-0.0161,-0.0347,9.8783,0.1732,-0.3468,-0.3971
1075,1183,818,34.459,33.462,0.0809,0.0302,9.7581,-1.021,-0.7547,0.3235
1080,1191,822,34.478,33.512,-0.0011,-0.0023,9.7713,-0.3683,0.0198,-0.21
1085,1188,826,34.548,33.584,-0.0145,0.0758,9.8504,-0.1573,-0.0824,0.3777
1090,1180,832,34.505,33.578,0.0909,0.0056,9.8033,-0.5738,-0.0321,0.7901
1095,1184,843,34.463,33.544,0.0099,0.0746,9.8283,0.3912,0.3243,0.6474
1100,1192,844,34.395,33.555,-0.099,0.0245,9.8169,-1.0082,-0.2868,0.2547
1105,1197,851,34.442,33.484,-0.0845,-0.0345,9.8163,0.4206,0.2956,0.8423
1110,1191,856,34.53,33.521,-0.0567,0.0519,9.8066,-0.1665,-0.0849,0.4799
1115,1192,863,34.443,33.549,-0.0254,-0.0382,9.7726,0.3791,0.5235,-0.3672
1120,1192,862,34.433,33.577,0.062,0.0011,9.7801,0.2184,0.6403,0.2726
1125,1191,864,34.46,33.536,-0.0328,-0.026,9.7585,0.2425,0.5766,-0.5282
1130,1183,868,34.442,33.559,0.0101,0.0298,9.8339,0.2815,-0.4736,-0.0636
1135,1184,879,34.451,33.452,0.0431,-0.0276,9.8272,0.1774,0.1838,0.3208
1140,1183,878,34.51,33.554,0.0225,0.022,9.8259,0.3017,0.0928,0.1054
1145,1176,883,34.412,33.524,0.1317,0.024,9.7982,-0.1148,-0.3421,0.4595
1150,1173,887,34.427,33.504,-0.0799,-0.004,9.9042,-0.1933,-0.9382,0.4263
1155,1172,889,34.457,33.526,0.0119,-0.0471,9.7789,-0.9993,-0.0574,0.8405
1160,1168,891,34.374,33.503,0.0069,-0.0509,9.9055,-0.3097,-0.1036,0.4765
1165,1165,889,34.42,33.523,-0.1204,-0.0141,9.9133,-0.3132,0.3186,1.5988
1170,1176,892,34.5,33.591,-0.0355,0.0614,9.6941,-0.0265,-0.9284,0.113
1175,1164,897,34.386,33.486,0.0323,-0.0015,9.8634,-0.2739,-0.1417,-0.1156
1180,1155,898,34.44,33.595,0.0397,0.0464,9.814,-0.1912,0.5587,-0.6696
1185,1151,906,34.456,33.675,0.0374,0.0723,9.8385,-0.2666,0.0648,-1.0053
1190,1152,903,34.309,33.544,-0.0158,0.0102,9.7543,0.0305,1.1722,-0.5663
1195,1146,907,34.46,33.565,0.069,-0.0512,9.8217,-0.7591,0.0231,-0.0617
1200,1149,907,34.452,33.508,0.0561,0.0604,9.7951,-0.4229,-0.1517,0.4314
1205,1146,918,34.477,33.584,-0.0464,0.0447,9.8022,0.0388,-0.0073,0.0704
1210,1144,911,34.4,33.604,-0.0502,-0.0441,9.7842,-0.6867,0.0614,-0.0887
1215,1137,914,34.491,33.504,-0.0439,-0.0029,9.9005,-0.4919,-0.2778,-0.0954
1220,1138,911,34.415,33.56,-0.0795,-0.0329,9.8866,0.3774,0.041,-0.3555
1225,1139,913,34.407,33.544,-0.0005,-0.0952,9.7972,-0.2916,0.0754,0.6262
1230,1128,905,34.402,33.564,0.0203,0.096,9.8115,-0.1028,0.3594,0.0819
1235,1129,910,34.503,33.551,0.0787,0.0898,9.8701,0.059,0.2916,-0.1529
1240,1127,909,34.438,33.498,0.0243,0.0341,9.7495,-0.9922,-0.2581,0.0518
1245,1124,913,34.463,33.458,-0.0288,-0.0229,9.8193,0.1913,0.2012,0.7023
1250,1109,907,34.47,33.531,-0.01,-0.0792,9.8278,-0.0883,0.4763,-0.2026
1255,1117,910,34.455,33.507,0.0211,-0.0007,9.8187,-0.3075,-0.4934,0.0492
1260,1120,907,34.422,33.583,0.0676,0.0123,9.692,-0.9591,-0.2443,0.6911
1265,1112,905,34.428,33.625,-0.0072,0.0475,9.7541,0.8411,0.3992,-0.1263
1270,1105,905,34.467,33.511,0.0567,0.0026,9.8062,-0.147,-0.9506,-0.9782
1275,1116,898,34.475,33.565,0.0541,0.0567,9.7681,0.2219,0.881,-0.3832
1280,1116,905,34.459,33.504,0.0227,-0.0555,9.7567,0.216,0.4774,-0.1166
1285,1100,899,34.432,33.453,-0.0749,-0.0419,9.8245,-0.6253,-0.7951,0.29
1290,1105,899,34.495,33.51,0.0758,0.0716,9.7931,0.0508,0.0555,-0.239
1295,1099,900,34.441,33.594,0.0432,-0.0095,9.8843,-0.4133,-0.4166,-0.1721
1300,1103,900,34.458,33.607,0.0383,-0.0347,9.7735,1.0612,-0.2658,-0.5417
1305,1102,898,34.47,33.44,0.0729,-0.0601,9.8077,0.7134,0.6887,0.1441
1310,1093,900,34.445,33.455,0.073,-0.0133,9.8451,0.5586,0.1965,-0.1313
1315,1096,892,34.439,33.457,-0.0014,0.0097,9.7459,-0.7973,0.0207,0.4851
1320,1098,887,34.484,33.543,-0.0616,0.0186,9.7322,0.4717,0.2937,0.6552
1325,1093,894,34.555,33.519,0.0082,-0.0184,9.7869,0.1069,-1.008,0.2173
1330,1089,884,34.451,33.533,0.0876,0.0588,9.7497,-0.1302,0.1833,-0.2608
1335,1097,889,34.486,33.57,-0.0237,-0.0212,9.7327,0.612,-0.2607,0.2671
1340,1085,882,34.404,33.472,-0.0942,-0.0078,9.8085,-0.2989,0.6381,-0.1414
1345,1081,884,34.454,33.642,0.0489,0.0332,9.8921,-0.3353,-0.3839,-0.117
1350,1083,882,34.492,33.493,-0.0789,-0.0981,9.7781,-1.123,-0.8156,-0.3466
1355,1083,878,34.421,33.458,-0.0262,0.0224,9.8184,-0.3409,0.3201,0.3724
1360,1065,875,34.378,33.611,-0.0279,0.0576,9.7576,-0.2367,-0.7693,-0.6025
1365,1071,877,34.442,33.537,0.012,0.1142,9.8407,-0.6162,-0.3376,0.9265
1370,1079,879,34.472,33.56,-0.0449,0.001,9.8326,-0.1793,0.4576,-0.6902
1375,1079,871,34.463,33.51,0.0083,0.0007,9.8354,0.0723,-0.3699,-0.1245
1380,1083,871,34.522,33.524,-0.0246,-0.0751,9.8963,0.27,0.073,0.3169
1385,1061,870,34.435,33.578,0.0829,-0.1116,9.8054,0.1472,0.31,-0.3037
1390,1061,874,34.499,33.534,0.0173,0.076,9.7858,0.5626,-0.8514,0.7096
1395,1066,870,34.496,33.53,-0.0827,0.0029,9.8155,0.4259,0.1345,-0.1427
1400,1057,869,34.433,33.509,-0.0071,0.0126,9.7916,0.1804,-0.332,-0.456
1405,1056,860,34.48,33.623,0.1168,-0.0633,9.8124,0.1106,0.4194,0.3177
1410,1043,871,34.447,33.432,-0.0116,-0.0287,9.7135,-0.2393,-0.2235,0.1756
1415,1050,868,34.52,33.551,0.0369,0.0249,9.7485,0.2028,-0.2315,-1.0974
1420,1048,861,34.384,33.582,-0.0642,-0.0513,9.8729,-0.3249,0.2182,0.1442
1425,1043,864,34.422,33.565,-0.0207,-0.0786,9.7157,0.1757,-1.0994,0.4791
1430,1036,852,34.548,33.559,0.0083,-0.0666,9.7142,0.1217,-0.365,-0.7309
1435,1042,860,34.455,33.549,-0.0409,-0.0037,9.8063,0.8781,0.8632,0.1987
1440,1028,858,34.471,33.548,-0.0241,-0.0127,9.8328,0.5491,0.5404,0.1147
1445,1019,857,34.448,33.595,0.002,0.0123,9.8237,-0.1849,0.0209,-1.0385
1450,1027,847,34.398,33.515,0.0191,-0.0913,9.7987,-0.7161,0.4638,0.6216
1455,1015,850,34.447,33.548,-0.0456,-0.0964,9.6984,0.3327,0.0779,0.6328
1460,1015,851,34.412,33.628,0.0928,-0.0316,9.8151,0.9672,-0.2738,-1.071
1465,1010,854,34.398,33.528,0.0172,0.0765,9.8982,-0.4387,1.1926,0.05
1470,1007,853,34.482,33.603,0.015,0.0154,9.6923,-0.3979,0.005,0.056
1475,989,854,34.504,33.602,0.0259,-0.0437,9.7898,0.3564,-0.2498,0.5015
1480,986,849,34.472,33.481,-0.0626,0.0573,9.7317,-0.8738,-0.616,-0.7662
1485,984,848,34.484,33.582,-0.0099,0.0478,9.8518,0.2602,0.4313,-0.3095
1490,963,842,34.485,33.64,-0.0143,-0.0195,9.8915,0.6284,0.2179,0.6639
1495,961,849,34.444,33.624,0.057,-0.0577,9.7767,0.042,-0.1142,-0.4335
1500,967,842,34.528,33.519,0.0171,-0.0818,9.8284,0.4207,-1.5134,-0.2444
1505,956,846,34.474,33.562,0.0155,0.0194,9.7899,-0.5629,-0.6979,0.1904
1510,946,844,34.502,33.544,0.1417,0.09,9.7717,0.3218,-0.4826,0.1126
1515,939,842,34.534,33.607,0.0287,0.0215,9.8685,0.4427,-1.0584,0.0331
1520,930,838,34.496,33.568,-0.0376,0.0281,9.7314,0.5064,-0.0827,0.3494
1525,929,844,34.42,33.412,0.0665,-0.0426,9.8644,0.6964,0.1427,0.4968
1530,921,829,34.486,33.525,-0.0173,-0.111,9.8071,0.8365,-0.1544,-0.2786
1535,904,837,34.454,33.451,0.0387,-0.0391,9.8735,-0.6137,-1.0121,0.7127
1540,903,829,34.381,33.52,0.0536,0.0017,9.7714,-0.5221,-0.3359,-0.9628
1545,887,836,34.423,33.575,-0.0273,-0.0212,9.8441,0.6975,-0.0038,0.353
1550,891,827,34.403,33.505,-0.0009,0.0909,9.7794,0.1788,0.3039,-0.139
1555,871,828,34.446,33.551,-0.057,0.0575,9.8589,-0.3734,0.4991,-0.0596
1560,867,821,34.473,33.578,-0.005,0.0097,9.884,0.2367,0.778,0.1023
1565,866,820,34.514,33.593,0.0097,0.0091,9.9048,0.7784,0.3511,1.1413
1570,856,821,34.457,33.494,0.0681,0.0205,9.7682,-0.1218,-0.3642,0.2336
1575,845,817,34.515,33.547,0.0192,0.0084,9.8719,-0.0045,-0.3322,0.0557
1580,847,817,34.488,33.544,-0.0101,-0.0369,9.9244,-0.1863,0.0132,0.7631
1585,833,805,34.422,33.561,0.027,-0.0127,9.8421,0.2863,-0.1104,-0.1276
1590,839,808,34.517,33.554,0.0663,-0.0108,9.8232,0.4404,0.0432,0.3016
1595,832,802,34.466,33.515,0.0273,0.0069,9.8527,-0.4506,0.2659,-0.7638
1600,813,796,34.59,33.508,0.0116,0.0072,9.8408,0.0863,-0.6291,0.7051
1605,808,791,34.523,33.618,0.0126,0.0813,9.8358,0.1697,0.3491,-0.7465
1610,808,799,34.377,33.558,0.0357,-0.0868,9.7909,0.3824,0.7361,0.5659
1615,798,781,34.491,33.437,-0.0254,-0.0372,9.8064,-0.9518,0.7037,-0.2097
1620,793,788,34.449,33.561,-0.0444,-0.0246,9.9376,0.6241,0.1474,-0.5167
1625,781,784,34.452,33.498,-0.0934,0.0083,9.795,0.2943,-0.4823,0.3276
1630,784,782,34.454,33.473,-0.0428,-0.0623,9.7561,0.5493,0.3216,0.0148
1635,786,777,34.504,33.485,-0.0909,0.0268,9.845,-0.4164,0.0728,0.0467
1640,760,765,34.486,33.628,0.0433,0.0124,9.8089,-0.1656,-1.0873,-0.3486
1645,764,773,34.491,33.543,0.0151,0.0136,9.8228,0.3127,-1.1641,0.1281
1650,766,761,34.453,33.647,0.0735,0.0472,9.7618,-0.5144,0.3587,0.563
1655,762,758,34.527,33.616,0.0032,0.0412,9.9038,0.4839,0.1618,0.565
1660,761,757,34.431,33.53,-0.0246,-0.0882,9.8712,-0.0252,-0.451,0.1745
1665,759,746,34.495,33.533,0.0127,0.0123,9.7225,0.6228,0.2532,-0.4623
1670,749,736,34.491,33.503,0.0025,0.061,9.7984,0.2727,0.8566,0.5727
1675,739,735,34.368,33.625,0.0685,0.0068,9.7815,-0.1817,0.4983,1.0051
1680,746,740,34.427,33.555,-0.0042,0.006,9.7689,0.1421,-0.2439,-0.946
1685,754,733,34.563,33.488,0.0295,-0.0241,9.7893,0.372,-0.0241,0.3988
1690,748,723,34.42,33.522,-0.0907,0.012,9.8356,-0.0539,-1.0436,-0.3985
1695,747,719,34.555,33.58,0.0236,-0.0012,9.8968,-0.1793,0.5404,0.4116
1700,746,718,34.371,33.543,0.0014,0.0094,9.8792,-0.0322,-0.4578,0.424
1705,749,712,34.444,33.567,-0.0557,0.009,9.8081,-0.0459,0.4064,-1.1915
1710,756,711,34.494,33.547,0.07,0.0197,9.7641,1.0993,-0.4192,-0.5651
1715,751,706,34.41,33.605,-0.0292,-0.0257,9.7887,0.1223,-0.3274,-0.0214
1720,750,701,34.442,33.609,0.0534,-0.0125,9.7376,0.5392,-0.7531,-0.9365
1725,753,700,34.475,33.475,-0.0126,-0.068,9.7249,0.0462,-0.7762,0.3894
1730,756,696,34.473,33.531,-0.0454,-0.0428,9.8366,-0.1655,-0.4166,-0.7677
1735,765,691,34.389,33.526,-0.0455,0.0937,9.798,-0.1855,-0.0988,0.2198
1740,761,689,34.544,33.616,0.0118,-0.0275,9.8871,-0.6717,-0.1566,0.3354
1745,776,680,34.411,33.613,0.0578,-0.0125,9.8689,0.3952,-0.3626,-0.126
1750,782,680,34.496,33.564,0.0851,-0.0677,9.758,-0.035,0.6234,0.5524
1755,786,675,34.422,33.529,-0.0283,-0.1151,9.849,0.1654,0.1516,0.8734
1760,782,671,34.429,33.52,0.1356,0.081,9.9443,0.7059,0.8923,0.8946
1765,808,664,34.444,33.514,-0.0945,-0.0494,9.8517,-0.3199,0.3863,0.3362
1770,800,664,34.399,33.565,-0.0179,-0.0154,9.748,0.2964,1.101,0.5249
1775,808,664,34.474,33.503,0.0286,0.0291,9.823,-0.7006,-0.1313,0.2381
1780,821,660,34.485,33.53,-0.0077,-0.0245,9.7895,-1.0057,0.463,0.0972
1785,835,661,34.385,33.544,-0.0498,-0.0473,9.8309,-0.2143,-0.5046,1.4635
1790,840,655,34.413,33.543,0.0911,-0.0363,9.7976,-0.0075,-0.0131,-0.6159
1795,837,656,34.515,33.56,0.0654,0.0,9.8131,-0.2949,0.4128,-0.2825
1800,845,651,34.372,33.554,-0.0394,-0.0133,9.7972,0.4055,-0.2284,0.4829
1805,859,656,34.439,33.489,-0.055,-0.057,9.7446,0.1793,-0.1139,-0.3958
1810,874,652,34.435,33.531,-0.0581,0.0023,9.7828,0.7052,0.1141,-1.2031
1815,880,649,34.432,33.503,-0.0642,0.1142,9.7975,-0.1462,-1.2242,0.0599
1820,885,657,34.538,33.594,-0.0378,0.0005,9.8516,0.1698,-0.7013,-0.592
1825,906,649,34.494,33.45,-0.0877,0.0186,9.8483,-0.145,-0.0852,0.2572
1830,904,656,34.397,33.475,-0.0354,-0.02,9.8278,-0.0334,0.2147,0.0241
1835,918,654,34.514,33.521,-0.0124,0.0497,9.7372,-0.1115,0.8495,-0.9211
1840,943,652,34.493,33.49,0.0878,0.0291,9.7974,0.5491,0.0552,-0.2116
1845,927,657,34.51,33.574,0.0021,0.0871,9.8863,0.0499,-0.2281,0.3499
1850,953,653,34.52,33.579,0.0874,0.0824,9.7864,0.3434,-0.3756,0.5637
1855,962,658,34.44,33.502,0.0196,0.0692,9.8618,1.032,-0.5946,0.6092
1860,973,662,34.605,33.549,0.0174,0.041,9.7742,0.288,0.6949,-0.204
1865,983,658,34.467,33.493,-0.024,0.0643,9.742,-0.1166,-0.5374,-0.0231
1870,988,665,34.424,33.617,0.059,0.0137,9.7919,-0.3229,-0.121,-0.4153
1875,993,668,34.555,33.564,-0.0368,-0.058,9.7672,-0.2988,-0.1498,-0.0449
1880,1009,662,34.501,33.565,0.0062,-0.0298,9.739,0.2716,0.1714,0.9449
1885,1020,671,34.393,33.549,-0.0564,-0.0172,9.9415,0.6156,-0.8538,-0.6868
1890,1037,673,34.392,33.482,-0.068,0.0062,9.7993,-0.2218,0.3992,-0.7023
1895,1037,674,34.445,33.564,0.0019,0.0309,9.8728,0.1073,0.1899,0.5529
1900,1050,689,34.468,33.588,-0.0055,-0.0153,9.7763,0.0334,0.0786,1.1682
1905,1056,680,34.375,33.557,-0.0289,0.005,9.7967,-1.1352,0.0001,0.1306
1910,1067,684,34.448,33.532,0.1052,0.0073,9.7219,-0.4117,-0.4609,0.5599
1915,1072,694,34.427,33.493,0.0032,0.0175,9.8875,-0.4352,-0.58,0.0086
1920,1091,701,34.415,33.52,0.0536,0.0361,9.7902,-0.3067,0.4731,-0.4229
1925,1094,701,34.541,33.58,-0.0217,0.0246,9.7863,-0.2386,-0.1678,0.4355
1930,1100,704,34.473,33.449,-0.0534,-0.0011,9.8019,-0.177,-0.1051,0.0049
1935,1105,718,34.556,33.459,-0.0621,-0.0915,9.8024,0.8802,0.301,-0.3859
1940,1113,718,34.438,33.564,-0.0827,0.0743,9.8656,0.1499,0.6502,-0.1657
1945,1126,729,34.425,33.538,0.0017,0.0665,9.9135,0.4898,-0.0833,-0.5575
1950,1119,729,34.447,33.546,-0.0653,-0.1031,9.7692,-0.2749,0.5317,0.3089
1955,1136,732,34.539,33.568,-0.0047,0.0064,9.8985,0.1512,-0.0235,1.4308
1960,1143,743,34.462,33.492,-0.0115,-0.1105,9.7382,0.3315,-0.092,0.568
1965,1145,745,34.443,33.623,-0.0173,-0.0129,9.7885,-0.1405,-0.8584,0.2628
1970,1146,753,34.372,33.54,0.0157,0.0576,9.7927,0.6583,0.8417,-0.1786
1975,1151,762,34.501,33.574,0.1196,0.0672,9.8496,0.3823,-0.3532,-0.038
1980,1161,774,34.466,33.564,-0.0672,-0.0132,9.7737,-0.109,-0.2018,-0.6606
1985,1160,770,34.447,33.496,-0.0688,0.0404,9.7878,0.5787,0.6872,0.4247
1990,1178,778,34.431,33.538,-0.0429,0.0403,9.7929,0.6847,-0.1041,0.4123
1995,1169,785,34.479,33.502,-0.0303,-0.0198,9.84,0.1638,1.056,0.3198
2000,1175,798,34.479,33.593,0.0093,0.0595,9.8953,-0.2546,-0.1711,-0.3712
2005,1175,798,34.509,33.573,0.0545,-0.0136,9.7384,-0.0158,-0.4756,0.0616
2009,1176,798,34.492,33.537,-0.0706,0.0621,9.8649,0.0841,0.4232,-0.773
2015,1192,804,34.417,33.526,0.025,0.043,9.7643,-0.1956,0.7146,-0.1977
2020,1181,812,34.495,33.52,-0.0663,0.0259,9.8008,0.4838,0.2731,-0.2929
2025,1183,820,34.445,33.549,0.053,0.0211,9.6983,0.466,-0.0379,0.4844
2029,1192,825,34.486,33.566,-0.0732,-0.0751,9.762,0.1779,-0.6022,0.8818
2035,1186,830,34.508,33.557,-0.0522,-0.0194,9.8068,0.0545,0.3094,0.5242
2040,1188,836,34.497,33.551,-0.0067,-0.0261,9.8754,0.2437,0.3291,-0.105
2045,1183,842,34.48,33.518,-0.0481,-0.0262,9.8232,-0.2808,-0.2729,0.1774
2050,1189,843,34.42,33.443,0.0057,-0.0171,9.7985,-0.929,-0.1799,-0.9429
2055,1192,850,34.472,33.495,0.0588,0.0306,9.7875,0.7297,1.2472,0.2703
2060,1183,853,34.446,33.621,-0.0304,-0.0223,9.8035,-0.8573,-0.0181,-0.3972
2065,1189,858,34.468,33.611,0.0387,0.0457,9.8017,0.5966,0.4966,-0.0089
2070,1182,863,34.444,33.59,0.0158,0.0573,9.864,-0.5948,-0.1359,0.1644
2075,1178,869,34.454,33.483,-0.0185,0.019,9.7817,-0.1293,-0.309,-0.2147
2080,1184,874,34.566,33.572,-0.0751,0.0151,9.7458,0.2653,-0.7224,0.1221
2085,1183,875,34.492,33.55,0.0633,0.0293,9.7934,0.1563,0.2906,-0.7337
2090,1176,875,34.556,33.552,-0.1232,0.0687,9.7644,-0.1689,0.3501,-0.1037
2095,1172,881,34.43,33.484,0.0364,0.0014,9.7984,-0.4531,-0.0177,-0.1717
2100,1176,881,34.542,33.615,-0.0392,0.0892,9.7285,0.1225,-0.6612,-0.3279
2105,1175,887,34.493,33.556,0.0376,0.0216,9.8243,-0.1705,0.8246,-0.2287
2110,1170,887,34.421,33.489,-0.0218,-0.0532,9.7706,0.0929,-0.4413,-0.5785
2115,1170,896,34.559,33.539,-0.0076,0.0097,9.8543,-1.0965,-0.083,0.0363
2120,1164,897,34.456,33.522,0.0494,0.0934,9.8538,-0.9236,-0.0667,-0.4379
2125,1166,897,34.444,33.495,-0.0092,0.1498,9.7954,0.1453,0.4921,0.6388
2130,1158,902,34.419,33.523,0.0072,-0.0273,9.7932,-0.3259,0.0925,0.5334
2135,1163,901,34.346,33.524,0.0584,-0.0788,9.7739,-0.527,-0.3516,-0.5494
2140,1148,907,34.506,33.558,0.0235,-0.0245,9.8933,0.8407,0.4881,0.111
2145,1159,907,34.541,33.556,0.0389,0.0125,9.8253,-0.4133,-0.8934,0.2336
2150,1159,908,34.41,33.542,0.0721,0.0712,9.7883,-0.5465,0.2447,-0.1046
2155,1151,909,34.415,33.484,0.0159,0.0315,9.7634,0.2506,-0.2491,0.5697
2160,1140,907,34.413,33.59,0.0272,0.0218,9.7265,-0.8307,-0.1281,-0.3554
2165,1143,909,34.419,33.589,0.0305,-0.0355,9.7974,-0.0145,-0.3201,-0.5736
2170,1143,908,34.479,33.417,-0.0835,-0.0179,9.7919,-0.7126,0.2901,0.2717
2175,1133,915,34.511,33.428,-0.0905,0.013,9.7866,0.7568,0.9397,-0.0168
2180,1134,910,34.418,33.621,0.0214,-0.0021,9.7531,-0.892,-0.1826,-0.3544
2185,1123,908,34.562,33.485,0.0064,0.0405,9.8556,-0.1472,-0.4474,0.2744
2190,1123,911,34.51,33.55,0.0204,0.0579,9.8588,0.6103,-0.1112,0.4317
2195,1125,906,34.531,33.478,0.0412,0.0381,9.8095,0.1917,0.1999,0.0675
2200,1117,912,34.431,33.502,-0.0131,-0.0358,9.7901,0.3431,0.5625,0.321
2205,1126,911,34.397,33.57,-0.0246,0.0191,9.7283,0.0542,-0.2823,-0.3534
2210,1112,907,34.476,33.512,0.0184,0.0435,9.7938,0.1064,-0.2565,0.3642
2215,1112,907,34.47,33.608,0.068,-0.0139,9.8576,-0.6217,0.2553,-0.8456
2220,1114,903,34.445,33.5,-0.031,0.0387,9.8044,0.268,0.4667,-0.0782
2225,1105,904,34.526,33.534,0.0016,0.0269,9.793,0.1011,-0.1112,0.003
2230,1117,904,34.441,33.55,-0.0274,0.015,9.8391,0.6339,0.5676,-0.2286
2235,1104,906,34.409,33.551,-0.0463,-0.0181,9.7938,0.6719,-0.2864,0.5708
2240,1107,907,34.446,33.484,0.0074,-0.0369,9.8233,-0.3244,-0.4469,-0.6139
2245,1097,902,34.486,33.581,0.074,0.0377,9.7959,0.1545,0.1341,0.8305
2250,1096,899,34.476,33.621,0.0056,0.0125,9.8517,-0.9149,-0.51,0.7452
2255,1101,901,34.483,33.47,-0.0735,0.0869,9.7584,-0.3826,0.2098,0.3212
2260,1091,898,34.43,33.582,-0.0315,-0.0892,9.7993,-0.1847,-0.3641,0.1031
2265,1090,894,34.471,33.538,0.0623,-0.0776,9.8522,-0.0861,-0.0493,1.0565
2270,1102,890,34.467,33.433,0.0309,-0.0211,9.7873,0.5297,-0.2,-0.0328
2275,1093,881,34.444,33.47,-0.0105,0.0046,9.8954,0.2563,-0.1065,-0.066
2280,1082,887,34.525,33.497,-0.0983,-0.0169,9.7797,-0.1427,0.3957,0.7938
2285,1091,887,34.471,33.461,-0.0203,-0.085,9.7588,-0.6509,0.0534,-1.2073
2290,1089,885,34.466,33.609,0.1191,-0.0091,9.7814,-1.4963,-0.0196,-0.2447
2295,1084,882,34.538,33.491,0.0052,0.0273,9.7065,0.7204,0.3063,0.0182
2300,1097,878,34.413,33.475,-0.0695,0.0324,9.7578,0.0756,-1.153,0.5
2305,1085,880,34.47,33.506,0.0888,0.0005,9.7857,-1.0915,0.3937,-0.1656
2310,1082,878,34.449,33.523,-0.0715,-0.0359,9.8283,-0.5433,0.2279,0.3722
2315,1081,877,34.504,33.546,0.0093,0.0013,9.7675,0.0245,1.386,0.1752
2320,1078,879,34.482,33.608,-0.0002,0.0163,9.7677,-0.0513,0.2514,-0.6258
2325,1064,872,34.438,33.491,0.0278,0.0643,9.7936,-0.4262,-0.0528,-0.4096
2330,1076,870,34.492,33.523,-0.0253,0.0209,9.7866,0.5183,-0.1952,0.4243
2335,1063,875,34.455,33.568,-0.0515,-0.0506,9.7799,-0.0876,-0.613,-0.516
2340,1069,866,34.424,33.575,-0.0521,-0.111,9.8468,0.2127,-0.2643,0.4176
2345,1055,872,34.473,33.548,0.0935,-0.0062,9.8746,0.6001,0.0906,0.0182
2350,1057,867,34.448,33.544,-0.0353,0.1025,9.8702,0.2089,1.0076,0.0496
2355,1055,866,34.491,33.536,-0.096,-0.0404,9.8314,-0.0071,0.3128,0.2312
2360,1044,868,34.477,33.49,-0.0929,0.0018,9.8561,0.2911,0.8541,-0.372
2365,1054,863,34.623,33.537,0.0229,-0.0765,9.8088,0.0978,-0.3888,0.5965
2370,1040,861,34.457,33.515,-0.0099,0.0038,9.8545,-0.3286,0.0256,-0.0164
2375,1037,862,34.457,33.548,-0.0047,0.0361,9.8024,0.5972,0.5956,-0.8894
2380,1044,858,34.449,33.575,-0.0839,-0.0341,9.8296,0.6037,-0.0087,-0.1475
2385,1032,858,34.504,33.533,0.0722,0.0312,9.8044,-0.7132,-0.3658,-0.7545
2390,1027,856,34.435,33.467,-0.019,-0.0512,9.8686,0.2899,-0.2218,-0.9845
2395,1029,853,34.549,33.47,-0.0491,-0.0093,9.7912,-0.4148,0.6634,0.7295
2400,1019,855,34.472,33.552,-0.0593,-0.0103,9.8313,0.4015,0.294,-0.3983
2405,1010,854,34.408,33.604,0.0489,0.0418,9.6875,0.1562,0.8808,-0.4632
2410,1008,853,34.483,33.575,-0.0487,0.005,9.7991,0.2285,0.0493,-0.8746
2415,1004,850,34.386,33.578,0.0468,0.0451,9.6737,0.5188,-0.001,0.3904
2420,995,849,34.487,33.515,0.0006,-0.0559,9.7464,0.4823,0.0621,0.0756
2425,995,850,34.408,33.592,0.0532,-0.0499,9.7915,0.4798,-0.0858,-0.7174
2430,976,843,34.483,33.477,-0.0268,-0.0949,9.8613,-0.2168,0.607,0.0824
2435,985,847,34.422,33.543,-0.0218,0.0117,9.8228,-0.0901,-0.269,-0.268
2440,969,849,34.497,33.553,0.0528,0.0111,9.8284,-0.6567,-0.3044,0.4066
2445,966,846,34.428,33.573,-0.0406,-0.0085,9.6833,-0.3425,-0.2745,0.6905
2450,970,839,34.487,33.566,0.0427,0.0714,9.7186,-0.5084,0.3221,0.2811
2455,949,839,34.485,33.554,-0.022,-0.0557,9.8354,-0.729,1.0575,0.657
2460,952,841,34.46,33.523,0.0161,-0.0715,9.8874,0.1386,0.4351,-1.1882
2465,928,841,34.475,33.586,0.0703,-0.0168,9.8055,0.0599,0.3228,-0.2047
2470,923,837,34.516,33.535,-0.0311,0.0061,9.8108,-0.1161,-0.1984,-0.0746
2475,924,837,34.498,33.583,0.0513,0.0336,9.8343,-0.1168,-0.0184,-0.2753
2480,916,841,34.489,33.57,-0.0759,-0.0631,9.8334,-0.155,0.0463,0.9155
2485,911,830,34.517,33.571,0.1106,-0.0088,9.8021,-0.5093,-0.3915,-1.045
2490,901,832,34.517,33.548,-0.0595,0.0678,9.8579,-0.1197,0.3966,0.174
2495,893,827,34.505,33.531,-0.0619,-0.0769,9.7254,0.2559,-0.357,-0.2277
2500,884,829,34.472,33.568,-0.0271,-0.0051,9.8425,-0.6718,1.0708,0.6836
2505,878,825,34.412,33.595,-0.0281,0.0173,9.853,0.8777,-0.0247,0.1475
2510,870,821,34.453,33.522,-0.0732,-0.0396,9.6937,0.0242,0.6366,-0.7296
2515,867,829,34.577,33.531,0.0544,0.0006,9.7925,-0.7497,0.1617,-0.3949
2520,867,815,34.49,33.465,0.0191,0.0269,9.8259,-0.1538,0.3769,-0.1062
2525,846,817,34.518,33.627,0.0316,0.0176,9.771,-0.4479,0.1845,0.559
2530,841,812,34.504,33.505,0.0854,-0.0308,9.8641,0.4623,-0.0902,0.5686
2535,826,814,34.51,33.591,0.0363,-0.0015,9.8606,0.9928,0.9837,-0.2412
2540,829,807,34.506,33.562,-0.0366,-0.0277,9.8025,-0.2472,-0.8042,0.3276
2545,815,800,34.436,33.547,0.0107,0.0028,9.7693,0.0538,-0.4711,-0.1423
2550,815,799,34.534,33.51,0.0072,-0.0269,9.8794,0.1295,0.3192,-0.5014
2555,812,801,34.354,33.536,0.0415,-0.087,9.8374,-0.1759,0.4421,0.4646
2560,811,793,34.547,33.433,0.0018,0.0978,9.8079,-0.4967,-0.1429,0.0202
2565,789,789,34.514,33.543,0.0257,-0.0124,9.8956,-0.8869,-0.0382,0.0799
2570,785,782,34.439,33.566,0.0002,-0.0363,9.8085,0.5926,0.353,-0.1564
2575,774,786,34.487,33.553,-0.0391,0.0983,9.8881,-0.9537,0.1978,-0.0382
2580,773,785,34.428,33.636,0.1361,-0.0159,9.8379,0.0543,-0.8156,1.2131
2585,778,771,34.414,33.638,-0.0259,-0.0874,9.7871,-0.1589,-0.2659,-0.144
2590,763,768,34.331,33.659,-0.0139,0.0509,9.793,-0.1682,-0.4562,0.5696
2595,768,768,34.46,33.472,-0.0205,0.0134,9.8055,0.4197,0.0893,0.1829
2600,760,761,34.477,33.556,0.0357,-0.0185,9.8137,0.4047,0.2741,0.0736
2605,763,760,34.477,33.539,-0.0782,-0.0561,9.7686,0.3302,0.0929,0.5629
2610,757,750,34.424,33.546,-0.1388,0.0643,9.754,0.0019,-0.2164,0.0489
2615,751,751,34.565,33.546,-0.0103,-0.0092,9.7295,0.069,0.5448,-0.3926
2620,737,741,34.545,33.527,0.0002,-0.0062,9.827,-0.5598,-0.0494,-0.4331
2625,754,741,34.484,33.682,0.0841,0.1283,9.8298,0.8046,0.0476,0.5153
2630,754,735,34.393,33.506,0.0021,-0.0199,9.8138,0.7061,-0.3964,-0.8772
2635,741,729,34.442,33.533,0.0778,-0.0025,9.8729,0.0075,-0.4367,0.3314
2640,754,726,34.48,33.511,-0.015,0.0103,9.9346,-0.1723,1.0892,0.9058
2645,752,722,34.467,33.612,-0.0364,-0.0921,9.7901,-0.4054,0.6126,-0.1499
2650,758,717,34.396,33.459,-0.0155,0.0525,9.8363,0.2856,-0.3121,0.678
2655,744,716,34.406,33.499,0.0955,0.0334,9.8099,-0.7149,-0.3654,-0.315
2660,754,709,34.476,33.557,0.0193,0.072,9.873,-0.9447,-0.2323,0.2878
2665,756,710,34.428,33.488,-0.0031,-0.0361,9.829,0.4613,-0.4668,-0.0995
2670,763,700,34.455,33.573,-0.0577,0.0684,9.777,0.5624,0.2533,-0.5183
2675,756,701,34.546,33.554,0.064,-0.1068,9.8807,-0.1492,-0.0875,0.017
2680,763,696,34.618,33.556,0.0407,0.0927,9.7381,-0.8499,0.2288,0.9225
2685,770,688,34.488,33.584,0.0097,0.0421,9.8011,0.4579,-0.5064,0.1803
2690,770,686,34.54,33.585,-0.0263,-0.0625,9.8561,-0.4885,1.4304,-0.1062
2695,777,684,34.563,33.492,-0.0749,0.0986,9.7448,-0.0613,-0.0811,0.4782
2700,786,677,34.407,33.565,-0.0499,-0.0542,9.649,-0.3688,0.0074,1.0073
2705,792,677,34.477,33.505,-0.0389,0.0278,9.8041,0.0639,0.6621,0.2422
2710,786,670,34.503,33.539,0.0979,-0.0069,9.7715,0.4358,-0.707,1.1162
2715,787,670,34.498,33.542,-0.0096,-0.0337,9.7611,-0.3583,-1.0228,0.7599
2720,805,671,34.519,33.517,-0.0239,-0.131,9.7955,-1.0302,-0.5628,-0.1841
2725,809,664,34.494,33.479,-0.032,-0.0155,9.7474,-0.6684,-0.164,0.4889
2730,808,661,34.585,33.491,-0.0315,0.0693,9.7944,-0.5752,-0.3131,-0.4406
2735,824,662,34.526,33.53,0.0097,0.0288,9.7957,0.7792,-0.466,-0.2865
2740,837,656,34.454,33.484,0.1022,-0.0211,9.7183,-0.5673,-0.2466,-0.3035
2745,839,654,34.545,33.461,-0.0417,-0.0151,9.8261,-0.3576,0.2792,0.391
2750,848,652,34.561,33.534,0.059,0.0182,9.7673,0.7821,0.1851,0.8106
2755,862,654,34.458,33.555,-0.0385,-0.0577,9.7999,-0.3987,0.193,0.0592
2760,870,644,34.463,33.523,-0.0111,0.0144,9.8461,-0.1523,0.5883,0.3357
2765,879,649,34.485,33.6,-0.0466,0.011,9.8047,-0.2068,-0.202,-0.4996
2770,897,651,34.455,33.511,-0.0209,-0.0332,9.8138,-0.01,0.2987,-0.0869
2775,897,653,34.443,33.552,0.0557,0.0036,9.8223,-0.2734,-0.3246,0.6751
2780,913,651,34.487,33.481,-0.0242,-0.0077,9.811,0.7064,0.3019,-0.5942
2785,923,647,34.433,33.56,-0.0416,0.0654,9.7613,0.4892,0.4021,0.1055
2790,939,657,34.534,33.599,0.0255,-0.0431,9.8544,0.6784,-0.5548,0.3993
2795,925,653,34.525,33.536,-0.0429,0.0656,9.7547,0.1025,0.2245,0.9197
2800,955,657,34.43,33.547,0.0017,0.057,9.838,0.1121,0.0919,-0.462
2805,969,660,34.551,33.563,0.0276,0.0933,9.7986,0.2876,0.6139,0.7479
2810,978,656,34.432,33.544,0.0641,0.0081,9.8454,1.0201,0.0228,0.5626
2815,982,661,34.475,33.526,-0.0079,-0.0774,9.8511,0.1006,0.3938,-0.5216
2820,994,661,34.42,33.479,-0.0422,-0.0329,9.8663,0.2859,-1.1665,0.3919
2825,1011,667,34.48,33.586,0.0012,0.0432,9.7545,-0.5469,0.0029,0.5481
2830,1017,669,34.464,33.496,-0.0376,-0.0541,9.7359,-0.0374,-1.2113,0.4937
2835,1024,671,34.466,33.529,-0.018,0.0673,9.7692,-0.2074,-0.5031,0.4501
2840,1038,672,34.54,33.453,0.1091,0.0221,9.7801,0.8023,-0.6302,0.1258
2845,1039,680,34.505,33.531,0.0143,-0.0109,9.7966,-0.1479,-0.7703,0.456
2850,1041,686,34.394,33.504,0.0372,-0.003,9.708,0.1773,-0.3988,-0.2931
2855,1055,689,34.515,33.487,-0.0297,-0.0595,9.8146,-0.2433,-0.9663,-0.3408
2860,1067,690,34.515,33.549,-0.0172,-0.0697,9.8409,-0.5626,0.5142,0.1362
2865,1082,694,34.491,33.571,0.0437,-0.0022,9.7413,-0.0137,-0.0335,0.2283
2870,1083,696,34.492,33.568,0.0641,0.0028,9.7526,-0.8588,-0.2146,-0.0849
2875,1093,704,34.493,33.546,-0.0322,-0.0216,9.7819,-0.0498,0.2204,-0.3532
2880,1104,711,34.499,33.555,0.0059,0.0402,9.8285,0.5485,0.0175,0.5153
2885,1119,713,34.471,33.493,0.0507,0.0098,9.776,0.2944,0.5202,0.3961
2890,1114,720,34.44,33.573,0.0999,-0.1092,9.88,0.2234,-0.3564,2.0211
2895,1116,727,34.457,33.568,-0.0205,0.0315,9.8035,0.9554,-0.2963,-0.3717
2900,1131,729,34.462,33.551,-0.0346,0.0664,9.8143,-0.5286,0.4288,-0.8271
2905,1138,732,34.476,33.607,0.1318,0.0324,9.869,-0.4743,-0.8781,1.3692
2910,1141,733,34.414,33.568,0.026,0.0436,9.8227,-0.0683,-0.4714,0.2368
2915,1156,747,34.535,33.554,-0.033,-0.037,9.906,0.5163,0.3284,0.0598
2920,1148,758,34.395,33.66,0.0097,0.0063,9.819,0.2774,-0.2837,0.5482
2925,1163,759,34.519,33.532,0.0456,-0.0873,9.8337,-0.0051,-0.1325,0.0944
2930,1165,769,34.464,33.607,-0.0655,0.0684,9.7884,0.2509,0.139,-0.1648
2935,1166,775,34.515,33.471,0.0255,0.0063,9.7536,-0.1724,0.4663,-1.1394
2940,1168,777,34.488,33.554,0.0305,-0.0041,9.7942,-0.4323,-0.701,-1.207
2945,1171,786,34.453,33.525,0.0536,0.0067,9.7891,-0.3869,-0.4908,0.3006
2950,1176,790,34.444,33.459,-0.0017,0.05,9.8019,-0.2242,-0.4004,-1.2578
2955,1171,795,34.469,33.571,-0.0351,-0.0684,9.7923,-0.9363,-0.4908,0.4344
2960,1178,799,34.484,33.568,0.0849,0.1166,9.7846,0.3349,-0.3552,-0.5994
2965,1191,809,34.508,33.566,0.0627,-0.033,9.8068,-0.406,-0.6522,-0.3127
2970,1187,815,34.428,33.565,-0.0119,0.0253,9.7886,-0.2772,-1.0132,0.1575
2975,1189,821,34.418,33.547,0.0276,-0.0746,9.7983,-0.4248,0.0436,0.4229
2980,1184,825,34.491,33.503,-0.0982,0.0633,9.9423,0.5695,1.4784,-0.4121
2985,1192,830,34.466,33.561,0.0038,0.0205,9.7929,-1.3698,0.2681,0.1423
2990,1185,836,34.513,33.573,0.0274,-0.1158,9.7825,0.3293,0.8553,-0.2235
2995,1185,847,34.431,33.608,0.0232,-0.0141,9.7533,-0.3157,0.5272,-0.0538
3000,1189,841,34.373,33.549,-0.0459,0.0055,9.8317,0.3167,0.2262,0.5243
3005,1187,849,34.406,33.527,-0.0712,0.0002,9.8328,0.4462,0.0674,-0.6483
3010,1181,862,34.436,33.549,0.0047,-0.0091,9.8361,-0.186,0.4725,0.1479
3015,1187,861,34.448,33.509,0.0349,-0.0781,9.8716,-0.323,0.5382,-0.0609
3020,1184,870,34.472,33.558,-0.0527,0.0149,9.7235,-0.2235,-1.0181,0.7827
3025,1183,866,34.378,33.611,0.1379,0.1024,9.8448,0.9058,-0.02,-0.5607
3030,1183,876,34.446,33.522,0.0459,0.0498,9.7861,-0.6177,-0.1743,-1.2174
3035,1178,876,34.441,33.607,-0.0167,0.1081,9.8681,-0.245,-0.45,0.1103
3040,1181,881,34.533,33.517,0.0181,-0.0326,9.8922,0.2771,0.3537,0.1238
3045,1170,884,34.456,33.674,0.0488,0.0273,9.8976,0.1645,0.1537,-0.1173
3050,1164,887,34.498,33.465,0.0431,0.0361,9.8497,-0.0004,-0.2285,0.1413
3055,1173,892,34.511,33.633,-0.0111,-0.0855,9.8187,-0.169,0.6056,0.1823
3060,1160,898,34.454,33.459,0.0289,-0.0193,9.9229,-0.3737,-0.1389,0.3965
3065,1171,895,34.471,33.532,-0.0409,-0.0029,9.8537,0.2848,0.0604,-0.7583
3070,1166,897,34.46,33.5,0.0199,0.0258,9.8189,0.2934,-1.2643,-0.4859
3075,1149,895,34.38,33.593,0.0066,0.0134,9.7136,-0.4106,0.2595,0.0351
3080,1161,905,34.441,33.592,-0.03,0.0676,9.7022,0.1929,0.5206,-0.0891
3085,1170,903,34.427,33.57,-0.0478,0.0217,9.8482,0.2916,0.5056,-0.2244
3090,1143,903,34.446,33.584,0.0375,0.0108,9.8883,-0.2473,-0.1105,0.2187
3095,1149,902,34.44,33.586,0.0769,-0.0144,9.8037,1.2979,0.8785,0.7942
3100,1154,905,34.52,33.545,0.0903,-0.075,9.919,0.1839,-0.1269,-0.6197
3105,1149,909,34.408,33.554,0.005,0.0756,9.8069,-0.3089,-0.7429,0.0682
3110,1142,901,34.471,33.577,0.006,0.1021,9.8587,0.5933,-0.4853,-0.0879
3115,1128,911,34.495,33.447,0.0422,-0.022,9.8034,-0.7082,-0.537,0.5005
3120,1139,911,34.37,33.549,0.0608,-0.0142,9.8095,-0.3829,0.3866,-0.1134
3125,1136,909,34.475,33.58,-0.0405,-0.022,9.7906,-0.3361,-0.5979,-0.243
3130,1130,908,34.576,33.541,0.0592,-0.0068,9.7614,0.2008,0.5898,-0.2206
3135,1124,906,34.419,33.569,-0.0066,-0.0179,9.8417,-0.0323,0.4867,-0.3015
3140,1121,910,34.529,33.624,0.0106,0.006,9.843,0.05,-0.379,-0.0328
3145,1127,910,34.401,33.512,0.0017,0.1026,9.8723,0.092,0.7859,-0.0944
3150,1124,907,34.487,33.525,-0.0555,-0.0292,9.9042,0.2232,-1.0321,-0.0532
3155,1120,909,34.522,33.517,0.0506,-0.0185,9.801,-0.4603,0.0239,0.3952
3160,1116,909,34.425,33.53,0.0649,0.0239,9.8403,-0.1569,-0.5198,0.3367
3165,1116,905,34.508,33.532,-0.0552,0.0478,9.8096,0.9051,-0.0121,0.8094
3170,1120,910,34.453,33.533,-0.0782,0.064,9.8496,0.1421,1.0457,-0.0177
3175,1108,903,34.428,33.538,0.0341,0.0649,9.7785,0.2712,-0.151,-0.0964
3180,1115,898,34.537,33.569,-0.0972,-0.0372,9.8583,-0.3369,-0.023,0.1097
3185,1105,903,34.492,33.633,-0.0809,-0.0486,9.8579,0.4052,0.9008,0.0168
3190,1111,898,34.331,33.535,0.0671,0.0697,9.7381,-0.7477,0.1958,0.3586
3195,1103,902,34.552,33.484,-0.0232,0.0532,9.8163,0.3329,-0.9545,0.3065
3200,1095,899,34.575,33.478,-0.0786,0.0416,9.8572,-0.2976,-0.5392,0.2642
3205,1102,897,34.503,33.522,-0.0252,0.1213,9.8303,-0.2284,-0.312,0.2766
3210,1090,892,34.516,33.576,-0.0553,0.078,9.8553,0.9475,-0.2062,0.283
3215,1090,893,34.497,33.562,0.0591,-0.0531,9.7406,-0.472,0.481,-0.6258
3220,1097,890,34.494,33.517,-0.0352,-0.0348,9.9224,-0.2218,0.4193,-0.4934
3225,1087,886,34.502,33.55,-0.03,-0.0051,9.7941,0.8787,-0.1365,0.9775
3230,1091,885,34.491,33.601,-0.0796,0.007,9.8467,0.5887,-0.0442,-0.328
3235,1087,881,34.55,33.606,0.0303,0.0927,9.8109,-0.2763,-0.0924,-0.141
3240,1083,886,34.435,33.553,0.0062,-0.0462,9.8064,-0.3773,-0.6435,0.1713
3245,1089,882,34.404,33.599,-0.0166,0.0408,9.8387,-0.336,-0.3491,-0.3466
3250,1082,876,34.416,33.539,0.0843,-0.0217,9.794,0.2741,0.3061,0.3303
3255,1085,886,34.495,33.495,0.0126,-0.0573,9.8799,-0.2543,0.0785,-0.4134
3260,1091,880,34.488,33.586,-0.1069,-0.0164,9.8934,0.4766,-0.1725,0.0905
3265,1073,878,34.447,33.546,-0.059,-0.0464,9.7863,1.16,-0.8817,-0.3246
3270,1073,879,34.491,33.608,-0.04,-0.0283,9.7757,-0.0674,-0.1162,0.6698
3275,1074,877,34.495,33.48,-0.0344,-0.0166,9.8373,-0.7911,0.382,0.8083
3280,1073,871,34.479,33.552,-0.0228,0.0652,9.8388,1.1699,0.4897,-0.4355
3285,1078,870,34.407,33.553,0.037,-0.0963,9.8569,-0.5907,0.1792,-0.0097
3290,1070,873,34.518,33.556,-0.0707,-0.0879,9.7773,0.6936,-0.0839,-0.0096
3295,1060,864,34.444,33.487,0.0556,-0.0564,9.8128,0.367,0.3513,-0.3299
3300,1059,867,34.58,33.627,-0.028,0.1112,9.8169,0.0488,-0.526,-0.8335
3305,1046,866,34.565,33.554,0.053,0.0198,9.8373,-0.0363,0.4919,0.9622
3310,1055,861,34.459,33.46,-0.0704,0.0702,9.8681,0.3268,-0.1076,-1.1103
3315,1047,866,34.507,33.592,-0.0926,0.0478,9.7639,0.5105,0.2746,1.4818
3320,1036,867,34.56,33.587,0.0477,-0.0225,9.7779,0.9264,0.6064,-0.0517
3325,1034,860,34.519,33.56,-0.0356,0.0211,9.8281,-0.5655,-0.0473,1.481
3330,1037,856,34.489,33.478,-0.0423,0.0617,9.7938,0.665,-0.0698,-0.8648
3335,1027,857,34.449,33.517,-0.0415,-0.0044,9.7515,0.4868,0.021,0.5164
3340,1029,857,34.463,33.477,0.0558,0.0322,9.8676,0.8247,-0.4538,0.921
3345,1006,853,34.392,33.577,0.1073,-0.0147,9.8171,0.2182,-0.5994,0.4507
3350,1023,857,34.529,33.569,0.122,-0.0579,9.9205,-0.7606,0.2922,0.2094
3355,1009,851,34.527,33.525,-0.0928,-0.0983,9.847,0.7161,0.7482,0.5004
3360,1001,857,34.436,33.465,-0.0127,0.0009,9.7473,0.368,-0.0136,0.297
3365,1000,852,34.505,33.621,0.0125,-0.0254,9.8032,1.4532,-0.8242,0.4991
3370,997,851,34.563,33.547,0.0325,0.0229,9.8305,0.3437,1.8088,-0.5315
3375,993,851,34.481,33.541,-0.102,-0.0387,9.8105,0.5023,-0.6942,0.1604
3380,986,850,34.424,33.528,-0.0347,-0.0496,9.8138,0.0515,-0.3814,0.5643
3385,970,848,34.576,33.49,0.0519,-0.0414,9.8052,-0.0922,-0.3249,0.2308
3390,966,847,34.456,33.551,-0.0317,0.0144,9.8177,-0.4375,-0.1008,0.2315
3395,957,848,34.526,33.587,0.0339,0.043,9.774,-0.4893,0.5741,-0.5482
3400,960,846,34.462,33.715,-0.0189,-0.0166,9.8074,-0.2235,-0.3974,-0.2927
3405,955,844,34.56,33.537,-0.1009,0.0274,9.7967,0.184,-0.1066,0.1803
3410,943,838,34.446,33.504,-0.0681,0.0462,9.8131,0.4321,0.0602,0.4359
3415,935,837,34.572,33.543,0.0656,0.0116,9.8138,-0.4697,-0.1963,-0.3427
3420,927,837,34.523,33.568,-0.0417,-0.0673,9.8458,0.3815,-0.1768,0.0041
3425,924,838,34.56,33.578,0.0091,0.0589,9.8625,0.19,1.3063,0.2367
3430,922,835,34.445,33.574,-0.043,-0.0418,9.7864,-0.3565,0.5848,-0.828
3435,895,838,34.458,33.512,0.047,0.0721,9.7893,-0.1611,-0.8757,0.8925
3440,913,838,34.487,33.506,0.0736,0.0017,9.8353,-0.0207,0.2781,0.8098
3445,889,829,34.517,33.534,-0.0255,0.0854,9.8575,-0.6126,-0.3443,-0.3438
3450,883,822,34.556,33.618,-0.0158,-0.0578,9.7556,0.141,0.4892,-1.0668
3455,871,828,34.493,33.483,0.0051,-0.0526,9.8488,-0.7335,-0.3081,-0.5018
3460,870,822,34.472,33.561,-0.0053,-0.0562,9.8328,-0.1325,0.2297,1.1201
3465,860,819,34.445,33.593,0.0697,-0.0592,9.7431,0.209,0.3364,-0.3876
3470,854,816,34.429,33.622,0.0181,0.0204,9.7468,-0.1124,0.1087,1.1342
3475,847,814,34.501,33.545,-0.0008,0.0124,9.903,0.1121,-0.7222,-0.7347
3480,841,808,34.567,33.554,0.0218,-0.0126,9.7611,-0.6612,0.0087,-0.3858
3485,831,813,34.492,33.557,0.028,-0.0434,9.8259,-0.3388,-0.7811,-0.9682
3490,825,801,34.49,33.585,0.056,0.1138,9.8001,0.4874,-0.9176,-0.206
3495,822,802,34.513,33.489,0.0059,-0.025,9.7945,0.2272,0.2018,0.0387
3500,812,798,34.514,33.497,0.005,0.0134,9.7818,0.6383,-0.0585,-0.7893
3505,796,794,34.448,33.593,0.0715,-0.0551,9.7848,0.1525,-0.5226,-0.3121
3510,795,793,34.47,33.6,-0.0245,-0.0243,9.7568,0.3674,-0.0236,0.3364
3515,791,791,34.452,33.529,0.0177,-0.0013,9.8143,0.767,1.1798,-0.4261
3520,783,783,34.438,33.534,0.0087,0.0045,9.8173,0.4253,0.0097,-0.1792
3525,782,778,34.525,33.527,-0.0255,0.0138,9.8642,-0.6098,1.12,-0.3545
3530,771,774,34.414,33.573,0.0535,-0.0535,9.8453,0.4799,-0.269,0.063
3535,770,768,34.436,33.524,-0.0056,0.0368,9.7888,-0.3955,-0.3333,-0.2702
3540,767,772,34.439,33.612,0.0192,0.0597,9.748,0.1326,0.282,-0.2793
3545,761,767,34.486,33.626,0.0353,0.0023,9.7554,0.0806,0.0182,-0.7622
3550,762,762,34.586,33.554,-0.0191,-0.0067,9.8653,0.0983,0.0991,-0.7821
3555,753,751,34.499,33.491,-0.024,-0.0211,9.7974,0.5595,-0.055,-0.448
3560,760,749,34.526,33.645,-0.023,0.0768,9.8584,-0.1658,0.3109,0.0448
3565,748,743,34.532,33.466,-0.0147,0.1379,9.7953,0.3042,0.2374,-0.2687
3570,745,744,34.467,33.523,-0.0539,-0.0677,9.7605,-0.4915,-0.1403,-0.3839
3575,749,737,34.447,33.547,-0.0213,0.0777,9.7971,-1.0011,-0.502,-1.2287
3580,753,738,34.527,33.602,-0.018,0.0292,9.8928,0.4676,-0.3051,-0.3094
3585,743,731,34.52,33.588,0.0892,0.1014,9.7736,-0.346,0.0268,0.6428
3590,749,724,34.527,33.533,-0.0284,0.0617,9.7637,0.7785,-0.4348,0.5688
3595,744,723,34.474,33.572,-0.0267,0.075,9.7276,0.2193,0.3306,0.5529
3600,748,718,34.51,33.551,-0.018,-0.0028,9.8158,0.4005,0.642,0.3134
3605,751,712,34.534,33.508,-0.0332,-0.055,9.7264,-1.284,-0.0293,-0.2896
3610,747,709,34.395,33.624,-0.0649,-0.1065,9.839,-0.0482,0.615,0.7435
3615,749,710,34.529,33.502,-0.0256,0.0431,9.6986,-0.8383,-0.5419,0.8431
3620,756,701,34.578,33.598,-0.0437,0.0571,9.7672,0.1653,-0.4273,0.2583
3625,761,699,34.58,33.489,0.0771,-0.0015,9.8844,0.9308,-0.2328,0.0435
3630,768,696,34.593,33.563,0.0473,0.0049,9.7879,0.1614,0.4631,0.4256
3635,769,692,34.562,33.611,0.035,-0.0473,9.787,-0.2191,1.0219,0.3822
3640,775,689,34.428,33.591,-0.042,0.0191,9.915,0.9953,0.3546,0.0126
3645,774,681,34.477,33.548,0.0363,0.0244,9.9089,-1.3219,-0.5824,-0.5977
3650,786,676,34.517,33.604,-0.0629,-0.0869,9.8268,0.2108,-0.8356,-0.5278
3655,780,670,34.512,33.516,-0.0511,0.033,9.8402,-0.3586,-0.5667,0.4085
3660,793,674,34.449,33.546,-0.0269,0.0337,9.8876,-1.1294,-0.141,-0.2379
3665,799,670,34.438,33.621,-0.0756,-0.0526,9.779,0.3003,0.2019,0.1329
3670,810,665,34.574,33.517,0.0282,0.0031,9.7875,0.4589,0.1134,0.0579
3675,806,660,34.444,33.531,0.0352,-0.0516,9.8505,0.2706,-0.6171,-0.1346
3680,821,660,34.512,33.586,-0.0622,-0.079,9.6908,-0.5864,-0.4394,0.0679
3685,835,659,34.512,33.543,-0.0882,0.0465,9.6896,-0.6738,1.1888,0.8078
3690,845,661,34.565,33.574,-0.0291,0.0013,9.7811,-0.5435,0.226,0.0873
3695,848,654,34.435,33.554,0.0709,0.0073,9.8087,0.2585,0.0004,0.1053
3700,855,655,34.486,33.552,-0.1169,0.0013,9.7992,-0.1559,0.3935,0.309
3705,867,657,34.426,33.625,-0.0046,-0.0742,9.7768,-0.1999,-0.2423,0.464
3710,869,655,34.604,33.572,-0.0076,0.0312,9.7643,0.5805,0.8579,0.4175
3715,883,650,34.556,33.562,-0.0094,0.0412,9.7771,-0.5732,0.8085,-0.3432
3720,890,653,34.509,33.605,-0.029,-0.0035,9.8037,-0.3074,0.3644,0.1093
3725,899,648,34.478,33.518,-0.01,-0.0735,9.8291,0.5727,0.2166,-0.2556
3730,922,651,34.517,33.545,0.0724,0.0182,9.8049,0.6229,0.2271,0.6387
3735,926,651,34.507,33.546,0.0278,-0.0662,9.9303,0.4681,-0.957,0.7526
3740,940,653,34.42,33.536,-0.0479,-0.0027,9.7824,-0.2787,-0.1077,0.076
3745,943,658,34.511,33.549,-0.0538,0.0045,9.8445,0.4049,-0.6826,-0.0827
3750,953,656,34.476,33.49,0.0275,-0.0335,9.8234,0.5023,0.6352,0.9282
3755,965,657,34.537,33.608,-0.0207,0.0181,9.8366,-0.2484,0.4498,0.3136
3760,984,656,34.393,33.738,0.0112,-0.0036,9.8248,0.4225,0.5046,0.5366
3765,990,656,34.469,33.579,0.009,0.145,9.8079,-0.3099,0.4202,-0.1326
3770,998,662,34.558,33.575,0.0211,0.0128,9.7457,0.228,-0.1314,-0.1112
3775,999,662,34.514,33.537,0.0469,-0.0682,9.7387,-0.7492,-0.5852,-0.1744
3780,1018,669,34.507,33.571,-0.0258,-0.0115,9.8042,0.4993,-0.7048,-0.0872
3785,1032,675,34.572,33.552,0.026,0.1251,9.8057,0.7585,0.6955,-0.1098
3790,1039,674,34.542,33.535,-0.0575,-0.0549,9.8055,-0.1925,0.9143,0.4062
3795,1035,682,34.462,33.553,0.0442,-0.01,9.7559,-0.4071,0.0597,-0.4893
3800,1045,689,34.509,33.62,0.0237,-0.0042,9.8497,0.4634,0.4433,-0.7468
3805,1057,690,34.562,33.533,0.142,-0.0759,9.7776,0.8488,-0.1121,0.1687
3810,1072,694,34.48,33.569,-0.0518,0.0292,9.7973,0.1043,0.3773,-0.0358
3815,1082,699,34.537,33.532,-0.0308,-0.0007,9.8304,-0.0407,0.2815,0.4859
3820,1091,695,34.421,33.537,0.0996,0.0198,9.7877,-0.3973,-0.2859,0.532
3825,1090,707,34.372,33.517,0.0091,-0.0778,9.7888,-0.5367,0.4937,0.9385
3830,1111,709,34.601,33.491,0.0688,-0.0143,9.7707,0.7912,0.2801,-0.0617
3835,1108,718,34.561,33.523,-0.0245,-0.0395,9.7708,0.1019,0.3231,0.7593
3840,1123,718,34.447,33.62,-0.0224,0.0177,9.8105,0.5422,-0.3557,0.2272
3845,1124,734,34.456,33.497,-0.0636,0.0264,9.8808,0.1062,1.0526,0.2441
3850,1134,734,34.54,33.595,-0.0336,0.063,9.8137,0.1434,-0.3144,0.2025
3855,1142,738,34.558,33.655,-0.0538,0.0772,9.8802,-0.3023,-0.2438,-0.0393
3860,1142,742,34.469,33.573,-0.0658,-0.008,9.7619,0.1006,0.5838,-0.2957
3865,1146,750,34.467,33.527,0.0167,0.0036,9.6952,0.0992,-0.5985,-0.3347
3870,1154,752,34.489,33.527,0.0294,-0.1432,9.7809,-0.6045,0.7366,0.4184
3875,1147,759,34.454,33.509,-0.081,0.1126,9.8348,-1.2189,-0.6697,-0.9767
3880,1168,767,34.452,33.61,-0.0395,0.035,9.7769,0.2642,-0.4099,0.3768
3885,1168,774,34.526,33.602,-0.0235,-0.0439,9.8408,-0.5475,0.395,0.3006
3890,1167,783,34.5,33.581,-0.0525,-0.0658,9.9567,0.3588,-0.3083,0.6094
3895,1176,788,34.472,33.602,0.033,0.032,9.8502,0.8925,0.4539,-0.2831
3900,1167,790,34.42,33.469,-0.0656,-0.0508,9.7867,-0.0675,-0.3382,-0.5248
3905,1182,799,34.455,33.558,0.067,0.0405,9.7915,0.1624,0.1636,-0.5609
3910,1190,804,34.592,33.635,-0.0447,-0.0287,9.7928,0.0799,1.176,0.5532
3915,1174,811,34.475,33.503,0.0135,0.0248,9.8224,-0.7684,0.176,-0.3948
3920,1187,814,34.475,33.53,0.0376,-0.0166,9.8003,0.4962,0.1145,-0.3717
3925,1190,822,34.462,33.566,0.0414,0.0267,9.8103,-0.8632,0.1731,0.7982
3930,1184,829,34.567,33.632,0.0436,-0.0399,9.7522,0.3446,-0.4745,0.0237
3935,1183,832,34.501,33.625,-0.0066,0.0596,9.8189,0.2939,-0.3124,-0.0825
3940,1186,839,34.492,33.529,0.0333,0.0709,9.805,-0.0032,0.523,-0.6348
3945,1199,841,34.384,33.538,-0.0112,-0.033,9.8448,-0.5675,0.7204,0.1796
3950,1186,848,34.418,33.532,-0.0609,-0.0114,9.8345,0.0339,0.5407,-0.4503
3955,1186,851,34.46,33.488,0.0578,0.1051,9.8222,0.6987,0.5928,-0.484
3960,1181,857,34.483,33.508,0.115,0.0025,9.8806,-0.5804,-0.0104,0.1122
3965,1185,858,34.492,33.57,-0.0243,0.0158,9.7596,-0.6,-0.4745,0.7187
3970,1187,863,34.579,33.522,0.0466,-0.0866,9.8209,-0.8681,0.2548,-0.2374
3975,1190,870,34.454,33.588,-0.0544,-0.0087,9.8851,0.4552,0.0196,-0.0307
3980,1171,872,34.504,33.606,0.058,0.0261,9.8699,-0.8255,-0.0044,-0.0474
3985,1185,876,34.43,33.623,0.0989,-0.0007,9.7676,0.4023,-0.7229,-0.1129
3990,1175,888,34.563,33.598,-0.0611,0.022,9.7384,0.0457,0.4598,-0.2515
3995,1173,885,34.581,33.588,-0.0475,-0.0119,9.8237,-0.1938,-0.2538,-0.351
4000,1185,887,34.5,33.578,0.0379,-0.0319,9.8084,-0.1097,0.0224,-0.1982
4005,1180,888,34.429,33.58,-0.017,-0.0387,9.7473,0.2324,0.1057,0.1545
4010,1165,898,34.508,33.504,-0.0362,0.0213,9.7999,-0.0787,0.7883,-0.2423
4014,1158,896,34.575,33.614,0.0705,-0.0481,9.7432,0.014,0.4555,0.2554
4019,1168,902,34.47,33.554,0.0174,-0.0315,9.8919,0.1943,0.5864,-0.0126
4025,1162,902,34.431,33.609,-0.1124,-0.0324,9.8496,0.1591,-0.0632,-0.2738
4030,1157,901,34.49,33.544,0.0048,0.0266,9.841,0.6135,-0.0768,0.7903
4035,1149,902,34.412,33.589,0.0584,0.0865,9.7897,0.7554,0.4225,-0.6865
4040,1153,908,34.372,33.636,0.0421,0.0244,9.8598,0.1304,-0.1585,-0.0593
4045,1155,908,34.396,33.554,-0.0319,0.0162,9.7365,0.2229,-0.199,-1.0109
4050,1144,913,34.464,33.592,0.059,0.0553,9.7837,-0.7505,0.8135,-0.4549
4054,1144,911,34.442,33.596,0.0213,0.0475,9.7652,-0.0236,0.125,0.0216
4059,1138,910,34.574,33.486,-0.0996,-0.0838,9.9314,0.4802,-0.1624,-0.6698
4065,1139,915,34.452,33.585,-0.0472,0.0224,9.7782,-0.0589,-0.7292,-0.2746
4070,1135,913,34.492,33.633,0.047,0.0317,9.7915,-0.0349,0.2341,0.4075
4075,1132,912,34.497,33.475,0.0369,0.0764,9.723,-0.206,-0.1309,0.5564
4080,1135,911,34.52,33.54,-0.0004,-0.0498,9.8246,-0.4196,-0.2349,0.4791
4085,1128,908,34.532,33.497,0.0115,0.0428,9.898,-0.7094,0.9133,-0.2325
4090,1133,914,34.495,33.633,-0.029,-0.0154,9.786,-0.3632,-0.5203,-0.1612
4094,1116,905,34.461,33.604,0.0813,0.0367,9.8163,0.405,-0.3677,0.0387
4100,1122,912,34.481,33.533,-0.1112,0.0286,9.7542,-0.2495,-0.247,-0.5497
4105,1114,906,34.419,33.562,0.0143,-0.0432,9.8751,-0.7111,-0.3121,0.2913
4110,1110,902,34.58,33.518,-0.056,0.0249,9.8564,-0.287,0.1684,0.3155
4115,1111,900,34.537,33.56,0.0393,0.0276,9.7715,0.4679,0.7739,0.1
4120,1111,903,34.475,33.615,-0.0147,0.003,9.7519,0.0466,0.4223,0.9944
4125,1112,913,34.443,33.54,-0.0704,-0.0075,9.792,0.4267,0.3591,-0.2165
4130,1098,902,34.508,33.491,0.0138,-0.0102,9.7827,-0.0391,0.4221,-0.2782
4135,1104,898,34.519,33.554,0.0444,-0.0666,9.8111,0.0314,-0.18,-0.0291
4140,1101,905,34.477,33.596,0.0177,0.0485,9.8207,0.4844,-0.6847,-0.0533
4145,1102,896,34.491,33.677,-0.0591,-0.0279,9.8534,0.4466,-0.1283,-0.273
4150,1104,894,34.491,33.534,-0.0088,0.0647,9.8727,0.1738,0.6192,-0.5753
4155,1104,897,34.481,33.562,0.0367,-0.0167,9.8522,0.3616,-1.1294,-0.0691
4160,1095,893,34.428,33.437,0.0851,0.0029,9.8943,1.1488,0.3897,0.0792
4165,1096,894,34.412,33.543,-0.0216,-0.064,9.8395,0.5535,-0.42,-0.3914
4170,1091,888,34.465,33.551,0.0166,-0.0556,9.764,-0.0292,0.9304,-0.3062
4175,1089,888,34.422,33.674,0.0058,0.0851,9.7915,0.0906,-0.2881,-0.0817
4180,1094,887,34.466,33.576,-0.0481,-0.0351,9.8171,0.5352,0.5948,-0.2613
4185,1093,888,34.435,33.627,0.0482,-0.0438,9.7988,-0.057,-0.0427,0.311
4190,1085,884,34.436,33.489,0.0214,-0.028,9.8158,-0.1409,-0.9574,0.9159
4195,1083,883,34.545,33.507,0.015,0.0354,9.9197,-0.101,0.454,0.4742
4200,1083,876,34.497,33.555,0.0314,0.1011,9.7166,0.2758,-0.7046,0.432
4205,1081,878,34.499,33.569,-0.0764,-0.0284,9.9165,-0.6013,-0.2712,-0.3708
4210,1079,879,34.542,33.563,0.0163,-0.0218,9.7686,-0.2313,0.4763,-0.0902
4215,1079,873,34.432,33.564,0.0116,0.0048,9.8301,-1.4082,-0.2473,-0.7399
4220,1068,875,34.422,33.561,0.058,0.0242,9.8318,-0.5756,0.5051,-0.1229
4225,1074,870,34.49,33.497,0.0165,-0.0724,9.7545,0.6156,-0.6288,-0.8984
4230,1064,876,34.455,33.568,0.0483,-0.0493,9.8304,0.2842,0.5783,-0.2014
4235,1056,870,34.508,33.551,0.0437,-0.0359,9.7997,0.8711,0.224,1.1773
4240,1064,868,34.514,33.549,-0.0188,-0.0035,9.7764,0.4921,0.2658,-0.2505
4245,1061,871,34.503,33.563,-0.0824,-0.0068,9.8896,-0.6318,0.4397,-0.2826
4250,1059,869,34.539,33.658,0.031,-0.017,9.8503,0.0625,0.7243,0.3865
4255,1048,864,34.463,33.608,-0.0009,-0.0544,9.848,-1.0181,-0.2488,0.2912
4260,1053,861,34.481,33.617,0.0641,-0.0916,9.8132,0.3377,0.6092,-0.6616
4265,1053,866,34.413,33.538,0.0109,0.0664,9.8304,-0.5737,0.2342,0.5652
4270,1037,863,34.546,33.637,0.0304,-0.0039,9.8841,-0.0144,0.4511,0.033
4275,1035,861,34.477,33.506,-0.0538,0.0415,9.8111,0.1369,-0.2491,0.4526
4280,1044,856,34.445,33.522,0.0675,0.0231,9.8121,0.9545,0.7262,0.2226
4285,1030,856,34.493,33.569,0.0128,-0.0093,9.7551,0.221,1.0559,-0.3107
4290,1035,856,34.596,33.612,0.0182,-0.0684,9.7931,0.2025,0.7721,0.5086
4295,1011,854,34.426,33.556,-0.0239,0.0269,9.758,0.4111,0.2642,0.1308
4300,1023,855,34.463,33.581,0.0106,0.0394,9.7952,0.1856,-0.6985,0.1027
4305,1001,854,34.518,33.597,0.0018,0.065,9.7786,1.0816,-0.182,-0.1096
4310,1011,848,34.582,33.569,0.0451,0.0282,9.8069,-0.8687,-0.3803,0.9442
4315,1001,847,34.534,33.515,-0.0159,0.0091,9.7204,0.1011,0.1818,-0.1302
4320,994,849,34.548,33.562,-0.0572,0.0128,9.8505,-0.0055,0.0898,0.6182
4325,988,850,34.495,33.621,-0.093,0.0352,9.7978,-0.4895,-0.3009,0.5618
4330,979,845,34.533,33.583,-0.0543,-0.0351,9.8893,-0.564,-0.4903,0.2883
4335,976,844,34.541,33.484,0.0116,-0.0144,9.8539,0.1237,0.2241,-0.8013
4340,972,844,34.487,33.714,-0.0259,-0.0235,9.7918,0.2487,0.6252,-0.3909
4345,960,842,34.478,33.595,-0.0395,-0.0054,9.8679,1.2351,-0.2946,0.1729
4350,953,845,34.538,33.571,0.0895,0.0027,9.8521,0.508,0.5534,0.7422
4355,944,834,34.52,33.509,-0.0149,0.0329,9.8486,0.2732,-0.2825,0.5649
4360,937,846,34.474,33.519,0.0272,-0.0223,9.7862,0.0549,0.4777,0.3687
4365,930,839,34.531,33.574,-0.0162,0.041,9.81,-0.2981,0.1625,0.7405
4370,925,845,34.576,33.635,-0.0586,0.0097,9.7901,-0.3489,-0.1736,-0.0088
4375,918,835,34.48,33.628,0.0557,-0.0147,9.8134,-0.695,0.4589,0.1846
4380,913,835,34.509,33.628,0.0348,-0.0044,9.8367,0.2245,-0.7727,0.5047
4385,902,834,34.501,33.551,-0.1433,0.0081,9.7693,-0.2047,-0.2521,-0.4312
4390,897,832,34.543,33.546,0.0824,0.0556,9.7888,0.5243,-0.0922,-1.3037
4395,889,823,34.523,33.42,0.0278,0.0565,9.8329,-0.1312,-0.0157,0.2933
4400,875,830,34.497,33.529,-0.0806,0.0304,9.8921,0.4096,-0.3246,-0.427
4405,872,827,34.527,33.416,-0.0099,-0.0816,9.797,-0.3655,0.2399,0.1631
4410,871,826,34.467,33.572,0.0088,0.0726,9.8296,-0.2163,-0.0081,0.0812
4415,854,827,34.475,33.566,0.017,0.0083,9.8569,-0.4194,-0.4108,0.8311
4420,852,819,34.468,33.513,-0.0525,-0.0071,9.7884,0.0639,-0.3328,-0.4725
4425,852,814,34.519,33.577,-0.0248,0.0277,9.8036,-0.4123,0.0147,-0.0337
4430,841,808,34.516,33.541,-0.0467,0.1264,9.7966,0.2087,0.3314,-0.0873
4435,826,813,34.463,33.579,0.0625,0.0591,9.8063,-0.7819,-0.5405,0.4488
4440,824,805,34.522,33.627,0.0064,0.051,9.8475,0.326,-0.6697,0.7332
4445,825,797,34.5,33.53,-0.0791,-0.0712,9.8035,-0.5731,-0.0244,0.3843
4450,811,800,34.473,33.607,-0.0061,0.1058,9.8054,-0.6602,-0.0476,0.7894
4455,803,790,34.443,33.582,-0.112,0.0035,9.8308,0.2791,0.0618,0.0622
4460,797,796,34.548,33.542,0.0092,0.0066,9.8754,0.5003,0.0041,0.0524
4465,781,790,34.469,33.565,-0.0002,-0.0016,9.8546,0.6251,-0.1913,0.6776
4470,795,781,34.423,33.539,-0.0349,-0.0363,9.8723,0.2221,0.223,-0.155
4475,781,780,34.432,33.597,-0.0856,-0.0202,9.823,0.5448,0.0909,0.6127
4480,769,774,34.483,33.578,0.0293,0.0648,9.8336,-0.6346,0.108,0.6571
4485,769,771,34.495,33.544,-0.0481,-0.0369,9.8048,-0.0816,-0.6194,0.8825
4490,775,765,34.484,33.497,0.0577,0.0414,9.8644,-0.6362,0.8057,0.2859
4495,766,761,34.488,33.509,0.0117,-0.0059,9.7934,0.66,0.286,0.441
4500,762,756,34.543,33.602,-0.0371,-0.0079,9.786,-0.7608,-0.128,-0.61
4505,760,755,34.467,33.643,0.1134,0.0212,9.834,-0.3206,0.6438,0.1124
4510,754,751,34.56,33.611,0.1043,0.0307,9.8107,0.1695,-1.1895,0.8271
4515,757,745,34.501,33.532,0.0451,-0.0854,9.8183,1.0626,-0.0288,-0.2085
4520,752,749,34.505,33.503,0.0222,0.0306,9.8672,0.588,-0.3656,0.3215
4525,746,744,34.444,33.638,-0.1065,0.0526,9.8122,0.2798,0.227,0.1148
4530,751,731,34.515,33.627,0.0171,0.0222,9.775,-0.0756,-0.3957,-0.1532
4535,744,734,34.532,33.568,0.0062,-0.044,9.8339,-1.233,-0.8468,0.0767
4540,756,720,34.447,33.554,0.0208,0.0072,9.8024,0.2091,0.5214,0.821
4545,745,720,34.466,33.516,0.0411,0.0233,9.7586,0.7608,0.1091,-0.3501
4550,755,716,34.538,33.661,0.0297,-0.0434,9.7982,0.3893,0.1372,-0.2479
4555,758,706,34.496,33.516,0.0522,-0.0076,9.7482,-0.6891,0.1256,-0.127
4560,750,706,34.44,33.564,0.0751,-0.0282,9.8038,-0.5149,-0.1038,0.1256
4565,760,703,34.59,33.541,0.1175,-0.0329,9.7977,0.3714,0.4371,-0.3276
4570,745,698,34.423,33.536,0.1051,-0.0577,9.7103,0.4355,0.4281,0.6779
4575,762,692,34.584,33.555,0.0463,-0.0028,9.8226,0.4414,-1.0398,-0.8524
4580,764,692,34.52,33.507,0.0929,-0.0944,9.7949,0.027,0.6446,0.2914
4585,772,685,34.488,33.533,-0.097,0.0098,9.7166,-0.0797,-0.0643,-0.2854
4590,770,681,34.521,33.531,-0.1227,0.0125,9.8496,0.5767,0.3115,0.2688
4595,787,679,34.481,33.499,-0.0441,-0.0478,9.7625,-0.542,0.7846,-0.8051
4600,789,674,34.584,33.485,-0.0231,0.0218,9.844,-0.1018,-0.014,-0.4822
4605,786,671,34.542,33.571,-0.0422,0.0096,9.8221,-0.2402,0.1414,-0.2178
4610,801,667,34.496,33.569,-0.013,-0.0187,9.7651,0.2215,0.4416,0.6926
4615,802,673,34.478,33.623,-0.0073,-0.0197,9.8555,0.4332,-0.3465,0.1825
4620,806,671,34.487,33.529,-0.0195,-0.0151,9.8394,-0.3896,0.1744,-0.0552
4625,812,663,34.459,33.56,0.0644,-0.0112,9.8448,0.5461,0.3011,0.8834
4630,828,666,34.415,33.631,-0.0183,0.0696,9.8216,0.285,0.3251,0.1828
4635,826,660,34.509,33.51,0.0109,-0.0505,9.838,0.4786,1.3159,0.159
4640,839,655,34.597,33.494,0.0192,-0.0234,9.8103,0.4456,0.5148,-0.3751
4645,846,659,34.419,33.539,0.0006,-0.0011,9.8021,0.4933,0.4148,-0.1591
4650,868,655,34.522,33.531,0.0315,-0.0275,9.8005,0.7388,0.7362,-0.1729
4655,871,650,34.575,33.545,0.0423,0.0532,9.8181,-0.8637,-0.0968,0.2178
4660,883,654,34.472,33.528,0.0403,-0.0176,9.8295,0.7602,-0.0527,0.0404
4665,885,649,34.513,33.648,-0.0756,0.0232,9.8003,-0.5249,-0.1154,0.1289
4670,897,651,34.542,33.492,0.0147,0.0834,9.8204,0.2035,-0.1767,-0.1499
4675,917,647,34.529,33.616,-0.0307,-0.0912,9.8143,0.699,-0.1343,-0.507
4680,902,650,34.442,33.599,-0.0417,-0.0601,9.8061,-0.0405,0.0076,-0.8224
4685,919,651,34.505,33.627,0.0887,0.0487,9.8173,0.2909,-0.3417,-0.5252
4690,936,653,34.522,33.611,-0.0847,0.0143,9.759,0.2287,0.0826,-0.4728
4695,934,652,34.477,33.476,0.0887,0.0038,9.8303,0.1119,-0.0581,0.3292
4700,959,659,34.501,33.487,0.0425,-0.0545,9.8573,0.352,-0.407,0.756
4705,968,658,34.447,33.569,-0.0257,0.1458,9.8355,0.5858,-1.1576,0.3477
4710,975,656,34.478,33.576,-0.0256,0.0285,9.7902,-0.2145,-0.7577,0.2639
4715,982,667,34.527,33.665,0.0007,-0.0278,9.9186,-1.1035,0.5088,0.7117
4720,994,668,34.533,33.573,0.0477,-0.0763,9.8812,0.2535,0.2026,-0.0923
4725,1005,669,34.502,33.569,-0.0479,-0.071,9.759,-0.4901,0.3172,-0.2846
4730,1009,675,34.391,33.525,0.0204,-0.0511,9.8734,-1.2507,-0.3096,0.1698
4735,1030,678,34.446,33.547,-0.0483,0.0151,9.914,-0.7142,-0.0961,-0.2504
4740,1038,679,34.494,33.6,-0.0964,0.1086,9.8878,0.0215,-0.6905,0.8745
4745,1045,679,34.518,33.526,-0.0541,0.0042,9.8482,-0.0554,-0.1119,0.4209
4750,1051,685,34.492,33.6,0.0224,-0.0876,9.8427,-0.0221,-0.5097,-0.886
4755,1064,687,34.572,33.622,0.0211,0.0273,9.8101,-0.6845,0.3001,-0.0546
4760,1080,688,34.503,33.586,-0.0272,0.0291,9.6883,-0.0098,-0.3115,-0.4129
4765,1088,701,34.507,33.609,-0.0254,0.0371,9.8667,-0.1389,0.5195,-0.4308
4770,1094,696,34.455,33.607,-0.0123,0.1018,9.7864,-0.4332,-0.5197,0.1243
4775,1096,706,34.53,33.622,-0.0095,-0.0596,9.731,-0.2086,0.1678,-0.9964
4780,1111,713,34.452,33.566,0.0573,0.0377,9.8165,-0.0147,0.3649,0.7127
4785,1113,719,34.503,33.515,0.1194,0.0752,9.8129,-0.4321,-0.3137,0.0488
4790,1122,726,34.533,33.628,0.048,-0.1019,9.7938,0.1975,-0.6144,-0.246
4795,1130,730,34.497,33.531,-0.0558,0.0322,9.8212,-0.8935,0.1087,-1.3309
4800,1136,734,34.46,33.593,0.0328,0.0347,9.8124,0.1432,0.049,-1.1346
4805,1131,732,34.502,33.628,0.0479,0.0319,9.8097,0.1041,0.1005,-0.4444
4810,1138,747,34.441,33.522,0.0303,-0.0038,9.8133,-0.096,-0.6614,-0.507
4815,1153,752,34.515,33.479,0.03,-0.0299,9.8552,0.2546,0.3726,-0.2148
4820,1148,761,34.454,33.542,-0.0194,0.0278,9.7189,-0.3008,0.8256,0.5294
4825,1163,761,34.482,33.506,0.0556,0.0846,9.7944,-0.13,0.4497,-0.1281
4830,1170,771,34.529,33.584,0.0182,0.0109,9.7598,-0.7445,-0.0763,0.0794
4835,1169,775,34.558,33.515,0.0011,0.0209,9.8264,-0.4365,-1.0469,0.1338
4840,1167,783,34.589,33.506,-0.0374,-0.0137,9.8492,0.7043,-0.1508,-0.0058
4845,1179,788,34.445,33.57,0.147,0.0087,9.7845,0.5385,-0.4616,0.6409
4850,1174,792,34.444,33.519,-0.0821,-0.0002,9.7284,-0.4442,0.1647,-0.217
4855,1177,802,34.538,33.506,0.0394,0.0387,9.784,0.6101,0.7666,0.1931
4860,1183,803,34.519,33.498,-0.1058,0.0027,9.8479,1.1305,0.1817,-0.44
4865,1185,811,34.574,33.575,-0.0176,0.0565,9.8623,-0.2652,-0.2246,0.4805
4870,1178,813,34.449,33.569,-0.0052,-0.0084,9.8217,0.087,-0.9615,-0.5342
4875,1185,822,34.461,33.514,-0.0641,0.0935,9.8511,0.6431,0.3181,-0.3718
4880,1198,828,34.377,33.596,0.0091,-0.0486,9.7114,0.4684,-0.2554,-0.3272
4885,1181,830,34.513,33.564,0.0224,-0.0771,9.8623,0.7884,0.2227,-0.7451
4890,1193,837,34.454,33.571,0.005,0.0063,9.8736,0.2024,0.1362,-0.9748
4895,1185,841,34.443,33.626,0.0019,-0.0802,9.8224,0.0339,0.7663,1.3276
4900,1191,851,34.49,33.549,-0.0499,0.0197,9.8743,0.832,1.2794,0.4382
4905,1196,860,34.37,33.66,0.0111,0.0816,9.8108,0.265,-0.8926,0.3868
4910,1176,854,34.554,33.501,-0.0525,0.0274,9.7996,-0.5544,-0.3067,0.3859
4915,1185,864,34.556,33.614,0.0515,-0.0385,9.7812,0.0239,-0.1099,0.1949
4920,1188,871,34.463,33.556,-0.0948,0.0071,9.7778,-0.3491,-0.0013,0.147
4925,1182,876,34.445,33.492,-0.026,0.0732,9.7688,-0.3815,-0.6193,-0.8865
4930,1176,872,34.532,33.626,-0.0819,0.1119,9.822,-0.6914,-1.0514,0.0197
4935,1177,879,34.465,33.591,0.0283,-0.0559,9.7761,-0.4398,0.0774,-0.1802
4940,1179,886,34.484,33.531,-0.0006,-0.0008,9.8279,-0.5579,-0.5027,-0.3671
4945,1174,887,34.423,33.555,0.0903,-0.0361,9.7637,-0.0782,0.4202,-0.0176
4950,1169,888,34.517,33.6,0.0169,-0.019,9.8162,0.3034,-0.1112,0.1816
4955,1174,893,34.537,33.654,0.0309,0.0687,9.712,1.2114,-0.5735,-0.3168
4960,1160,890,34.501,33.551,-0.0029,-0.0049,9.7928,-0.8775,-0.707,-0.3122
4965,1155,901,34.451,33.542,-0.0116,0.0449,9.882,0.2471,-0.6244,0.0952
4970,1160,903,34.546,33.667,0.0355,0.0888,9.8159,0.0415,0.8898,0.8222
4975,1157,902,34.508,33.55,-0.0112,-0.0838,9.8275,0.5055,-0.3367,0.3489
4980,1156,900,34.488,33.566,-0.0431,-0.0289,9.835,-0.2801,-0.2549,-0.2452
4985,1149,902,34.485,33.523,0.0194,0.0003,9.8101,0.1738,0.6498,-0.4847
4990,1156,909,34.543,33.52,0.0269,0.0933,9.8144,0.2735,-0.8329,0.5029
4995,1150,907,34.531,33.612,0.0041,0.0094,9.7971,-0.3258,-0.6617,-0.7904
5000,1146,909,34.513,33.577,0.0485,0.0118,9.7976,0.0461,0.3718,0.2663
5005,1131,910,34.522,33.595,0.0796,0.0461,9.745,-0.1938,0.5362,0.4577
5010,1139,913,34.535,33.523,0.0176,-0.0142,9.7763,0.2031,-0.3089,0.0491
5015,1142,913,34.489,33.649,0.1055,0.0254,9.8442,0.1519,-0.1036,0.8411
5020,1136,903,34.493,33.574,0.0533,-0.0308,9.7724,0.8348,0.6773,0.0866
5025,1143,910,34.549,33.55,0.0024,-0.0812,9.8351,-0.2773,0.1189,0.4486
5030,1123,918,34.508,33.648,0.0309,0.0376,9.8189,0.0094,0.6732,-0.5055
5035,1126,912,34.461,33.549,-0.1052,-0.0346,9.7791,-0.1016,1.2492,0.0008
5040,1125,908,34.486,33.54,-0.0509,-0.0368,9.7957,0.351,-0.1435,-0.2247
5045,1127,915,34.509,33.51,-0.0149,0.0217,9.7719,-0.1215,0.1807,0.5437
5050,1118,908,34.456,33.584,0.0129,0.1097,9.794,-0.0096,0.5011,0.0155
5055,1127,907,34.59,33.623,-0.038,-0.0544,9.8002,-0.1688,-0.1274,-0.3155
5060,1109,908,34.562,33.566,0.0312,-0.044,9.8,-0.1201,0.3224,-0.5863
5065,1116,903,34.491,33.627,-0.0454,-0.0505,9.7361,-0.5988,0.4896,0.0309
5070,1105,899,34.529,33.66,-0.059,-0.0279,9.776,-0.1264,-0.6251,0.468
5075,1109,903,34.492,33.545,0.0076,-0.088,9.8298,0.0983,-0.6823,0.5438
5080,1099,899,34.407,33.495,-0.0049,0.0821,9.9337,-0.3945,0.2518,-0.4583
5085,1101,900,34.524,33.583,-0.0039,0.0135,9.6869,-0.0895,0.2667,0.9209
5090,1108,897,34.482,33.611,0.0776,0.0196,9.8023,0.3488,-0.108,0.8212
5095,1106,896,34.575,33.481,0.101,-0.0443,9.8039,-0.4351,-0.2081,0.0199
5100,1096,901,34.53,33.543,0.018,-0.1011,9.8213,0.5256,1.1506,-0.2818
5105,1089,893,34.538,33.588,-0.0778,0.0384,9.8794,0.18,-0.1622,0.5895
5110,1088,893,34.433,33.549,0.0172,-0.0916,9.7585,-0.1205,-0.3015,-0.6526
5115,1098,897,34.489,33.597,0.0406,-0.053,9.8425,-0.0854,0.4297,-0.5815
5120,1093,888,34.453,33.603,0.0071,0.0133,9.8408,0.6905,-0.8778,0.2863
5125,1089,884,34.448,33.567,-0.0058,-0.0415,9.7823,0.3745,0.1396,-0.1419
5130,1087,888,34.467,33.589,0.046,-0.0218,9.7514,0.1979,0.0771,0.4491
5135,1087,891,34.492,33.681,0.1016,0.0129,9.8088,0.8886,0.1831,0.1316
5140,1080,889,34.515,33.555,0.0215,0.0276,9.7896,0.6986,0.4533,-0.2942
5145,1091,882,34.474,33.611,0.0133,-0.0316,9.8396,0.1232,-0.0455,-0.1809
5150,1085,881,34.477,33.555,-0.0674,0.0171,9.8123,-0.2918,-0.3598,-0.1507
5155,1079,872,34.481,33.47,-0.0622,-0.0453,9.8315,-0.6827,-0.6074,0.0515
5160,1081,877,34.482,33.573,0.1299,0.005,9.8572,0.4625,0.706,-0.3574
5165,1071,874,34.435,33.612,-0.0472,-0.0522,9.8053,0.6122,0.858,-0.6498
5170,1072,871,34.507,33.548,-0.0231,-0.041,9.7612,-1.1321,-0.0263,1.033
5175,1080,875,34.494,33.568,0.0509,0.014,9.8095,-0.8009,-0.2039,-0.742
5180,1072,875,34.491,33.496,-0.1168,-0.1214,9.8437,-0.7574,0.7334,0.3004
5185,1055,861,34.354,33.537,-0.0362,0.0619,9.8047,0.5631,0.0249,0.2225
5190,1064,869,34.519,33.561,0.0895,-0.0275,9.8023,0.0721,-0.1929,0.6632
5195,1061,870,34.476,33.611,-0.0534,0.0389,9.7546,-0.139,-1.3237,-0.2063
5200,1053,866,34.42,33.594,-0.0131,-0.0741,9.7325,0.4975,0.1116,0.0071
5205,1050,862,34.484,33.523,-0.0093,0.0087,9.8551,0.0611,0.6162,-0.4256
5210,1057,861,34.504,33.477,-0.13,-0.0792,9.75,-0.0557,-0.4858,-0.7777
5215,1045,860,34.494,33.575,0.0182,-0.0048,9.7484,-0.1749,-0.2995,-0.0045
5220,1038,859,34.524,33.595,0.0277,0.0049,9.7988,0.3638,0.3043,0.873
5225,1037,854,34.461,33.472,-0.0719,0.0599,9.7295,0.8023,0.3318,0.083
5230,1030,853,34.521,33.472,0.0477,-0.0186,9.8329,0.7393,0.7177,-0.0047
5235,1038,853,34.486,33.547,0.0078,0.0189,9.813,0.5589,0.5353,0.3494
5240,1023,853,34.515,33.583,0.0573,0.0097,9.7914,1.1799,-0.1537,-0.2493
5245,1026,852,34.583,33.569,0.0087,0.0989,9.7916,-0.394,-0.1663,0.1646
5250,1013,852,34.472,33.482,-0.0192,-0.0739,9.7941,0.0125,-0.0476,0.3997
5255,1010,853,34.423,33.612,-0.0037,0.0608,9.8748,0.0102,0.6906,-0.3191
5260,995,852,34.451,33.589,0.1272,-0.1013,9.8728,-0.1377,0.0108,0.6757
5265,1003,848,34.477,33.536,0.0507,0.0598,9.7882,0.6516,0.0022,0.151
5270,984,846,34.547,33.532,-0.0282,0.0546,9.8153,-0.1148,-0.3122,0.4042
5275,978,853,34.553,33.692,-0.0481,0.0208,9.8463,-0.1217,0.8613,0.4337
5280,967,846,34.333,33.506,0.0007,-0.0478,9.7234,0.4547,0.7703,-0.7208
5285,977,845,34.497,33.596,-0.0296,-0.0336,9.8858,0.0433,0.1377,0.0463
5290,964,843,34.538,33.591,-0.0371,0.0568,9.7793,0.2279,0.2451,0.3469
5295,962,843,34.501,33.67,0.0212,0.0348,9.8259,-0.4767,0.0544,-0.0376
5300,947,842,34.543,33.54,0.0255,0.026,9.7829,0.215,0.2772,-0.1818
5305,935,842,34.578,33.493,0.0819,0.042,9.786,-0.135,-0.2263,0.4365
5310,933,842,34.522,33.569,-0.0038,-0.0121,9.7736,-0.2754,-0.2314,-0.6303
5315,934,836,34.574,33.587,-0.0161,-0.0288,9.8059,1.1102,0.5828,-0.0914
5320,928,834,34.392,33.643,-0.0059,0.0024,9.8097,0.419,0.0284,-0.0008
5325,912,836,34.433,33.501,0.0916,0.0355,9.8052,-0.0794,-0.6874,0.5693
5330,909,834,34.559,33.602,-0.0162,0.0343,9.8981,-0.9844,0.6111,0.0694
5335,911,835,34.519,33.566,0.0154,-0.0082,9.7831,-0.4933,0.5135,0.7363
5340,895,830,34.495,33.487,0.0017,0.0541,9.8259,-0.3135,1.2758,-0.2846
5345,884,828,34.516,33.633,-0.0054,0.0655,9.8316,-0.6439,0.7671,0.3931
5350,872,823,34.511,33.604,0.0761,0.0462,9.772,-0.5616,-0.9888,-0.0804
5355,873,820,34.449,33.571,0.0191,-0.0345,9.839,-0.5367,-0.511,0.1159
5360,863,821,34.491,33.587,-0.0303,0.0582,9.8282,-0.8848,0.2187,-0.0119
5365,849,817,34.527,33.57,0.0517,0.0487,9.8331,-0.537,0.2814,0.3254
5370,859,815,34.564,33.594,0.0016,-0.0024,9.9441,0.8047,0.2438,-0.1819
5375,833,808,34.537,33.497,-0.03,0.0512,9.7728,0.6904,-0.2628,-0.5411
5380,832,811,34.442,33.579,0.0464,0.0681,9.797,0.0513,-0.122,-0.9889
5385,828,806,34.593,33.617,-0.0851,-0.1015,9.7589,0.1987,-0.0455,-0.124
5390,827,804,34.421,33.606,-0.0171,-0.0263,9.8544,0.9207,0.0346,-1.3676
5395,815,803,34.582,33.656,0.0574,0.0296,9.8244,-0.3325,0.5226,-0.8843
5400,808,792,34.577,33.559,-0.1568,0.0105,9.8167,-0.0546,-0.6986,0.1278
5405,804,793,34.491,33.583,-0.0435,-0.0632,9.787,-0.7952,0.0358,0.3556
5410,793,794,34.54,33.612,-0.1053,0.0827,9.8541,0.1452,0.5307,0.2308
5415,787,787,34.497,33.553,0.0662,0.0021,9.8771,0.2654,-0.282,-0.6522
5420,783,782,34.464,33.625,-0.0525,0.007,9.9144,-0.3135,-0.1276,0.9228
5425,781,777,34.509,33.644,-0.0722,0.0091,9.9119,0.5923,0.702,-0.879
5430,775,773,34.471,33.491,0.0206,-0.0076,9.8802,0.0692,-1.0244,0.8807
5435,777,769,34.514,33.524,-0.0319,0.0421,9.7802,-0.8521,-0.9767,-0.2342
5440,763,762,34.5,33.562,-0.0587,0.1084,9.904,0.2254,0.0617,0.4068
5445,759,755,34.507,33.669,-0.0085,-0.0375,9.841,-0.1597,0.3991,0.3841
5450,757,760,34.478,33.492,-0.1428,-0.0521,9.8257,-0.2329,-0.2478,-0.295
5455,753,757,34.448,33.588,-0.0078,0.0482,9.7634,-0.8144,0.3702,-0.5089
5460,753,750,34.457,33.557,0.0678,-0.0126,9.8218,-0.3151,0.7902,-0.4948
5465,742,748,34.449,33.606,0.0564,0.0089,9.6996,-0.4779,0.5315,-0.6997
5470,748,741,34.602,33.626,0.0167,0.0397,9.8213,0.6431,0.4015,-0.3999
5475,753,741,34.513,33.598,0.0354,-0.0819,9.7441,0.1546,-0.6188,0.3533
5480,754,731,34.54,33.6,0.0022,-0.059,9.7863,-0.2265,0.3787,-0.1714
5485,754,732,34.565,33.607,0.0355,0.0346,9.7896,-0.2309,-0.323,-0.2817
5490,755,724,34.572,33.515,0.0996,-0.0052,9.7887,-0.0258,0.0825,0.3697
5495,751,723,34.515,33.532,0.0176,-0.0086,9.8299,-0.0532,0.6179,-0.5575
5500,745,717,34.524,33.588,0.0034,-0.0834,9.863,-0.6018,0.1318,-0.2546
5505,751,704,34.527,33.585,-0.0458,-0.0669,9.9002,-0.1563,0.0809,0.2359
5510,746,699,34.523,33.571,-0.0605,-0.026,9.881,-0.6434,-0.6478,0.6943
5515,749,704,34.409,33.679,-0.0558,-0.0577,9.8295,1.2034,-0.5841,-0.8604
5520,760,691,34.424,33.578,-0.0056,-0.0524,9.785,0.1909,-0.67,0.4536
5525,758,689,34.489,33.645,0.1079,0.0968,9.7774,0.7367,-0.9981,0.5618
5530,774,691,34.589,33.599,-0.0694,0.0654,9.7662,0.0129,-0.4957,0.6411
5535,777,682,34.498,33.495,-0.0418,0.0065,9.7446,0.8795,0.9663,-0.0799
5540,780,683,34.483,33.553,-0.0137,0.0385,9.8021,-0.2256,0.0898,-0.1206
5545,779,676,34.452,33.564,0.0766,-0.0175,9.8368,-0.3678,0.2125,0.1475
5550,791,676,34.542,33.611,0.0227,0.0006,9.7848,-0.1023,0.1574,0.0214
5555,790,673,34.449,33.534,0.0349,-0.0025,9.7586,-0.4559,-0.3482,0.5164
5560,802,668,34.504,33.537,0.0342,-0.0843,9.8293,-0.5413,0.26,0.23
5565,804,665,34.5,33.625,0.0436,0.0133,9.7998,-0.9246,-0.7303,0.221
5570,811,664,34.546,33.618,0.0891,-0.0489,9.7766,-0.323,1.336,-0.0183
5575,822,660,34.471,33.619,-0.1038,0.0536,9.8502,0.1552,0.6441,-0.1836
5580,825,658,34.609,33.554,0.084,0.0852,9.816,0.5286,-0.1869,0.6596
5585,834,659,34.446,33.635,0.0244,0.0162,9.8044,0.1875,0.5068,-0.4165
5590,842,659,34.558,33.571,-0.0294,0.0706,9.7788,0.2825,-0.2874,0.4912
5595,843,656,34.533,33.529,0.0209,0.1102,9.8519,-1.0497,-0.2283,-0.6466
5600,864,655,34.511,33.603,-0.0711,-0.076,9.7975,0.6909,-0.3504,-0.4447
5605,877,648,34.51,33.571,0.0336,-0.0297,9.9244,0.241,0.1976,-0.5175
5610,884,655,34.471,33.498,0.0183,-0.0067,9.8219,0.7579,-0.2772,0.2747
5615,899,647,34.547,33.642,-0.085,0.0349,9.8116,-0.1921,0.5297,0.4887
5620,890,654,34.534,33.489,-0.0035,0.0252,9.789,0.2211,1.0719,0.3292
5625,911,652,34.666,33.604,-0.0133,-0.0477,9.8521,-0.1044,0.2074,-0.1211
5630,917,654,34.508,33.615,-0.07,0.0189,9.8913,-0.0128,0.1106,-0.7952
5635,931,651,34.561,33.553,0.0843,-0.0155,9.8647,-0.4481,-0.5502,-0.3743
5640,943,656,34.54,33.574,-0.0431,-0.0235,9.8562,-0.9481,0.1591,-0.7848
5645,950,650,34.39,33.526,-0.0356,0.0267,9.7784,0.5103,-0.2219,0.3541
5650,960,653,34.503,33.539,-0.0546,-0.1065,9.7431,0.7282,-0.5687,0.1237
5655,972,657,34.414,33.574,0.0331,-0.0069,9.7097,0.026,-0.3528,-0.1685
5660,978,658,34.433,33.478,-0.0339,-0.0623,9.791,-0.3185,0.1771,-1.5596
5665,987,669,34.527,33.556,0.0537,0.0373,9.7719,-0.1475,0.3575,0.1979
5670,1007,662,34.637,33.555,0.0295,0.0358,9.7001,0.1365,-0.3266,0.2856
5675,1008,668,34.452,33.609,0.0562,0.0534,9.8004,0.7662,0.0062,-1.215
5680,1018,673,34.42,33.602,0.0409,0.0141,9.8668,-0.2371,-0.5329,-0.4865
5685,1034,673,34.522,33.53,0.0093,-0.056,9.8306,0.2643,-0.2199,0.4023
5690,1039,673,34.455,33.539,0.0222,-0.0022,9.7784,0.1262,-0.5449,0.9146
5695,1049,688,34.501,33.57,-0.0407,0.0088,9.8391,0.8989,0.118,-0.538
5700,1059,685,34.474,33.571,-0.071,0.0283,9.7743,0.0564,-0.2126,-0.5801
5705,1062,689,34.608,33.573,0.0119,0.0061,9.8097,0.2525,0.101,0.269
5710,1069,695,34.456,33.684,0.04,-0.0258,9.7694,0.5092,-0.4461,-0.0215
5715,1088,705,34.515,33.664,0.0203,0.0804,9.7718,-0.6453,0.6686,0.2799
5720,1097,702,34.438,33.628,-0.0068,-0.0432,9.8289,0.3045,0.4485,-0.2379
5725,1095,709,34.575,33.622,0.0712,-0.0676,9.8149,-0.4701,0.7521,-0.372
5730,1108,713,34.609,33.609,0.0682,-0.0004,9.9286,0.5517,0.6748,-0.0464
5735,1121,719,34.456,33.702,0.0306,-0.0008,9.7809,-0.8511,0.7246,-0.2717
5740,1133,721,34.539,33.679,0.0157,0.0067,9.8351,0.344,-0.4031,-0.1665
5745,1134,725,34.503,33.598,0.0356,0.0903,9.7619,-0.409,-0.1153,0.4298
5750,1140,738,34.494,33.55,0.0327,-0.009,9.8319,0.5043,0.2107,0.0871
5755,1143,744,34.511,33.545,0.0234,0.028,9.8716,0.1334,0.3205,0.2645
5760,1143,750,34.446,33.593,-0.0122,0.0046,9.9015,-0.035,0.2539,0.2835
5765,1150,756,34.491,33.696,0.024,-0.0359,9.8389,0.8756,0.4403,-0.1028
5770,1157,761,34.572,33.551,-0.02,-0.0315,9.8252,0.3699,0.1197,0.5596
5775,1163,769,34.515,33.508,-0.0571,0.0578,9.7589,-0.2755,-0.2382,-0.1605
5780,1159,777,34.53,33.67,-0.0026,0.0218,9.8024,0.536,-0.0213,-1.1872
5785,1171,777,34.507,33.551,-0.0327,0.0352,9.8445,0.6737,-0.3067,0.3476
5790,1176,782,34.588,33.632,-0.1045,-0.0235,9.7966,0.1614,0.4136,-0.0026
5795,1178,785,34.544,33.612,-0.0807,0.0148,9.8483,-0.2835,-0.157,0.3931
5800,1177,799,34.544,33.622,-0.0366,-0.0391,9.9743,0.1166,0.5634,-0.0948
5805,1172,802,34.502,33.535,0.0287,0.0701,9.7976,0.4501,0.1295,0.1582
5810,1190,806,34.544,33.515,-0.0207,0.0226,9.8125,0.5788,-0.0442,0.1028
5815,1184,816,34.47,33.564,0.0372,-0.0412,9.735,-0.7548,-0.2152,-0.5533
5820,1189,816,34.485,33.63,0.0461,0.0351,9.8464,-0.2852,-0.0521,-0.4714
5825,1191,826,34.521,33.579,0.0417,0.0054,9.8733,0.071,0.2951,0.2267
5830,1188,830,34.561,33.569,0.0312,-0.0544,9.7895,-0.2372,0.1758,-0.3887
5835,1183,830,34.536,33.564,0.0298,0.0202,9.8473,-0.6876,0.209,0.0982
5840,1199,835,34.571,33.542,0.0134,0.0509,9.8122,0.0673,0.2444,0.7283
5845,1192,849,34.562,33.579,0.0174,-0.0501,9.7999,-0.2504,-0.9892,0.3073
5850,1185,849,34.504,33.545,0.0922,0.0164,9.8021,-0.5324,0.3483,1.0223
5855,1186,853,34.533,33.679,-0.0237,-0.0297,9.8397,0.6397,-0.4708,0.4964
5860,1190,858,34.489,33.603,0.0359,0.1114,9.8024,-0.3442,0.9963,-0.2559
5865,1187,866,34.454,33.538,-0.0036,0.0549,9.8755,-0.2652,-0.0964,0.299
5870,1175,872,34.502,33.635,-0.1038,-0.0191,9.7928,-0.2763,-0.1228,0.0145
5875,1177,869,34.45,33.547,0.0125,0.0441,9.7948,-0.3759,-0.3714,-0.2873
5880,1185,873,34.515,33.554,-0.0231,0.0577,9.7894,-0.6651,-0.0323,-0.1105
5885,1184,884,34.458,33.548,0.0158,0.0382,9.8152,0.4958,-0.1761,-0.7579
5890,1177,883,34.396,33.633,0.0045,-0.086,9.79,-0.1645,-0.2646,0.2878
5895,1165,890,34.425,33.558,-0.0189,-0.0074,9.8734,-0.3414,0.1451,1.3402
5900,1165,889,34.557,33.586,0.0481,0.0951,9.7448,0.3202,-0.2743,-0.6318
5905,1168,894,34.525,33.583,0.0858,-0.0101,9.8661,-0.0791,0.6792,-0.984
5910,1163,899,34.528,33.603,-0.0714,-0.0423,9.7417,0.5069,-0.6257,-0.2854
5915,1172,897,34.55,33.531,-0.0543,0.0596,9.8081,0.6321,0.0845,0.1315
5920,1167,898,34.5,33.64,0.0492,0.0774,9.7426,-0.3864,0.6853,0.2905
5925,1156,907,34.472,33.598,-0.0008,-0.0014,9.7954,0.526,0.451,0.1382
5930,1155,906,34.457,33.589,-0.0028,0.0389,9.7766,0.2508,-0.3455,0.0615
5935,1159,906,34.459,33.521,0.0499,-0.0858,9.8625,0.0995,0.359,0.1408
5940,1156,908,34.508,33.578,-0.038,-0.0044,9.7917,-0.3168,0.109,-0.242
5945,1150,911,34.485,33.54,-0.0701,-0.0611,9.8956,-0.9688,0.2625,0.3075
5950,1149,912,34.551,33.601,-0.0115,-0.0366,9.8379,0.0592,-0.1554,0.6429
5955,1152,901,34.507,33.518,-0.0184,0.0594,9.8493,-0.7162,0.07,0.0151
5960,1146,911,34.481,33.527,0.0052,0.0107,9.9078,0.4665,0.0494,0.2333
5965,1129,909,34.528,33.597,-0.0246,-0.0196,9.8661,-0.7057,-0.2365,0.3177
5970,1129,913,34.475,33.63,0.0283,-0.0523,9.7766,-0.1619,1.2946,-0.0503
5975,1127,915,34.454,33.56,0.0409,-0.0164,9.8502,-0.2465,1.0355,-0.7317
5980,1142,910,34.49,33.611,-0.0339,-0.0096,9.8016,0.6507,0.3147,0.6425
5985,1124,911,34.436,33.493,0.019,0.0318,9.8131,-0.4129,0.0378,0.1184
5990,1123,905,34.52,33.556,-0.0025,0.034,9.8606,-0.386,-0.6282,-0.4745
5995,1121,908,34.474,33.491,0.0606,0.0965,9.8039,-0.4608,0.105,-0.0965
6000,1121,908,34.436,33.505,-0.0663,0.054,9.8042,0.3442,0.2548,0.0102
6005,1114,910,34.437,33.571,0.0402,0.0915,9.8191,-0.0851,-0.6736,0.0467
6010,1117,906,34.57,33.607,0.01,0.025,9.788,0.1245,-0.143,0.8022
6015,1108,910,34.509,33.535,0.0393,-0.0376,9.8275,0.38,-0.3535,-0.8134
6020,1109,907,34.39,33.577,-0.0649,0.0865,9.7525,-0.2384,-0.0838,-0.5323
6025,1109,909,34.541,33.579,-0.001,0.0423,9.7566,-0.3379,0.641,-0.0493
6030,1108,901,34.482,33.543,0.0759,-0.0565,9.8114,-0.1818,0.3395,0.0566
6035,1102,901,34.46,33.579,-0.0806,0.0141,9.8254,-0.396,0.752,-0.0211
6040,1106,895,34.486,33.565,0.0644,-0.0423,9.8741,-0.4406,0.6176,-0.1064
6045,1099,898,34.484,33.518,0.042,0.0206,9.8719,0.7322,-0.3844,-0.6181
6050,1094,894,34.47,33.625,-0.003,-0.0288,9.8824,-0.9865,0.3346,-0.152
6055,1098,891,34.525,33.594,-0.0295,-0.0167,9.8915,0.7726,-0.6622,0.4235
6060,1094,896,34.616,33.58,-0.049,-0.0053,9.7662,0.0967,0.6421,0.2881
6065,1096,894,34.451,33.635,0.0345,-0.0368,9.8501,-0.6407,0.1174,0.6395
6070,1097,891,34.476,33.478,-0.0641,0.0002,9.883,-0.2709,-0.573,-0.1838
6075,1091,886,34.505,33.606,0.0504,0.0103,9.7925,0.7763,-0.3331,-0.2832
6080,1090,883,34.506,33.56,0.075,-0.0117,9.8059,-0.088,-0.439,1.3349
6085,1095,886,34.496,33.491,-0.0163,-0.0161,9.8341,-0.7936,0.1235,0.2709
6090,1085,885,34.512,33.631,-0.0765,-0.0628,9.8245,-0.0521,-0.2645,-0.8745
6095,1078,885,34.487,33.575,0.024,0.0344,9.8281,0.1881,0.7367,0.1469
6100,1082,883,34.484,33.616,0.0091,0.035,9.7986,-0.2098,0.9944,0.0988
6105,1074,877,34.499,33.562,0.0061,0.0254,9.8439,0.6433,-0.7237,-0.4677
6110,1075,878,34.569,33.561,0.0827,-0.1258,9.7717,-0.7848,0.3626,-0.169
6115,1077,876,34.485,33.555,0.1243,-0.0849,9.8772,0.5174,0.553,0.7498
6120,1064,873,34.554,33.538,-0.0762,-0.0375,9.8419,-0.2394,0.4007,-0.2252
6125,1062,870,34.499,33.548,0.0367,-0.0133,9.6783,0.9818,-0.5208,0.6747
6130,1065,874,34.467,33.613,0.0708,-0.0586,9.8709,-0.3763,0.5881,0.1385
6135,1064,869,34.456,33.54,0.0661,-0.048,9.8344,0.7526,-0.1946,-0.0141
6140,1060,872,34.468,33.597,-0.0298,0.0612,9.8225,-0.4836,-0.6028,0.6581
6145,1057,866,34.613,33.56,-0.023,0.0278,9.8084,0.286,-0.2294,-0.5967
6150,1053,862,34.504,33.61,-0.039,-0.0173,9.7949,-0.5218,-0.2026,-0.6671
6155,1052,868,34.479,33.609,0.0595,-0.0204,9.8457,-0.0494,0.0489,-0.4852
6160,1048,865,34.584,33.672,-0.0104,0.0104,9.7898,-0.3902,0.03,-0.3074
6165,1051,862,34.537,33.511,-0.0807,0.0952,9.794,-0.1467,0.2624,0.2097
6170,1029,860,34.502,33.638,-0.0205,0.0111,9.8207,-0.0356,0.3785,-0.2473
6175,1038,860,34.414,33.538,0.0099,-0.0259,9.8542,-0.1215,0.1544,0.6629
6180,1041,854,34.444,33.656,0.0038,0.0044,9.7597,-0.9259,-0.5462,-0.1433
6185,1018,858,34.458,33.546,0.0997,-0.0102,9.7954,-0.2681,0.7776,-0.5837
6190,1017,852,34.56,33.539,0.0281,-0.0614,9.7911,-0.5229,-0.3497,-0.6564
6195,1026,856,34.529,33.57,0.0501,0.017,9.7806,-0.1354,0.0734,0.5692
6200,1014,852,34.546,33.529,-0.0769,0.0283,9.8577,-0.467,0.2732,-0.1508
6205,1005,849,34.511,33.634,0.0297,-0.0375,9.6737,-0.4672,0.6495,-0.0034
6210,1000,851,34.605,33.51,-0.0347,0.0902,9.8043,0.7186,-0.7097,-0.4146
6215,998,853,34.55,33.62,-0.036,-0.069,9.8287,0.7841,0.5785,-0.0599
6220,984,849,34.533,33.548,-0.0432,0.0064,9.8458,0.5736,-1.3863,-0.5981
6225,982,846,34.502,33.53,0.0356,0.0174,9.8671,0.0087,-0.0746,0.0499
6230,974,853,34.521,33.55,0.0008,-0.032,9.8765,-0.0838,-0.4198,0.8811
6235,971,850,34.467,33.543,-0.0305,-0.0553,9.8781,-0.8049,-0.1162,-0.4226
6240,963,843,34.425,33.567,-0.028,0.0088,9.7898,0.1079,0.3429,0.367
6245,953,846,34.462,33.643,-0.0521,0.0198,9.8217,0.906,0.0088,0.5742
6250,944,843,34.605,33.651,0.0469,-0.0086,9.7798,0.506,-0.1156,-0.3634
6255,944,839,34.541,33.507,0.0138,-0.0338,9.7617,-0.4022,-0.2952,-0.006
6260,941,840,34.416,33.567,-0.0462,-0.0152,9.7486,-0.1588,-1.1497,-0.2103
6265,926,834,34.477,33.579,0.1178,-0.0354,9.8523,0.0058,0.3952,0.4385
6270,926,841,34.547,33.566,-0.0151,0.0662,9.8406,-0.8418,-0.431,-0.0011
6275,918,835,34.596,33.598,-0.0186,-0.0486,9.8164,-0.48,-0.2403,-0.5367
6280,909,837,34.497,33.57,0.0798,0.0532,9.7674,0.217,-0.1342,0.5463
6285,899,833,34.425,33.699,0.0233,-0.0627,9.8451,-0.5506,-0.3671,0.0755
6290,886,831,34.572,33.544,0.0392,0.0054,9.8082,-0.4569,0.2532,0.451
6295,886,826,34.54,33.611,-0.0362,-0.0374,9.7619,-1.2506,-0.3376,0.0319
6300,878,825,34.43,33.568,-0.0309,0.0107,9.8566,-0.1418,0.2627,0.7909
6305,877,824,34.5,33.478,-0.0711,0.0294,9.7008,-0.1136,0.6493,-0.2412
6310,863,820,34.41,33.636,-0.0998,0.0015,9.7801,0.306,0.5492,0.2196
6315,851,820,34.466,33.539,0.0147,-0.0508,9.7816,0.137,-0.0757,0.1684
6320,848,815,34.487,33.648,-0.0252,-0.0006,9.7454,-0.5166,0.8152,-0.7184
6325,841,807,34.501,33.627,-0.037,-0.0264,9.8174,0.2464,0.703,0.5152
6330,830,805,34.57,33.59,-0.0368,-0.0073,9.7595,0.6279,-0.7743,-0.5516
6335,831,804,34.518,33.491,0.0157,-0.0202,9.8021,-0.029,-0.6562,-0.2072
6340,817,803,34.527,33.643,-0.0288,0.0237,9.7869,-0.0279,0.2661,0.0228
6345,815,799,34.457,33.645,0.0216,0.0935,9.8005,-1.3636,0.1786,-0.6894
6350,802,794,34.477,33.507,0.1295,-0.1107,9.7497,0.5653,-0.4216,-0.6133
6355,804,791,34.565,33.504,0.0021,0.0009,9.7948,-0.4761,0.784,-0.0732
6360,794,791,34.545,33.639,0.0656,0.0373,9.8576,0.2988,0.7789,-0.6755
6365,789,787,34.56,33.485,0.0318,-0.0147,9.7912,0.3195,-0.3801,0.8425
6370,795,786,34.515,33.531,0.0493,-0.041,9.7938,-0.2056,0.4255,-0.4275
6375,778,783,34.478,33.598,0.0326,0.0406,9.8309,0.3691,0.328,0.9188
6380,772,778,34.523,33.55,0.0313,0.0419,9.7832,-0.0679,0.6153,-0.4677
6385,769,773,34.527,33.622,0.1346,-0.0078,9.8852,-0.0511,-0.0139,0.9838
6390,758,765,34.584,33.652,0.0026,-0.0904,9.7769,-0.5719,0.6863,0.4241
6395,768,760,34.477,33.652,0.0089,0.0337,9.8387,0.1633,0.6707,0.6881
6400,758,755,34.578,33.627,-0.1151,-0.0175,9.8305,-0.3718,0.4845,-0.7699
6405,752,749,34.476,33.604,-0.0022,0.0171,9.8022,-0.0415,-0.6236,0.8199
6410,759,754,34.495,33.557,0.0772,0.0777,9.7083,-0.5551,-0.1142,-0.5196
6415,751,744,34.547,33.496,-0.0489,0.0857,9.7565,0.2371,1.005,-0.3382
6420,751,736,34.536,33.588,0.0699,0.0681,9.9204,-0.795,-0.3455,-0.3857
6425,752,731,34.517,33.563,0.0315,-0.0283,9.7496,0.5976,0.655,0.0396
6430,750,731,34.547,33.589,0.0013,0.0747,9.7833,-0.618,-0.6033,-0.1069
6435,743,729,34.488,33.585,-0.0406,-0.0172,9.8872,0.1315,0.1024,0.6015
6440,733,717,34.546,33.617,-0.0733,-0.0724,9.7598,-0.0109,-0.3482,-0.1431
6445,744,718,34.539,33.559,0.0618,0.0036,9.7937,0.3821,0.6392,0.3125
6450,752,712,34.538,33.587,-0.0183,0.0042,9.89,-0.519,-0.0346,0.1734
6455,748,710,34.378,33.568,0.0045,-0.0325,9.8499,-0.0323,0.1713,-0.1829
6460,744,705,34.59,33.754,0.0941,-0.0556,9.7132,-0.1202,0.1388,-0.9026
6465,761,703,34.498,33.58,0.0531,0.0092,9.9374,0.4036,-0.4379,0.0352
6470,771,695,34.576,33.611,0.0285,0.0856,9.8727,0.2551,0.0321,-0.3045
6475,758,692,34.469,33.597,-0.0175,-0.0228,9.7621,-0.7567,0.7746,-0.2111
6480,773,688,34.529,33.585,0.0953,0.0333,9.7821,0.1664,0.2984,-0.2988
6485,780,682,34.627,33.572,0.0712,0.0441,9.7895,-0.3148,-0.6191,-0.0717
6490,781,683,34.438,33.626,-0.0257,-0.1323,9.8983,1.2534,-0.1387,-0.9065
6495,788,676,34.494,33.567,-0.0173,-0.0147,9.7444,0.2926,-0.2709,0.357
6500,788,673,34.499,33.69,0.0262,0.0661,9.8244,0.257,-0.2911,0.302
6505,798,675,34.426,33.587,0.0379,0.1066,9.8614,1.0357,0.4617,0.3033
6510,798,668,34.595,33.499,-0.0635,0.101,9.7635,0.2836,-0.3044,-0.5055
6515,809,666,34.497,33.569,0.0087,0.044,9.7912,0.3109,-0.304,0.3662
6520,812,663,34.472,33.545,0.0148,-0.0163,9.7334,0.9867,0.0516,0.7263
6525,818,659,34.551,33.599,0.0945,-0.076,9.9181,0.6053,0.6768,-0.2781
6530,829,660,34.512,33.602,-0.0513,0.0534,9.7813,-0.1617,-1.121,-0.6742
6535,847,661,34.483,33.656,0.0317,0.1042,9.9017,0.2482,-0.817,0.3957
6540,848,658,34.437,33.53,0.0121,-0.0127,9.911,0.2399,0.0909,0.4148
6545,856,651,34.47,33.692,-0.0476,0.0115,9.8428,-1.0044,-0.0566,-0.7887
6550,870,656,34.406,33.625,-0.036,-0.0713,9.8793,-0.4393,-0.0904,0.1779
6555,872,658,34.561,33.67,-0.0367,-0.0419,9.7808,-0.2173,-0.6338,0.3297
6560,882,652,34.484,33.542,0.0419,0.0609,9.7318,0.0956,1.4603,-0.5177
6565,903,648,34.413,33.598,-0.05,0.0264,9.8446,0.1284,0.1408,0.0893
6570,909,654,34.456,33.621,0.0035,-0.0219,9.8182,-0.1042,0.5659,-0.7991
6575,910,656,34.598,33.587,0.0125,-0.0035,9.8151,0.7564,0.554,0.3043
6580,923,649,34.535,33.472,0.097,0.0651,9.9558,-0.5673,-0.204,-0.1077
6585,932,655,34.498,33.584,0.073,-0.0892,9.7781,0.9225,-0.0609,-0.0742
6590,936,654,34.364,33.54,0.0205,-0.0707,9.7764,0.1659,-0.0266,-0.0988
6595,953,658,34.408,33.661,-0.029,-0.0657,9.8167,0.9122,-0.1328,0.1259
6600,956,662,34.509,33.612,-0.0308,0.0534,9.8534,0.2852,-0.6084,-0.0477
6605,972,658,34.504,33.623,-0.0793,0.0073,9.8699,0.4679,0.1852,0.2214
6610,980,659,34.559,33.499,-0.04,0.0328,9.8233,0.2712,0.8863,0.6079
6615,991,659,34.49,33.566,-0.0575,0.0404,9.9177,-0.6193,0.2612,0.5295
6620,1004,670,34.54,33.532,0.1102,-0.0139,9.7474,-0.1646,-0.0468,-0.4399
6625,1011,668,34.498,33.678,0.0843,0.0178,9.881,-0.7798,0.2042,-0.2709
6630,1022,673,34.537,33.597,-0.0424,0.0056,9.8681,0.3216,0.1775,-0.5824
6635,1035,677,34.524,33.651,0.0014,-0.0326,9.8035,-0.9171,-0.6143,-0.6914
6640,1041,677,34.556,33.684,0.113,0.0421,9.8195,-0.7631,0.9179,0.4225
6645,1059,680,34.562,33.572,0.0073,0.0314,9.9079,0.1913,0.2811,-0.2503
6650,1064,688,34.457,33.549,-0.0307,0.0392,9.9049,-0.4465,-0.4849,-0.1412
6655,1070,692,34.447,33.593,-0.0029,0.0037,9.7718,-0.6963,0.132,0.6234
6660,1078,700,34.442,33.548,-0.0602,-0.0172,9.8461,0.6068,0.0579,-0.2139
6665,1086,703,34.522,33.588,-0.0102,0.0784,9.851,-0.4126,1.0449,-0.5619
6670,1098,704,34.494,33.608,-0.1098,0.0029,9.8507,0.6507,-0.1129,-0.058
6675,1111,708,34.535,33.614,-0.0115,-0.0665,9.8546,-1.1495,0.7223,0.9231
6680,1101,715,34.54,33.567,0.0384,-0.1023,9.8875,0.6512,-0.1296,0.2186
6685,1113,720,34.544,33.609,0.0228,0.0605,9.9002,-0.3519,0.5627,-0.1186
6690,1127,723,34.502,33.577,0.0594,0.0038,9.791,0.0389,-0.2017,-0.7846
6695,1116,735,34.456,33.6,0.084,-0.0839,9.7609,1.0921,-0.4568,0.6479
6700,1136,740,34.527,33.607,-0.0282,-0.029,9.8331,0.5581,0.7594,0.2991
6705,1139,750,34.674,33.629,0.0719,-0.024,9.8219,0.2286,0.1644,0.0278
6710,1149,749,34.542,33.554,-0.0095,-0.0062,9.8304,-0.1568,-0.8632,-0.0098
6715,1158,759,34.488,33.58,0.0029,0.0091,9.8005,0.9997,0.7996,0.0965
6720,1157,759,34.559,33.66,0.0068,0.0107,9.8888,-0.1455,-0.3995,-0.5701
6725,1159,770,34.502,33.562,-0.0188,-0.0257,9.7656,0.4813,-0.5454,0.1041
6730,1175,773,34.507,33.608,0.0444,-0.0231,9.8439,-0.039,-0.6559,-0.699
6735,1171,781,34.489,33.532,0.017,0.0137,9.8288,0.5062,0.4964,-0.4498
6740,1168,784,34.457,33.597,0.0274,-0.0477,9.7995,0.0598,-0.6348,0.8487
6745,1173,786,34.496,33.61,-0.0159,0.1069,9.8628,-0.1113,-0.1278,-0.4976
6750,1186,796,34.606,33.625,0.0097,-0.0596,9.7613,-0.3972,0.7293,0.6633
6755,1184,805,34.566,33.613,0.014,-0.0407,9.728,0.159,0.4821,-0.3913
6760,1183,812,34.498,33.627,-0.0814,0.0415,9.7988,0.0544,-0.2996,0.1904
6765,1181,811,34.565,33.613,0.0029,0.0681,9.7879,-0.0147,0.3531,0.4405
6770,1180,815,34.541,33.672,0.0652,-0.0174,9.8389,0.1035,0.3224,-0.7362
6775,1189,824,34.446,33.571,0.077,0.0083,9.8071,0.2561,-0.0281,-1.0419
6780,1178,828,34.542,33.549,0.0465,0.0288,9.8449,-0.1573,-0.0614,-0.0399
6785,1193,839,34.503,33.589,0.012,-0.0837,9.8035,-0.7604,-0.6117,1.3573
6790,1188,843,34.401,33.619,0.0285,-0.0104,9.7751,0.5232,-0.907,-0.5847
6795,1188,844,34.521,33.528,0.0242,0.0144,9.8684,0.0634,0.0708,-0.3013
6800,1188,851,34.625,33.602,-0.0312,0.0065,9.7631,-0.8718,0.7638,0.5112
6805,1184,862,34.635,33.538,-0.0573,-0.037,9.891,-0.3514,-0.6057,0.0428
6810,1176,857,34.474,33.558,0.1165,0.0045,9.8317,0.1033,0.5109,1.5519
6815,1186,864,34.468,33.525,-0.0307,0.1033,9.7844,0.7045,0.3157,-0.1855
6820,1178,868,34.466,33.571,0.0492,-0.0077,9.8051,-0.1393,-0.5479,0.2815
6825,1181,874,34.619,33.57,0.0204,0.0712,9.8589,0.3679,-0.6477,-0.8102
6830,1177,877,34.471,33.524,-0.0243,-0.0678,9.6861,0.1413,0.1776,0.4418
6835,1175,884,34.481,33.569,0.0425,-0.0047,9.7578,-0.0041,0.3621,-0.4205
6840,1167,887,34.537,33.596,0.0364,-0.0196,9.7108,0.8786,0.7313,0.3071
6845,1162,885,34.518,33.644,0.1026,0.0044,9.7946,-0.0934,-0.2975,0.4325
6850,1176,888,34.543,33.568,-0.0487,0.0104,9.7973,-0.6864,0.7488,-0.9098
6855,1179,890,34.547,33.668,0.0014,0.0315,9.7356,-0.5673,-0.0384,-0.555
6860,1163,894,34.565,33.58,-0.0264,0.0146,9.8845,-0.1891,-0.8526,0.2205
6865,1169,908,34.528,33.668,0.025,0.0185,9.7425,-0.4179,0.9707,0.5783
6870,1156,895,34.508,33.633,-0.0281,-0.0343,9.7723,0.4285,0.1462,-0.1041
6875,1153,904,34.519,33.592,0.0385,0.0608,9.8313,0.8229,-0.3741,-0.0293
6880,1150,908,34.556,33.609,0.0363,0.0253,9.8298,0.118,-0.3931,-0.3771
6885,1158,908,34.562,33.537,0.0907,0.0639,9.7856,-0.3246,0.4797,0.3741
6890,1147,906,34.528,33.549,0.1044,0.0099,9.8081,0.1008,-0.216,0.3644
6895,1147,906,34.454,33.659,-0.0359,-0.0656,9.8429,0.6132,-0.0591,-0.2364
6900,1153,912,34.565,33.597,-0.0424,-0.0428,9.824,0.2782,-0.0964,0.4039
6905,1145,907,34.56,33.61,-0.0667,-0.0165,9.838,-0.0171,-0.1882,0.0054
6910,1145,910,34.526,33.612,-0.0255,0.0388,9.8649,-0.4787,-0.0577,1.0124
6915,1128,908,34.596,33.563,-0.0177,0.0497,9.7511,-0.5574,-0.3609,0.0371
6920,1132,916,34.555,33.673,0.0509,-0.0181,9.7591,-0.8527,-0.7718,-0.2102
6925,1133,913,34.546,33.571,-0.0657,-0.0469,9.7478,-0.2646,-1.0788,0.1015
6930,1120,911,34.449,33.494,-0.0389,-0.0169,9.83,-0.3731,-0.7438,0.5669
6935,1126,912,34.484,33.64,-0.0318,-0.0184,9.8603,0.0589,0.4628,-0.0571
6940,1127,913,34.456,33.587,-0.0056,-0.0222,9.7405,-0.099,-0.7707,-0.1031
6945,1119,910,34.504,33.574,0.0585,-0.069,9.8914,0.2542,0.5653,-0.2591
6950,1126,909,34.566,33.581,0.0349,-0.0528,9.7317,-0.4425,-0.3417,0.1991
6955,1112,909,34.556,33.565,-0.0594,-0.0643,9.8855,0.4502,0.3547,0.5594
6960,1111,906,34.482,33.528,-0.0383,-0.0609,9.8572,-0.4328,0.6091,-0.6607
6965,1116,909,34.534,33.602,0.0029,0.0395,9.8423,0.2098,-0.4256,-0.0548
6970,1097,905,34.599,33.478,0.0534,0.0329,9.7828,0.4023,0.5498,-0.2664
6975,1104,903,34.481,33.621,0.0311,-0.0223,9.7448,0.3677,0.2956,0.7037
6980,1104,896,34.508,33.564,0.0255,-0.0116,9.853,0.4373,-0.2962,0.7808
6985,1095,905,34.443,33.537,-0.0132,-0.0682,9.8006,0.0289,-0.4051,-0.421
6990,1102,894,34.472,33.517,0.0695,0.0468,9.8331,0.9568,0.1913,-0.3394
6995,1099,898,34.491,33.62,-0.0724,-0.0328,9.7829,0.2267,-0.2721,-1.2312
7000,1102,894,34.578,33.529,0.0629,-0.0726,9.8612,0.0199,0.6275,-0.4215
7005,1096,898,34.501,33.591,0.04,-0.1061,9.8877,-0.4186,-0.2515,0.704
7010,1087,893,34.487,33.597,-0.0931,0.0031,9.676,-0.6161,0.7262,-0.6801
7015,1095,889,34.549,33.632,0.025,-0.081,9.8211,0.0002,-0.9225,-0.3604
7020,1084,886,34.547,33.601,0.0354,-0.0015,9.7663,0.7728,-0.3941,0.0716
7025,1094,889,34.505,33.551,-0.0331,-0.0632,9.7485,0.0055,0.8518,-0.4901
7030,1086,881,34.472,33.608,0.0287,0.0427,9.7866,-0.0211,-0.5379,0.7791
7035,1092,886,34.585,33.634,0.0656,-0.0053,9.8082,0.2442,0.0125,-0.0015
7040,1093,882,34.528,33.596,-0.0737,-0.0336,9.7791,-0.3286,0.3622,-0.7061
7045,1083,880,34.454,33.582,0.0925,-0.0298,9.7691,-0.2635,0.3453,0.2028
7050,1081,881,34.531,33.539,0.0311,-0.0791,9.7943,0.2462,-1.4281,-0.5052
7055,1062,877,34.425,33.651,-0.0157,-0.035,9.917,0.1104,0.1991,-0.1604
7060,1072,871,34.507,33.54,0.0269,-0.0392,9.8424,-1.2838,0.7749,0.3096
7065,1066,875,34.554,33.646,-0.093,-0.0021,9.8655,-0.5051,0.3722,-0.1289
7070,1069,873,34.554,33.513,-0.0036,0.0332,9.7673,-0.2528,0.3359,0.2378
7075,1067,867,34.502,33.5,-0.0312,0.0661,9.7937,-0.2939,0.3338,0.518
7080,1062,864,34.491,33.672,-0.0151,-0.0051,9.8331,-0.527,0.5573,0.722
7085,1068,868,34.493,33.602,-0.0456,0.0132,9.8274,0.2322,-0.2956,-0.2463
7090,1061,868,34.506,33.465,0.0925,0.0279,9.7942,0.8739,-0.3054,1.2438
7095,1063,864,34.549,33.552,0.035,-0.0696,9.892,-1.0377,-0.7566,0.5958
7100,1060,862,34.544,33.58,0.0144,-0.0714,9.7978,0.6142,0.4539,-0.578
7105,1047,861,34.493,33.554,-0.0164,-0.0486,9.812,0.7046,0.3863,-0.8379
7110,1042,867,34.508,33.585,0.0598,-0.0108,9.82,-0.2785,-0.0451,0.4602
7115,1052,865,34.573,33.631,0.0522,0.0352,9.7442,0.6802,-0.7386,0.6576
7120,1037,860,34.484,33.556,-0.0096,-0.0496,9.8649,-0.3461,0.2299,-0.0315
7125,1043,860,34.474,33.656,0.0106,0.0002,9.7623,0.3067,-0.2096,-0.5931
7130,1033,852,34.575,33.607,-0.0561,-0.0515,9.8178,0.086,0.4317,0.2901
7135,1024,862,34.549,33.627,-0.0132,-0.0209,9.7179,0.0068,-0.2331,-0.0763
7140,1024,856,34.495,33.551,-0.0665,0.0169,9.8213,0.5806,0.8044,-0.5132
7145,1014,865,34.458,33.543,-0.0646,0.0298,9.8235,0.2639,-0.2342,-0.8486
7150,1019,854,34.593,33.571,0.0644,-0.0254,9.8297,0.315,-0.173,0.6789
7155,1002,852,34.491,33.584,-0.0283,0.0418,9.7594,-0.2754,0.0025,0.1537
7160,1001,859,34.57,33.689,-0.0669,-0.0484,9.8459,0.4532,0.6327,-0.5812
7165,995,854,34.507,33.582,0.0032,-0.0736,9.9096,0.6731,-0.1631,0.1742
7170,985,849,34.583,33.581,-0.0048,0.0181,9.8583,-0.2843,0.5096,-0.0849
7175,985,846,34.494,33.596,0.0524,-0.0467,9.8067,0.227,-0.0732,0.443
7180,981,849,34.569,33.648,0.0502,-0.0281,9.8919,-0.3339,-0.3191,0.275
7185,972,839,34.461,33.676,-0.0548,0.0088,9.8331,-0.1875,0.1426,-0.5197
7190,954,844,34.486,33.597,-0.0952,0.0163,9.7796,0.1009,-0.0313,0.0637
7195,961,835,34.54,33.548,0.0119,0.0226,9.7632,-0.5451,0.2527,-0.4999
7200,949,837,34.562,33.534,-0.0121,0.0114,9.8585,-1.1919,0.6503,0.3931
7205,945,840,34.498,33.604,-0.0891,-0.0394,9.842,-0.4389,-0.2069,-0.2291
7210,936,836,34.586,33.602,0.0366,0.0364,9.7751,0.0163,-1.0806,-0.5585
7215,923,841,34.53,33.61,0.0245,-0.0269,9.814,0.0424,0.1392,0.3333
7220,920,836,34.562,33.635,0.0425,-0.0037,9.7991,0.7584,1.2061,0.1924
7225,908,831,34.5,33.549,-0.0401,-0.0373,9.6972,-0.4602,0.4537,0.0109
7230,897,833,34.417,33.629,-0.0453,0.0281,9.7773,0.5589,0.4926,0.1875
7235,906,828,34.491,33.581,-0.0847,-0.0392,9.8015,0.1993,0.1871,-0.236
7240,892,822,34.563,33.639,0.0783,0.02,9.8823,-0.0543,0.3947,-0.5058
7245,884,827,34.498,33.543,-0.0148,-0.086,9.7571,-0.5044,0.1938,-0.6256
7250,871,823,34.553,33.681,0.038,-0.074,9.7664,0.2608,0.4035,0.0142
7255,864,827,34.463,33.489,0.0077,0.0821,9.8468,-1.1317,0.8578,-0.7847
7260,858,819,34.512,33.546,-0.0495,0.0407,9.8649,-0.8728,0.3994,-0.0614
7265,861,818,34.54,33.644,0.0119,-0.0353,9.8172,0.044,-0.5957,-0.1238
7270,839,816,34.532,33.637,-0.0129,0.0157,9.8517,-0.5647,-0.6778,0.1832
7275,832,813,34.576,33.621,-0.0236,-0.0007,9.7974,0.2323,0.4323,-0.2985
7280,828,808,34.539,33.6,0.0126,-0.0953,9.8147,0.7246,0.2588,0.7094
7285,826,808,34.571,33.63,-0.0522,-0.0236,9.7921,-0.6392,-0.097,-1.1882
7290,818,799,34.583,33.648,-0.0114,0.0235,9.8181,0.1609,-0.1817,-0.0339
7295,817,804,34.406,33.593,0.0386,-0.0362,9.7579,0.8921,-0.1909,-0.2821
7300,803,794,34.503,33.62,-0.11,0.0116,9.8329,0.9986,-0.3592,0.7489
7305,792,791,34.538,33.478,-0.0895,-0.1222,9.7606,0.0502,0.2521,-0.2283
7310,791,791,34.481,33.65,0.0779,0.0402,9.7741,-0.4644,0.7482,-0.299
7315,779,783,34.486,33.681,-0.0176,0.027,9.7847,0.3507,0.412,-0.1303
7320,780,781,34.507,33.576,0.0382,-0.0627,9.8007,0.3877,-0.4107,0.0477
7325,773,775,34.48,33.623,0.1151,-0.0534,9.779,-0.3509,0.0903,-0.2838
7330,764,775,34.494,33.693,-0.0287,-0.0679,9.8602,0.2857,0.3895,0.7568
7335,771,767,34.462,33.642,-0.0,-0.0062,9.8555,0.1344,-0.6045,0.804
7340,766,765,34.582,33.603,0.0079,0.0144,9.8709,-0.5501,-0.0498,-0.2073
7345,760,766,34.558,33.535,-0.0489,0.0712,9.793,0.7224,-0.6859,-0.7451
7350,757,758,34.508,33.538,0.0539,-0.0693,9.774,0.2337,0.0014,-0.5906
7355,746,755,34.576,33.524,-0.0275,-0.0239,9.8254,-0.0628,-0.0973,0.8902
7360,759,746,34.535,33.621,-0.0626,0.0626,9.7936,-0.0141,-0.0691,-0.8653
7365,749,743,34.49,33.586,0.0702,-0.0098,9.8288,0.2358,0.4742,0.5957
7370,748,738,34.544,33.551,0.0515,-0.0086,9.8057,0.0204,0.6266,-0.5786
7375,741,735,34.529,33.649,-0.0121,-0.0092,9.8355,0.2753,0.1687,0.6735
7380,747,731,34.53,33.614,-0.0586,-0.0689,9.7809,0.1888,-0.5766,-0.0171
7385,753,721,34.531,33.705,-0.0064,0.0449,9.8648,0.0727,0.6115,-0.0927
7390,756,722,34.522,33.627,-0.0287,-0.0631,9.8865,-0.0022,0.0679,0.6727
7395,756,717,34.494,33.577,-0.0714,-0.0046,9.6925,-0.5122,-0.426,-0.7395
7400,753,713,34.581,33.575,0.0134,0.0778,9.8025,-0.1221,0.6707,0.1926
7405,747,709,34.453,33.527,0.0633,-0.0251,9.7768,1.1011,-0.2111,0.0817
7410,745,702,34.486,33.597,0.0104,-0.03,9.8482,0.0742,-0.062,0.1994
7415,750,697,34.566,33.655,-0.0272,-0.0434,9.8213,0.5522,0.3564,-0.9038
7420,752,697,34.593,33.685,0.0123,0.0464,9.7646,-0.3841,-0.0882,-0.1956
7425,775,693,34.579,33.585,-0.0242,-0.0661,9.7282,-0.0606,0.1202,-0.1688
7430,761,689,34.513,33.657,-0.0088,0.0686,9.7507,-0.7554,0.3195,-0.3148
7435,770,684,34.508,33.575,0.0539,0.05,9.8086,-0.2759,0.4696,-0.353
7440,765,677,34.53,33.573,-0.0022,-0.1736,9.7756,1.0753,-0.7655,0.9113
7445,776,681,34.544,33.55,0.0945,0.0581,9.8482,-0.0816,-0.6579,-0.3102
7450,784,674,34.521,33.648,-0.0729,-0.0422,9.772,-0.2315,-0.0876,0.0082
7455,795,669,34.475,33.641,0.0717,0.0422,9.796,-0.3195,0.568,0.8796
7460,799,667,34.544,33.555,-0.0119,-0.07,9.836,1.1514,-0.0837,0.0131
7465,811,667,34.57,33.556,0.0522,-0.0518,9.7829,-0.1079,0.0867,0.039
7470,821,663,34.52,33.609,0.0083,0.0009,9.8633,0.5081,-0.3565,0.1069
7475,831,660,34.538,33.577,0.0819,-0.0647,9.7985,0.108,-0.1405,1.237
7480,834,667,34.471,33.592,0.0258,0.0046,9.8799,-0.47,0.6343,0.0717
7485,849,662,34.496,33.574,0.0945,-0.0093,9.811,0.8998,-0.069,-0.3677
7490,845,652,34.441,33.572,0.0059,-0.0143,9.8086,0.4023,-0.2311,1.0262
7495,855,657,34.518,33.602,-0.0243,0.0445,9.8106,-0.0529,0.0348,-0.1399
7500,869,654,34.407,33.666,-0.0628,0.0166,9.7831,0.3347,-0.1334,0.4222
7505,871,656,34.386,33.639,0.0029,-0.0034,9.7364,0.5839,0.5942,-0.4579
7510,880,652,34.495,33.672,0.0034,0.0642,9.8359,0.6055,-0.1067,0.2745
7515,897,651,34.52,33.67,-0.0113,-0.0662,9.7781,0.5832,-0.4048,0.3476
7520,906,655,34.619,33.611,-0.0672,0.0165,9.7543,-0.1896,0.0458,-0.1045
7525,918,651,34.61,33.557,-0.0854,0.0421,9.7343,0.6438,-0.4194,-0.5319
7530,920,654,34.528,33.586,-0.0061,0.0742,9.7755,-0.4955,0.0778,-0.02
7535,939,646,34.482,33.596,0.0097,0.0246,9.8783,-0.3816,-0.2052,-0.4502
7540,952,651,34.531,33.502,0.0557,0.0458,9.8748,-0.2122,-0.29,0.3674
7545,957,662,34.529,33.559,-0.1039,0.0721,9.8602,0.851,0.4567,0.1991
7550,960,656,34.523,33.577,-0.025,-0.0572,9.743,0.2975,-0.3569,0.2383
7555,978,664,34.527,33.514,-0.0953,0.0161,9.7842,0.6414,0.622,0.5391
7560,979,664,34.53,33.67,0.047,0.0033,9.8544,0.2588,-0.5552,-0.3036
7565,999,666,34.508,33.64,0.0297,-0.0046,9.6991,-0.087,-0.0356,-0.2536
7570,1008,672,34.526,33.584,-0.0748,0.0796,9.9059,-0.5415,-0.0767,0.2051
7575,1015,668,34.602,33.527,-0.0181,0.006,9.7964,-0.1825,-0.7164,0.5702
7580,1025,675,34.506,33.655,0.0591,-0.0405,9.7466,-0.2939,0.2156,-0.9175
7585,1035,678,34.523,33.607,0.072,0.0076,9.8775,0.0944,0.6018,0.5257
7590,1046,674,34.501,33.614,-0.0107,0.0159,9.9063,0.0059,0.2456,-0.2382
7595,1065,685,34.493,33.615,0.0797,-0.06,9.8746,0.0986,0.3312,-0.3042
7600,1066,685,34.607,33.617,-0.0175,-0.0363,9.8438,-1.2629,0.1458,-0.029
7605,1080,691,34.497,33.521,-0.0367,-0.0598,9.8131,0.1915,-0.2851,-0.0118
7610,1080,698,34.483,33.6,0.0042,-0.0328,9.796,0.0524,-0.727,-1.3937
7615,1082,701,34.481,33.587,0.0263,0.0059,9.7305,-0.3286,-0.7807,-0.4718
7620,1101,708,34.468,33.59,-0.0676,0.1216,9.8351,-0.607,-0.7721,0.1362
7625,1108,709,34.461,33.688,-0.0102,-0.0626,9.7609,0.7741,-0.0266,-0.77
7630,1104,718,34.452,33.602,-0.1069,-0.0503,9.8366,-0.6968,0.2244,0.3365
7635,1127,721,34.406,33.622,-0.0529,-0.005,9.7664,0.4689,-0.2669,-0.4029
7640,1124,728,34.597,33.519,-0.0294,0.0113,9.9166,-0.1249,-0.6973,0.1791
7645,1130,730,34.57,33.602,0.0968,0.0086,9.7775,0.2444,0.0748,-0.5826
7650,1142,738,34.551,33.586,-0.0593,-0.0781,9.7409,0.0164,-0.5226,-0.0718
7655,1142,743,34.542,33.552,-0.0412,0.0466,9.95,-0.5315,-0.791,0.5267
7660,1151,748,34.509,33.593,-0.0663,0.0934,9.8429,0.363,-0.2099,1.0181
7665,1156,757,34.574,33.653,0.0397,-0.0083,9.7353,-0.6006,-0.6899,0.0737
7670,1150,767,34.547,33.596,-0.0924,-0.04,9.7903,0.4951,0.0376,-0.3906
7675,1169,772,34.521,33.562,-0.0687,0.0481,9.8214,-0.4019,0.7421,0.1488
7680,1164,778,34.509,33.51,-0.0133,0.0255,9.8827,0.0386,-0.2788,-0.0405
7685,1174,774,34.531,33.656,-0.1569,-0.0185,9.7816,0.6776,-0.6381,-0.246
7690,1175,791,34.518,33.534,-0.0366,0.0298,9.754,1.0545,-0.6988,0.4841
7695,1183,795,34.531,33.551,0.064,-0.0573,9.7896,-0.8913,-0.2732,-0.0819
7700,1178,799,34.563,33.567,-0.0275,0.1297,9.729,-0.1235,-0.5539,0.3613
7705,1176,808,34.555,33.559,0.0688,0.0017,9.8433,0.0319,0.5496,-0.4734
7710,1189,811,34.59,33.616,0.051,-0.1236,9.8759,-0.4636,0.0772,-0.1223
7715,1189,816,34.499,33.563,-0.0052,-0.0157,9.6967,0.5899,-0.3032,-0.3562
7720,1190,824,34.39,33.567,0.0155,0.0431,9.8944,-0.3079,-0.2485,-0.2289
7725,1182,826,34.579,33.633,-0.031,0.0069,9.7522,0.0894,-0.9351,0.1666
7730,1195,834,34.513,33.666,0.0456,-0.0182,9.761,-0.3365,-0.0464,-0.3769
7735,1192,840,34.496,33.53,-0.0366,-0.0603,9.7888,0.6461,0.3924,0.3155
7740,1187,844,34.626,33.665,-0.0066,0.0219,9.7666,0.7845,0.1639,-0.3417
7745,1194,845,34.48,33.623,-0.0255,-0.0706,9.7634,0.3408,1.19,0.6938
7750,1179,850,34.526,33.598,0.0601,-0.0481,9.7481,-1.2072,0.435,-0.5698
7755,1188,860,34.491,33.584,0.0139,-0.0545,9.8102,-0.8052,0.9793,0.7017
7760,1187,860,34.533,33.668,0.0677,-0.0262,9.7716,-0.1116,0.6002,0.0043
7765,1193,868,34.524,33.559,-0.0318,0.0521,9.8953,1.1967,0.2129,-0.1872
7770,1184,866,34.559,33.593,-0.0062,-0.0152,9.7856,0.2059,-0.2197,0.6891
7775,1185,872,34.519,33.624,-0.0093,0.0161,9.8768,0.6931,0.4013,-1.1617
7780,1181,876,34.464,33.603,-0.0645,0.0428,9.8124,0.1873,-0.2664,0.5118
7785,1184,879,34.474,33.63,-0.0846,-0.0459,9.7983,-0.5858,0.5654,-0.7043
7790,1182,880,34.57,33.602,-0.0415,0.0089,9.8835,0.2035,0.1968,0.1064
7795,1173,889,34.543,33.515,0.0471,0.0279,9.6768,0.1079,0.1751,-0.1601
7800,1170,889,34.578,33.578,-0.069,-0.0509,9.8064,1.1533,-0.7211,0.1474
7805,1165,894,34.53,33.621,0.0128,-0.0516,9.813,0.093,0.9658,-0.3157
7810,1173,898,34.559,33.57,0.0388,-0.0698,9.7207,-0.3036,-0.3129,-0.2613
7815,1159,902,34.522,33.611,-0.0417,-0.0119,9.8345,0.4543,0.0042,0.1436
7820,1174,901,34.586,33.558,-0.0502,0.0832,9.7543,0.217,-0.4643,0.1217
7825,1146,901,34.559,33.59,-0.073,-0.0847,9.8272,0.181,-0.08,-0.1543
7830,1149,902,34.534,33.52,-0.0003,0.0336,9.8636,-0.5622,0.4587,0.3273
7835,1147,906,34.581,33.596,-0.0424,0.0173,9.7457,0.3167,-0.5762,-0.4047
7840,1142,902,34.526,33.512,0.0564,0.0081,9.7937,0.7627,1.1664,-1.1919
7845,1145,911,34.54,33.615,0.0483,0.0222,9.878,0.7636,-0.442,0.1799
7850,1143,904,34.485,33.63,0.0984,-0.0906,9.7637,-0.2849,-0.072,-0.1465
7855,1139,905,34.535,33.599,-0.0008,0.108,9.7652,-0.1446,0.0276,-0.8691
7860,1133,914,34.459,33.595,0.0624,-0.019,9.8754,0.934,-0.7556,-0.3489
7865,1131,909,34.51,33.581,0.073,0.0607,9.7859,0.0157,0.0655,0.0394
7870,1131,913,34.509,33.632,0.0129,0.074,9.8276,0.4173,-0.2925,-0.2489
7875,1139,911,34.527,33.574,0.0802,0.0187,9.7726,0.504,0.0015,-0.2834
7880,1129,914,34.529,33.607,-0.0493,-0.027,9.8249,0.7252,0.4767,0.186
7885,1120,909,34.515,33.483,0.1019,-0.0268,9.8775,-0.5427,0.4587,0.7723
7890,1115,910,34.459,33.606,0.107,-0.0267,9.8531,-0.0674,0.6821,0.1341
7895,1130,908,34.588,33.565,-0.0448,-0.0076,9.8406,-0.5854,0.3038,0.2061
7900,1120,914,34.468,33.577,0.0267,0.1132,9.8661,-0.6732,0.6332,0.1293
7905,1120,911,34.549,33.603,-0.0238,-0.0531,9.8743,-0.1028,0.1295,0.2872
7910,1117,908,34.535,33.635,-0.0013,0.0635,9.7459,0.4753,0.351,0.5355
7915,1107,905,34.566,33.575,-0.0132,0.0443,9.8127,-0.4106,0.1808,0.8525
7920,1113,899,34.598,33.676,-0.0117,0.0274,9.8847,0.1255,-0.0271,0.1077
7925,1106,901,34.539,33.557,-0.0506,0.0394,9.7863,0.23,0.2849,0.1778
7930,1108,899,34.56,33.545,0.0292,-0.0053,9.8094,-0.1463,0.5183,0.3539
7935,1098,896,34.549,33.65,0.0131,-0.0564,9.8447,-0.3393,-1.0194,0.0736
7940,1097,903,34.422,33.586,-0.0568,-0.0545,9.8191,0.5541,-0.1724,-0.2581
7945,1103,897,34.599,33.585,-0.0446,0.0611,9.8186,0.1299,-0.2687,0.3072
7950,1096,894,34.521,33.592,0.0161,0.0353,9.7648,-0.6167,-0.1754,-0.8769
7955,1094,890,34.509,33.603,-0.0116,0.0343,9.8047,0.6551,0.0792,-0.8441
7960,1097,896,34.59,33.663,0.0275,0.0489,9.8985,0.0662,0.5773,-0.1784
7965,1089,890,34.586,33.519,-0.0046,0.0229,9.8649,0.3293,0.4766,0.5071
7970,1086,884,34.493,33.5,0.0511,0.0522,9.8796,0.3997,-0.262,-0.1841
7975,1080,891,34.491,33.582,-0.0252,0.0018,9.8388,-0.1364,0.1843,-0.1547
7980,1082,884,34.57,33.697,-0.0027,-0.0186,9.7921,0.801,-0.5542,-0.3011
7985,1085,881,34.509,33.682,-0.0007,-0.007,9.837,-0.0544,0.1584,0.6059
7990,1079,879,34.512,33.519,0.0287,-0.0257,9.7204,-0.0912,0.1633,-0.0569
7995,1072,881,34.559,33.566,0.0311,-0.0291,9.8433,-0.2723,-0.0726,0.1666
8000,1084,880,34.576,33.606,-0.0544,-0.0084,9.8242,-0.4223,0.154,0.1816
8005,1075,875,34.508,33.646,0.0087,0.0469,9.841,-0.346,0.2753,0.5179
8010,1071,874,34.518,33.583,0.0816,-0.0332,9.7813,-0.4698,-0.427,-0.0667
8015,1081,871,34.513,33.504,0.0198,-0.0223,9.7941,-0.0011,1.0581,0.612
8020,1064,879,34.47,33.6,0.0496,-0.0598,9.7911,0.3581,-0.2632,0.0193
8025,1071,873,34.489,33.604,-0.0219,0.0103,9.8371,-0.0862,0.5448,-0.0047
8029,1059,871,34.457,33.554,-0.0769,-0.0008,9.7514,0.1458,1.0986,-0.532
8035,1061,872,34.515,33.586,0.0181,-0.0115,9.804,0.3389,0.0735,0.4602
8039,1045,869,34.555,33.553,-0.0089,0.0267,9.8481,0.4629,-0.3314,-1.1441
8045,1053,868,34.556,33.498,0.0529,0.0598,9.8004,-0.8201,0.9631,-0.687
8050,1050,869,34.469,33.727,0.0041,-0.0871,9.8533,-0.4282,0.1574,-0.3201
8055,1052,860,34.492,33.631,-0.0693,0.0242,9.7336,-0.2715,-0.2887,-0.3574
8060,1051,865,34.513,33.584,0.1161,0.0482,9.8698,-0.5666,0.5066,0.5372
8064,1039,862,34.536,33.598,-0.0529,-0.032,9.7978,-0.6498,0.493,-0.1153
8070,1037,860,34.509,33.517,-0.0271,-0.0307,9.7737,0.2809,0.3585,-0.7733
8074,1036,857,34.575,33.589,-0.0052,-0.0237,9.7623,-0.1459,-0.3474,-1.2368
8080,1035,859,34.498,33.644,-0.0129,0.0665,9.781,0.3731,-0.0272,0.5542
8085,1034,857,34.475,33.585,0.0109,0.0015,9.7757,-0.6307,-0.0825,-0.2432
8090,1020,855,34.55,33.589,0.051,0.0097,9.8395,0.0184,-0.5036,0.0983
8095,1013,857,34.553,33.639,0.0994,0.0402,9.9017,-0.6051,-0.3056,-0.1774
8100,1001,854,34.577,33.573,0.0526,0.0279,9.8498,0.8634,0.8511,-0.9783
8105,1001,857,34.588,33.602,-0.0541,0.0315,9.8606,0.978,-0.3948,0.4346
8109,999,850,34.496,33.531,0.0149,-0.0399,9.8734,0.7043,0.0981,0.7149
8115,990,853,34.495,33.529,-0.0012,-0.0094,9.7977,1.3787,-0.0731,-0.2281
8119,995,849,34.599,33.455,0.0265,-0.0449,9.8032,0.5358,0.2027,0.9372
8125,985,844,34.545,33.563,-0.0394,0.0023,9.8004,-0.0465,-0.2655,0.313
8130,972,846,34.554,33.597,0.0236,-0.0201,9.8451,-0.2403,0.7164,-0.0257
8135,970,845,34.56,33.532,-0.1342,0.1021,9.7827,-0.1732,0.1598,0.15
8140,964,846,34.461,33.544,0.0366,0.0984,9.7396,-0.1093,0.1351,0.3165
8145,954,844,34.58,33.66,0.0479,0.0248,9.8348,0.1944,-0.0574,-0.0169
8150,952,842,34.536,33.601,0.0488,0.0119,9.7565,0.5068,-0.5701,0.3182
8154,932,841,34.46,33.581,-0.0518,0.0098,9.799,-0.3209,-0.4732,0.1528
8160,939,838,34.513,33.579,0.0403,0.0504,9.8073,0.5569,0.1602,0.72
8164,921,830,34.532,33.636,0.0729,0.0547,9.8185,-0.7673,-1.0035,-1.1116
8170,913,837,34.57,33.615,0.0434,0.0217,9.799,-0.1769,0.8699,-0.407
8175,918,830,34.465,33.584,0.0046,0.0281,9.8431,0.3134,0.7214,-0.3535
8180,897,829,34.553,33.507,-0.0207,-0.0057,9.7772,-0.315,-0.2752,-0.1483
8185,893,836,34.56,33.533,0.0052,-0.0911,9.8259,0.8958,-0.3591,-0.2451
8189,892,826,34.533,33.557,0.0021,-0.0141,9.8829,0.1091,0.0032,1.0256
8195,888,826,34.597,33.603,-0.047,0.0211,9.8913,0.2977,-0.2891,0.0475
8200,871,819,34.437,33.624,0.0913,-0.0343,9.8071,-0.0005,0.0477,-0.0468
8205,871,822,34.518,33.652,0.0501,0.0502,9.9225,-0.5109,-0.0338,0.1925
8210,855,814,34.542,33.588,0.0197,0.0517,9.9302,0.3824,-0.4486,-0.9787
8215,849,814,34.42,33.576,0.0788,0.041,9.7974,-0.9967,-0.492,0.0355
8220,835,813,34.494,33.615,-0.0474,0.022,9.8167,-0.0686,-0.0424,0.1396
8225,842,808,34.538,33.607,-0.0258,-0.0166,9.7752,-0.1213,0.1379,0.491
8230,831,807,34.521,33.596,0.0025,-0.0131,9.8451,-0.2834,0.5064,0.1943
8235,826,811,34.566,33.626,0.0357,-0.0976,9.8413,0.3285,0.4421,-0.1956
8240,816,797,34.432,33.677,-0.0648,0.0255,9.8402,-0.9138,-0.0746,0.3395
8245,815,799,34.473,33.58,-0.051,0.0137,9.814,0.0842,-0.1605,0.4996
8250,811,796,34.541,33.559,-0.0756,0.0691,9.7784,-0.4357,0.0508,-0.0424
8255,799,792,34.576,33.605,0.0192,0.0776,9.8139,-0.3385,1.1658,0.1417
8260,792,780,34.522,33.564,0.0622,-0.0357,9.8319,-0.4131,0.4105,0.0187
8265,786,786,34.466,33.67,-0.0631,0.1072,9.8278,1.0961,-0.7026,0.5037
8270,773,783,34.554,33.629,0.017,0.0052,9.8861,0.1194,0.1084,-0.5174
8275,779,770,34.485,33.65,0.0589,0.0489,9.7781,-0.0103,-0.4308,0.004
8280,756,774,34.522,33.637,-0.0087,-0.0362,9.8222,-0.182,-0.1865,0.0221
8285,779,770,34.589,33.577,0.07,-0.018,9.8815,-0.6213,0.1398,-0.15
8290,769,761,34.568,33.574,0.0118,-0.0803,9.8151,-0.3211,-0.1441,-0.0517
8295,757,755,34.609,33.545,0.0251,0.0333,9.7452,0.1112,0.1157,-0.7715
8300,757,757,34.513,33.555,0.001,0.0949,9.8266,-0.3935,-0.4474,0.8554
8305,761,753,34.446,33.607,0.0744,0.0226,9.7597,-0.2137,-0.5103,-0.2924
8310,761,746,34.567,33.608,0.0304,0.0758,9.842,-0.0646,0.3953,0.0433
8315,743,738,34.538,33.529,-0.0711,0.0604,9.8763,-1.1609,0.5233,-0.7728
8320,747,735,34.623,33.638,-0.0353,-0.0598,9.7491,-0.6862,-0.2526,0.4204
8325,754,735,34.574,33.599,0.0709,0.0406,9.7676,-0.4363,-0.6064,0.6918
8330,741,724,34.544,33.596,-0.0717,-0.0935,9.7821,-0.182,-0.0209,0.4314
8335,747,725,34.558,33.594,-0.0589,0.0264,9.7457,0.4392,-0.0652,1.4173
8340,748,718,34.543,33.606,0.0047,0.0074,9.8842,0.3495,-0.4618,0.5933
8345,751,719,34.491,33.593,0.0563,0.0067,9.7423,-0.2199,-0.1622,-0.0978
8350,747,705,34.469,33.596,0.0262,0.0615,9.7527,0.1419,0.5736,0.2773
8355,760,706,34.538,33.591,0.0546,-0.019,9.8015,0.1294,-0.3275,0.2299
8360,754,702,34.481,33.65,0.0492,0.1121,9.912,-0.0277,-0.1422,0.5646
8365,770,698,34.475,33.655,-0.0257,0.0174,9.7796,0.0821,0.0634,-0.2601
8370,759,695,34.507,33.656,-0.0468,-0.1045,9.7511,0.1104,-0.0442,0.2459
8375,765,694,34.522,33.68,0.0156,0.0614,9.8401,0.4,0.2144,0.3802
8380,763,682,34.564,33.519,0.0106,-0.0495,9.8385,0.2336,-0.1547,0.3352
8385,775,686,34.586,33.649,-0.0395,-0.092,9.7565,0.2278,0.243,0.0129
8390,778,683,34.57,33.622,-0.0067,0.0277,9.8157,0.6331,0.1667,0.1567
8395,782,674,34.52,33.587,-0.0094,-0.0839,9.8228,0.0148,-0.4017,-0.0045
8400,789,674,34.498,33.665,-0.0029,-0.1144,9.8173,0.085,-0.7534,-0.1332
8405,794,666,34.536,33.594,0.0752,-0.0034,9.9053,0.0585,-0.814,-0.4779
8410,814,665,34.436,33.615,-0.0214,0.0056,9.9038,0.6502,0.1902,0.5825
8415,812,668,34.473,33.599,-0.0117,-0.0254,9.8389,0.0943,0.0161,0.1988
8420,814,661,34.566,33.654,0.0478,-0.027,9.8277,0.3708,-0.1953,-0.3269
8425,830,656,34.544,33.606,-0.0396,-0.1015,9.7587,0.0942,-0.4091,-0.0183
8430,830,655,34.554,33.546,-0.0204,0.0038,9.8305,-0.1073,0.664,1.0389
8435,838,655,34.548,33.583,0.0198,-0.0328,9.8551,0.7026,0.636,-0.1734
