timestamp_ms,ir_finger,ir_toe,temp_finger,temp_toe,ax,ay,az,gx,gy,gz
0,1035,710,34.186,30.231,-0.0286,0.0143,9.6932,-0.3251,-0.2109,-0.1219
5,1052,713,34.133,30.23,-0.028,0.0168,9.8373,-0.101,0.6194,-0.2537
10,1063,713,34.04,30.188,-0.006,-0.0467,9.8087,0.1661,-0.0469,0.7258
15,1073,706,34.105,30.176,-0.028,0.0493,9.8301,0.2766,-0.7468,0.2208
20,1091,701,34.012,30.27,-0.0462,0.0388,9.8205,0.0269,0.0275,-0.3146
25,1094,701,34.082,30.197,-0.0246,0.1566,9.7168,-0.0004,-0.1394,0.651
30,1103,700,34.069,30.228,0.0099,-0.0233,9.7411,0.4127,0.6472,0.1757
35,1125,695,34.122,30.195,-0.0333,0.0121,9.7564,-0.0728,0.0642,-0.6154
40,1123,694,34.063,30.095,-0.0529,-0.0437,9.7677,0.301,-0.1017,0.5484
45,1127,694,34.061,30.14,0.0846,-0.0004,9.8444,0.8247,0.097,-0.1312
50,1144,692,34.008,30.211,0.0534,0.058,9.8751,-0.3123,0.3461,0.873
55,1145,693,34.093,30.236,-0.0388,-0.0195,9.811,-0.0255,-0.0487,-0.3986
60,1158,687,34.089,30.222,-0.0618,-0.1009,9.7766,-0.2463,0.4406,0.3738
65,1161,691,34.072,30.079,0.0161,-0.0467,9.8244,0.2886,0.2433,-0.6132
70,1156,693,34.109,30.14,-0.0457,0.0243,9.8653,-0.313,0.2495,0.9395
75,1171,691,34.074,30.176,-0.01,0.0589,9.8309,-0.4337,0.0745,0.0013
80,1176,694,34.128,30.147,-0.0179,-0.0073,9.7717,0.0193,0.0152,0.2437
85,1181,685,34.04,30.21,0.0737,0.0559,9.7913,0.0414,-0.4258,-0.3875
90,1179,695,34.146,30.184,-0.0022,0.0321,9.8201,-0.5689,-0.5825,0.0827
95,1181,696,34.052,30.145,-0.0373,0.0296,9.818,-0.4034,0.7251,-0.0403
100,1180,702,34.244,30.128,-0.0102,-0.049,9.8411,-0.0546,0.7607,-0.0061
105,1184,696,34.08,30.146,-0.0193,0.0052,9.7733,0.1587,0.1567,-0.2182
110,1197,704,34.047,30.161,0.0578,0.0241,9.8361,-1.413,0.3391,0.1943
115,1181,706,34.103,30.255,0.0027,-0.0183,9.7592,-0.1914,0.2457,-0.3835
120,1183,708,34.073,30.18,-0.0281,-0.0234,9.8116,-0.5667,-0.1562,0.6907
125,1188,716,34.064,30.182,0.003,-0.0091,9.7858,-0.0071,-0.3703,0.2771
130,1190,714,34.103,30.198,-0.0363,-0.0031,9.8716,0.4865,1.2199,0.3029
135,1181,723,34.148,30.167,0.0171,-0.0223,9.8115,-0.4039,-0.4366,-0.4081
140,1179,724,34.154,30.074,0.0293,-0.0195,9.7004,-0.3708,0.6796,-0.6888
145,1183,730,34.025,30.285,-0.0483,-0.0638,9.8082,-0.1404,0.3436,1.0989
150,1184,735,34.062,30.297,-0.0461,-0.0151,9.8307,-1.2768,0.8618,0.5335
155,1175,743,34.108,30.289,-0.0101,0.0433,9.805,-0.3225,-0.1936,0.1779
160,1180,743,34.06,30.207,0.0409,0.0041,9.8283,-0.0382,-0.4207,0.1101
165,1181,756,34.075,30.175,0.1054,-0.0203,9.769,-0.1651,0.6561,-0.3927
170,1168,755,34.106,30.126,0.0174,-0.0265,9.8971,0.7063,0.2288,-0.056
175,1159,760,34.104,30.118,-0.0951,-0.0086,9.8035,0.0393,-0.1056,-0.4889
180,1168,765,34.092,30.15,0.0244,-0.0124,9.8244,-0.9879,-0.2523,0.3289
185,1155,769,34.121,30.242,0.0041,-0.0352,9.7654,-0.5459,-0.9717,-0.4057
190,1162,775,34.081,30.199,-0.0023,-0.0148,9.8807,-0.3683,-0.3242,-0.2332
195,1154,776,34.084,30.199,-0.0707,-0.0103,9.7641,0.0433,0.4484,0.9063
200,1144,783,33.983,30.241,-0.0199,0.0074,9.8127,0.7137,-0.4795,-0.1675
205,1135,793,34.075,30.183,-0.0744,0.0978,9.8325,0.8686,-0.7478,-0.3564
210,1151,798,34.164,30.236,-0.0136,0.0394,9.8645,-0.3114,0.648,0.3385
215,1138,801,34.059,30.216,0.0573,0.0092,9.8502,-0.5017,0.4386,-0.6132
220,1134,812,34.13,30.152,0.023,0.0383,9.8317,-0.2942,-1.0204,0.7612
225,1123,810,34.031,30.122,0.0947,0.0008,9.7614,-0.122,0.2769,-0.0052
230,1131,819,34.08,30.162,0.022,-0.0785,9.8551,-0.3756,-0.1861,-0.6657
235,1130,822,34.113,30.194,0.0192,-0.0414,9.8291,0.0028,-0.4782,-0.4604
240,1128,829,34.119,30.135,-0.0465,0.0061,9.8283,-0.1464,-0.0103,0.4169
245,1124,835,34.156,30.228,-0.0944,-0.0074,9.8114,0.5054,-0.3398,0.5624
250,1121,841,34.085,30.172,-0.0667,-0.0705,9.8181,0.0771,-0.7814,-0.0204
255,1115,841,34.172,30.062,0.0275,0.0954,9.808,-0.5885,0.3622,-0.0319
260,1108,846,33.96,30.229,0.0817,-0.0483,9.7046,0.3132,-0.9101,-0.1246
265,1113,855,34.127,30.2,0.0007,0.0183,9.8236,-0.4027,-0.0723,-0.6155
270,1104,852,34.087,30.264,-0.0192,0.0179,9.8047,-0.4967,0.8711,0.3637
275,1099,857,34.022,30.227,-0.0691,0.0055,9.7851,-0.3618,0.4786,0.8281
280,1105,864,34.028,30.216,-0.0061,-0.0165,9.7814,-0.2973,-1.1104,-0.553
285,1100,865,34.185,30.182,-0.0022,-0.0425,9.8784,0.1202,0.3843,0.4761
290,1088,868,34.109,30.153,-0.0015,-0.0066,9.8388,-0.1289,0.0853,-0.2692
295,1099,868,34.126,30.22,0.0419,-0.0686,9.7661,0.1148,-0.3096,0.4645
300,1093,875,34.045,30.208,-0.0301,-0.009,9.8429,-0.1889,0.0083,0.3417
305,1092,875,34.075,30.197,0.025,-0.0102,9.781,0.1746,-0.381,-0.6891
310,1089,876,34.105,30.193,-0.0495,0.0343,9.8412,0.4678,-0.521,0.2859
315,1093,878,34.094,30.212,-0.0542,-0.0244,9.8067,-0.0799,-0.3324,-0.0956
320,1084,880,34.124,30.255,-0.0283,-0.0,9.798,0.2728,-0.4116,1.2998
325,1082,881,34.071,30.204,0.0252,-0.0737,9.8022,0.1091,0.5777,-0.7086
330,1085,880,34.107,30.273,-0.0202,0.0154,9.8466,-0.1872,0.7214,-0.0732
335,1075,879,34.202,30.112,-0.0505,0.024,9.7272,-0.5849,-0.3952,-0.671
340,1079,878,34.103,30.193,-0.0232,-0.0855,9.7942,0.334,-0.0742,0.4574
345,1076,877,34.073,30.196,-0.0855,0.1051,9.8378,-0.0869,-0.318,-0.3172
350,1066,880,34.119,30.203,-0.0268,0.0532,9.8645,-0.689,-0.499,0.0893
355,1063,880,34.14,30.206,-0.0747,-0.0865,9.793,0.3287,-0.414,0.5459
360,1068,883,34.208,30.245,-0.0816,-0.0012,9.7538,0.9123,-0.732,-1.1554
365,1067,883,34.103,30.255,0.0255,-0.0553,9.799,-0.2206,0.1413,0.2825
370,1056,883,34.067,30.15,0.0238,0.0425,9.8508,-1.0086,-0.3001,0.4339
375,1042,876,34.08,30.297,0.0515,0.0914,9.767,-0.1274,-0.6861,-0.6326
380,1049,877,34.057,30.245,0.0743,-0.0101,9.7976,-0.1846,0.0701,-0.2667
385,1041,878,34.054,30.166,0.0626,-0.0622,9.8058,-0.1317,-0.5886,0.542
390,1033,876,34.044,30.086,0.0063,-0.0128,9.7933,-0.2394,-0.0241,-0.5546
395,1039,867,34.047,30.216,0.0408,-0.0298,9.854,0.1665,0.4899,0.1654
400,1014,872,34.098,30.203,0.0616,-0.0721,9.8443,-0.1433,-0.4822,0.1953
405,1012,871,33.989,30.179,0.0559,0.0743,9.7946,0.205,-0.3978,-0.2144
410,1010,870,34.043,30.183,0.0115,-0.0222,9.8485,0.0663,0.5025,-0.0293
415,1015,872,33.997,30.211,0.107,0.0374,9.8074,0.1083,0.2908,0.8607
420,999,872,33.996,30.293,0.0148,0.061,9.7458,-0.6506,0.4243,-0.0358
425,990,860,34.203,30.22,0.0999,0.105,9.6807,-0.4086,0.0398,-0.6258
430,981,861,34.157,30.188,-0.0614,-0.0147,9.8994,-0.2415,0.245,-0.2781
435,971,869,34.103,30.259,-0.0341,0.0567,9.788,0.2051,0.0991,-0.1594
440,975,865,34.138,30.127,0.0466,0.0838,9.8374,0.4245,0.1795,-0.3695
445,963,859,34.114,30.248,0.0606,0.037,9.8069,-0.2348,0.5438,-0.5677
450,950,857,33.997,30.238,-0.0446,-0.0212,9.7238,-1.2143,0.3803,0.1674
455,931,857,34.059,30.154,0.0438,-0.0092,9.8944,0.0783,0.1185,0.2378
460,930,858,34.113,30.228,-0.0019,0.0155,9.8973,0.4742,-0.5016,0.1531
465,920,858,34.067,30.128,-0.0117,0.0879,9.798,-0.0162,0.3611,-0.1421
470,903,854,34.139,30.171,-0.0116,0.027,9.8342,-0.3064,-0.0255,0.0685
475,901,850,34.016,30.21,-0.0194,-0.0134,9.683,1.078,-0.2572,0.0241
480,898,851,34.019,30.187,0.0445,-0.0149,9.872,-0.1213,-0.2081,0.1129
485,876,847,34.03,30.252,-0.0012,-0.0662,9.8351,-0.4512,-0.2457,0.0352
490,877,848,34.058,30.204,-0.0278,-0.0475,9.861,-0.1556,0.171,0.3166
495,868,849,34.02,30.286,-0.0204,0.0389,9.7849,0.6437,-0.0287,0.2702
500,858,850,34.149,30.215,0.0257,0.0312,9.773,0.6925,-0.1278,0.2884
505,852,843,33.967,30.212,-0.0833,-0.0337,9.7994,-0.2225,0.3132,0.0584
510,840,846,34.154,30.099,-0.0504,0.02,9.779,0.1241,-0.4903,-0.1906
515,831,839,34.101,30.123,0.0266,-0.0475,9.8046,-0.2406,0.2098,-1.5303
520,832,843,34.037,30.251,0.044,-0.1254,9.8306,0.8902,-0.5581,0.3402
525,814,842,34.138,30.186,-0.0758,-0.0187,9.9388,-0.0455,-0.0768,0.1571
530,816,836,34.127,30.214,0.1592,-0.0661,9.7712,-0.7567,-0.7496,-0.1685
535,803,838,34.077,30.217,0.0273,0.0771,9.9232,-0.2413,-0.0914,-0.7428
540,793,839,34.035,30.283,0.0412,-0.0517,9.7875,0.1063,0.3169,0.4485
545,791,845,34.081,30.22,0.0325,-0.0117,9.8144,0.1216,0.1634,-0.3664
550,779,835,34.038,30.232,-0.0762,0.0134,9.8017,-0.2027,-0.4904,-0.1465
555,776,838,34.155,30.248,0.0589,0.0085,9.7857,0.2935,-0.0663,-0.9216
560,772,831,34.084,30.198,-0.0582,0.0252,9.7938,0.6854,0.4795,1.1873
565,758,828,34.116,30.26,-0.0423,-0.0623,9.721,-0.7544,-0.2548,-0.2449
570,765,833,34.036,30.199,-0.0577,0.0025,9.8633,-0.368,1.0224,0.0823
575,754,832,34.081,30.166,0.0518,0.0065,9.8093,-0.7071,-0.6171,-0.4635
580,754,829,34.067,30.082,-0.0061,-0.0456,9.7826,0.7845,0.8642,0.1104
585,756,822,34.156,30.231,0.0293,0.0121,9.8264,0.086,-0.0773,-0.0073
590,747,827,34.012,30.198,0.0898,0.01,9.8498,0.088,-0.3027,-0.0876
595,758,825,34.146,30.147,0.0336,0.094,9.7523,0.0427,-0.2424,0.1137
600,746,819,34.032,30.111,0.0043,0.0246,9.7988,-0.5941,-0.0486,-0.203
605,755,822,34.025,30.172,-0.0116,0.0856,9.8409,-0.6729,-0.1384,-0.0647
610,748,818,34.019,30.107,-0.0595,0.0278,9.7578,0.4807,0.2131,-0.6024
615,756,821,34.124,30.192,-0.0919,0.0405,9.8444,-0.1005,-0.1038,0.0644
620,747,815,34.127,30.24,0.03,-0.0541,9.7564,0.6581,0.0409,-0.1286
625,757,812,34.045,30.175,0.0357,-0.0694,9.8415,-0.0557,-0.0333,0.5778
630,758,808,34.086,30.111,0.0731,0.0166,9.7886,-0.9043,0.3475,-0.2761
635,765,807,34.059,30.266,-0.0351,-0.0326,9.8489,-0.1107,0.0468,0.5208
640,784,800,33.992,30.188,-0.027,-0.0379,9.8146,0.0894,-0.2814,0.7046
645,767,799,34.046,30.213,-0.0352,-0.0688,9.7771,-0.6181,0.1735,0.0102
650,791,794,34.033,30.231,-0.0411,-0.0122,9.8518,0.263,0.001,0.2983
655,792,793,34.1,30.206,-0.0568,0.02,9.8467,0.0062,0.3886,-0.2344
660,807,791,34.175,30.264,0.0051,-0.0049,9.7787,-0.0272,-0.5154,-0.0826
665,818,779,34.04,30.184,-0.0455,-0.0094,9.8554,-0.1918,-1.0166,0.4312
670,821,784,34.124,30.198,-0.0885,-0.0379,9.8292,0.385,-0.3846,0.4137
675,823,783,34.09,30.26,0.0525,0.033,9.7547,0.1401,-0.2641,0.2732
680,847,778,34.14,30.183,0.0513,-0.0127,9.7788,0.2514,0.4354,-0.2722
685,852,763,34.091,30.19,0.0392,0.025,9.8686,0.0633,0.4656,0.1917
690,861,775,34.004,30.204,-0.062,0.0561,9.8103,0.0862,-0.0587,0.2503
695,873,766,34.14,30.237,0.0411,-0.0463,9.7968,-0.2226,-0.5266,0.337
700,896,759,34.039,30.147,-0.0208,0.0561,9.8369,-0.4448,-0.0153,0.3993
705,898,751,34.069,30.119,-0.0103,-0.0295,9.8287,0.0456,0.2303,-0.2021
710,896,753,34.109,30.254,0.0873,-0.0068,9.7589,-0.1312,-0.4538,-0.031
715,923,749,34.085,30.151,-0.0608,0.0788,9.892,0.8186,0.429,0.1474
720,934,745,34.084,30.156,-0.0206,-0.0177,9.8131,-0.3766,-1.0556,-0.5402
725,938,747,34.124,30.192,0.0227,0.0457,9.8106,-0.0869,0.3915,-0.0381
730,960,740,34.097,30.189,0.0441,-0.0718,9.8088,0.0868,-0.5082,-0.2879
735,972,733,34.036,30.147,-0.0266,-0.0027,9.8529,0.2156,-1.1258,-1.0584
740,991,732,34.084,30.243,0.0333,0.0166,9.7917,0.0094,0.2454,0.1471
745,1003,726,34.062,30.217,0.0246,-0.0491,9.85,-0.1886,-0.5491,0.1499
750,1011,724,34.143,30.22,-0.0189,-0.0568,9.7752,0.0779,0.3075,-1.2647
755,1023,722,34.094,30.211,-0.0019,0.0427,9.7848,0.3867,0.2227,0.0187
760,1035,715,34.091,30.224,-0.0464,-0.0797,9.8134,-0.597,0.1005,-0.2369
765,1038,715,34.09,30.188,0.0574,-0.0228,9.8627,0.6417,-0.132,0.3728
770,1057,706,34.191,30.161,-0.0104,0.0934,9.7951,0.436,-0.2877,-0.3785
775,1066,703,34.156,30.206,-0.0869,-0.0191,9.7661,-0.6437,-0.7808,0.5015
780,1075,703,34.066,30.061,-0.0086,-0.0355,9.8767,0.1845,-0.1518,-0.162
785,1082,697,34.199,30.257,-0.0097,-0.098,9.8559,-0.3228,-0.435,0.0173
790,1109,698,33.991,30.206,0.0545,0.0168,9.8275,-0.5751,-0.4042,-0.258
795,1108,694,34.054,30.254,-0.0098,0.0398,9.698,-1.3395,-0.6706,-0.2873
800,1124,697,34.08,30.289,0.0792,0.0147,9.7811,0.8017,0.1363,-0.6714
805,1115,693,34.055,30.22,0.0615,-0.0628,9.8309,0.1298,-0.4319,-0.449
810,1132,693,34.124,30.189,-0.005,-0.062,9.8304,0.1471,-0.7427,0.7858
815,1139,692,34.12,30.225,-0.0269,0.0311,9.9172,-0.0723,-0.5719,0.1131
820,1141,689,34.133,30.166,0.0849,0.0575,9.7792,-0.5728,-0.7102,-0.9132
825,1155,687,34.127,30.137,0.0294,-0.0213,9.819,1.2019,0.7632,-0.0056
830,1162,695,34.125,30.167,0.0518,-0.0515,9.7509,1.1743,0.4681,-0.5821
835,1169,695,34.142,30.238,0.0356,0.0338,9.8009,-0.5329,-1.0984,-0.1748
840,1168,693,34.042,30.276,0.0648,0.0459,9.792,-0.7291,0.2503,0.0006
845,1177,692,34.117,30.264,-0.0666,0.0338,9.8418,0.854,0.0867,0.6172
850,1180,696,34.143,30.182,-0.0165,0.0324,9.7468,0.5309,0.2114,-0.2278
855,1176,694,34.124,30.236,-0.0714,0.0419,9.7849,0.2828,0.5986,0.763
860,1175,698,34.067,30.19,-0.088,-0.0042,9.8556,-0.3365,0.6091,-0.2672
865,1186,698,34.114,30.232,-0.0635,-0.0362,9.8645,0.1421,0.0379,-0.0413
870,1178,703,34.118,30.189,0.0422,0.0198,9.8128,0.3492,0.2037,0.3303
875,1178,702,34.086,30.166,-0.0284,-0.0002,9.7905,0.2312,1.2713,-0.2003
880,1196,709,34.093,30.152,-0.023,0.0287,9.8446,-0.2701,-0.1672,0.6528
885,1184,709,33.997,30.178,0.0514,0.0046,9.925,-0.3821,-0.126,0.3278
890,1194,715,34.047,30.292,-0.0064,0.0777,9.8218,-0.7996,-0.2226,0.1121
895,1178,718,34.019,30.228,0.0398,-0.0432,9.8122,-0.0964,0.5726,0.8784
900,1184,722,34.105,30.182,-0.1504,-0.0016,9.8424,0.446,0.3486,-0.0717
905,1183,726,34.162,30.146,-0.0629,-0.0392,9.8674,-0.0859,0.3471,-0.6704
910,1180,731,34.151,30.296,-0.007,0.1006,9.8635,0.1965,0.3359,0.5002
915,1180,729,33.969,30.258,0.0045,-0.0115,9.8864,-0.1741,0.5019,-1.0707
920,1185,744,34.103,30.182,0.006,0.0053,9.7871,0.5238,-0.702,-1.1282
925,1184,744,34.168,30.259,0.0484,0.033,9.8017,0.4634,-0.5551,0.6257
930,1166,752,34.107,30.29,-0.0344,-0.0555,9.854,-0.9966,0.1209,0.0969
935,1162,757,34.108,30.23,0.0396,0.0573,9.7703,-0.1782,-1.1687,-0.3215
940,1171,760,34.136,30.188,0.0117,0.0632,9.8003,0.2959,-0.2468,0.2566
945,1173,766,34.021,30.248,-0.0338,0.0079,9.7788,0.5838,-0.5294,-0.2812
950,1157,770,34.14,30.176,0.0213,0.008,9.7667,1.0892,-0.7277,-0.1335
955,1151,781,34.166,30.255,0.0508,-0.0208,9.7786,0.3851,0.888,-0.618
960,1152,784,34.131,30.301,0.0781,-0.0222,9.8254,0.6375,0.5906,0.3907
965,1149,782,34.043,30.116,-0.066,-0.045,9.828,-0.7904,0.3961,0.0217
970,1149,795,34.127,30.182,-0.0057,0.0991,9.9111,0.2408,-0.1689,-0.8401
975,1134,805,34.114,30.227,-0.1188,0.0418,9.8296,0.5893,-0.38,0.3355
980,1137,804,34.004,30.148,0.0716,0.023,9.6743,0.4819,-0.2896,-0.6302
985,1142,811,34.065,30.217,0.032,0.0343,9.8113,0.4384,-0.7291,0.4646
990,1131,811,34.091,30.227,0.0099,0.0114,9.9099,0.1845,0.4287,-0.3974
995,1136,817,34.056,30.205,-0.0158,-0.0042,9.8338,0.3525,-0.4858,0.3087
1000,1128,824,34.066,30.223,-0.0067,-0.0356,9.803,-0.6344,-0.3701,-0.1048
1004,1125,832,34.048,30.218,0.0234,0.0147,9.8232,-0.0569,1.1288,-0.1678
1010,1119,833,34.117,30.295,0.022,-0.0488,9.9103,-0.1552,0.1486,-0.0491
1014,1124,835,34.15,30.245,0.0281,-0.0486,9.8071,0.5175,-0.2183,-0.2032
1020,1115,845,34.154,30.289,-0.0449,0.0079,9.9429,0.0183,-0.0689,-0.1565
1025,1109,843,34.081,30.303,0.0404,-0.015,9.8959,0.074,0.3785,0.5347
1030,1115,852,33.995,30.23,-0.0336,-0.0502,9.8942,0.7322,-0.0369,-0.3977
1035,1116,854,34.013,30.208,-0.0651,0.0252,9.837,-0.0618,0.0307,0.7838
1040,1103,858,34.073,30.126,0.0471,0.0478,9.8264,-0.3255,-0.0273,-0.0965
1045,1099,858,34.098,30.251,-0.047,0.0312,9.9006,0.9949,-0.3704,-0.1404
1050,1093,865,34.14,30.189,-0.0184,-0.0741,9.8912,-0.6704,0.7155,0.3437
1055,1091,868,34.14,30.256,0.0787,-0.0186,9.8529,-0.6194,-0.5037,-0.1497
1060,1097,869,34.028,30.217,-0.0804,-0.059,9.7572,-0.3097,-0.0189,0.2791
1065,1090,872,34.023,30.143,0.0599,0.0443,9.7314,0.2682,-0.1579,-0.4118
1070,1084,873,34.107,30.236,-0.0538,-0.0316,9.8351,-0.4125,-0.9994,-0.3787
1075,1084,877,34.107,30.189,0.0417,-0.0243,9.7242,0.0415,0.9912,0.6964
1080,1094,876,34.099,30.246,-0.0318,0.0672,9.8545,0.1176,0.8744,0.5905
1085,1090,880,34.113,30.218,0.0161,-0.0003,9.825,0.434,-0.4334,-0.127
1090,1074,884,34.065,30.157,-0.009,-0.0163,9.7961,0.6503,0.8284,-0.2048
1095,1083,881,33.977,30.096,0.0111,-0.0289,9.8959,0.1006,0.3554,0.3893
1100,1083,880,34.164,30.263,-0.0443,0.0095,9.7406,0.3901,-0.9658,0.9765
1105,1077,882,34.085,30.122,0.0089,0.0199,9.7906,-0.0742,0.365,-0.1805
1110,1065,882,34.109,30.178,0.0179,-0.0424,9.8312,-0.0673,0.2171,0.8324
1115,1074,887,34.029,30.239,-0.0138,-0.0028,9.8086,-0.8033,-0.3896,0.2143
1120,1065,881,34.01,30.198,-0.1047,-0.0219,9.7534,-0.2606,-0.9834,0.159
1125,1057,881,34.147,30.256,-0.0795,-0.0296,9.8181,-1.0017,-0.5025,-0.0431
1130,1060,882,34.039,30.334,-0.047,-0.0031,9.8861,0.1629,-0.5022,-1.4139
1135,1054,878,34.109,30.276,-0.0737,0.036,9.8202,0.2189,0.8805,0.1135
1140,1039,879,34.065,30.319,-0.0968,-0.0688,9.8527,1.0809,0.6852,-0.236
1145,1041,876,34.178,30.215,0.0396,0.0013,9.8444,-0.0364,0.6372,-1.0232
1150,1033,875,34.098,30.187,-0.0761,-0.0522,9.7957,0.5413,0.377,0.4384
1155,1025,876,34.189,30.239,-0.0423,-0.0233,9.768,0.2463,-0.2068,0.0699
1160,1020,872,34.057,30.186,0.0529,0.0178,9.7555,0.5949,0.1387,0.0584
1165,1020,867,34.107,30.223,-0.0511,-0.0699,9.7769,-0.0984,-0.3887,0.134
1170,1025,871,34.111,30.221,-0.0632,0.0115,9.7295,0.3773,-0.6509,0.2728
1175,1016,867,34.108,30.238,-0.0248,0.036,9.7733,-0.8533,-0.2939,0.4244
1180,1006,872,34.077,30.212,0.0091,-0.0097,9.8042,0.275,0.0166,0.3533
1185,994,870,33.98,30.214,0.0093,-0.1325,9.7957,0.8657,0.5041,0.0581
1190,990,865,34.169,30.179,0.0419,-0.0588,9.8506,0.8835,0.2708,-0.6283
1195,977,864,34.193,30.202,-0.0259,-0.0368,9.8077,0.5969,0.5222,0.2266
1200,971,867,34.002,30.315,-0.0616,0.0516,9.925,0.2587,-0.0055,-0.5195
1205,968,858,34.045,30.27,-0.0479,-0.018,9.7897,-0.3658,-0.2214,-0.3394
1210,961,862,34.079,30.243,0.0474,-0.017,9.8013,-0.3533,0.8203,0.1199
1215,948,853,33.995,30.291,-0.109,0.0034,9.7558,0.4957,-1.1558,-0.1051
1220,946,856,34.14,30.18,0.0546,-0.0228,9.8135,0.0606,-0.0659,-0.0097
1225,924,858,34.133,30.257,0.0468,0.0097,9.7782,0.4377,-0.041,-0.2737
1230,922,855,34.076,30.232,-0.0156,-0.0238,9.822,0.1272,0.3746,-0.2779
1235,908,855,34.021,30.208,0.0346,-0.016,9.7844,-0.8708,0.4561,-0.663
1240,911,853,34.12,30.122,0.0024,0.0054,9.775,0.0821,-0.6788,-0.2829
1245,893,849,34.119,30.104,-0.0693,0.0893,9.8823,0.0646,-0.9346,0.5513
1250,890,850,34.174,30.162,-0.068,-0.0431,9.7701,0.1072,0.3029,-0.191
1255,868,845,34.118,30.204,-0.0287,0.0214,9.7771,-0.575,-0.7144,-0.5007
1260,862,848,34.023,30.274,0.0113,0.0343,9.8051,0.0917,0.0341,-0.8836
1265,859,849,34.211,30.277,-0.0967,0.0513,9.7645,-0.186,-0.5164,-0.0251
1270,852,843,34.068,30.109,0.0494,0.0737,9.7961,0.3547,-0.3145,-0.1342
1275,838,845,34.193,30.2,0.0225,-0.0801,9.7895,-0.0037,0.4365,-0.387
1280,845,839,34.055,30.218,-0.0197,-0.0715,9.9093,0.3308,0.335,-0.0446
1285,818,842,34.064,30.178,0.0083,-0.1018,9.7802,-1.2615,0.5451,-1.2582
1290,814,840,34.057,30.187,-0.0213,0.037,9.7989,-0.0643,-0.3282,0.1068
1295,804,837,34.083,30.239,0.0608,-0.0643,9.7628,0.8041,0.4676,0.2834
1300,789,840,34.12,30.221,0.0229,-0.0232,9.7759,-0.421,-0.2096,0.4375
1305,788,839,33.997,30.184,0.0899,-0.0411,9.9071,0.4367,0.0999,0.8299
1310,789,840,34.135,30.108,-0.0601,0.0411,9.796,0.0878,0.2269,-0.399
1315,778,842,34.106,30.112,0.0176,0.0434,9.8436,-0.1622,0.4787,-0.1193
1320,778,838,34.126,30.27,-0.0354,0.0051,9.8382,0.0975,-0.368,-0.1817
1325,767,835,34.087,30.188,0.0077,-0.037,9.813,0.0946,-0.7072,0.3047
1330,768,829,34.086,30.144,-0.0126,0.0094,9.8226,0.0278,-0.6062,0.105
1335,746,831,34.205,30.293,-0.0129,-0.0857,9.7708,-0.6718,0.0521,0.2848
1340,758,831,34.128,30.217,0.0042,0.0405,9.7766,-0.5752,0.6897,-0.0827
1345,750,831,34.077,30.202,0.0485,-0.0667,9.8443,-0.054,0.1587,-0.6051
1350,758,824,34.036,30.208,0.0948,-0.0349,9.7691,-0.9032,0.2447,0.6697
1355,751,823,34.172,30.182,0.0108,0.0283,9.7435,0.2752,0.5373,-0.0109
1360,757,825,34.14,30.241,-0.0019,-0.0727,9.8141,0.6495,-0.6154,0.1765
1365,747,820,34.096,30.284,-0.0258,-0.0628,9.8223,1.2222,0.2675,0.5352
1370,754,818,34.074,30.219,-0.0794,0.046,9.924,-0.5188,0.3934,-0.3498
1375,752,818,34.039,30.224,0.0144,-0.0277,9.8453,-1.029,0.1793,-0.326
1380,746,816,34.042,30.202,-0.0187,-0.0125,9.7962,-0.7127,0.4887,-0.7828
1385,756,815,34.118,30.249,-0.0394,-0.0402,9.8181,0.2872,0.3286,-0.0936
1390,759,813,34.036,30.115,-0.0074,0.0221,9.7975,-0.2745,-0.4113,-0.1335
1395,768,813,34.159,30.07,-0.0027,0.0201,9.7812,0.2416,0.319,-0.4747
1400,767,807,34.092,30.232,0.0874,-0.0295,9.8172,-0.1046,0.3621,0.3073
1405,775,809,34.084,30.201,-0.0264,-0.0629,9.8224,0.2203,0.7359,-0.787
1410,784,801,34.104,30.257,0.0926,0.0128,9.7743,-0.2882,-0.0526,-0.2442
1415,787,800,34.001,30.275,-0.0215,0.1282,9.7984,0.6895,-0.7225,-0.0338
1420,799,797,34.261,30.182,0.0147,0.0266,9.8635,-0.1332,0.084,0.5613
1425,795,788,34.0,30.115,0.0091,-0.0902,9.8139,0.7971,0.7208,0.441
1430,803,786,34.061,30.137,-0.0553,0.013,9.7715,-0.083,-0.6013,-0.2245
1435,822,783,34.103,30.172,0.0287,-0.029,9.8839,0.3428,-1.104,0.384
1440,827,777,34.132,30.279,0.0511,0.0097,9.8939,0.0692,-0.1085,0.2288
1445,846,773,34.072,30.21,-0.0182,-0.0651,9.8087,-0.1396,0.7243,-0.3965
1450,854,775,34.075,30.261,0.0359,-0.0098,9.8618,-0.4579,-0.4537,0.045
1455,860,773,34.125,30.18,-0.023,-0.0178,9.8552,0.3558,-0.7522,0.351
1460,875,769,34.214,30.215,0.0382,0.0441,9.8078,-0.0765,-0.7588,0.2227
1465,876,761,34.094,30.222,-0.0249,0.0152,9.7958,-0.1876,0.8027,-0.1973
1470,892,762,34.106,30.281,-0.0011,-0.097,9.8611,0.8271,-0.1596,-0.221
1475,905,750,33.975,30.219,-0.0423,-0.0232,9.7899,0.357,0.5877,-0.27
1480,923,754,34.11,30.224,-0.0122,-0.0147,9.828,-1.2034,-0.5432,0.5415
1485,932,752,34.108,30.202,0.0142,0.0035,9.8339,0.6227,0.2055,-0.2107
1490,946,739,34.046,30.173,0.0419,-0.0435,9.7849,0.3862,0.3746,-0.4677
1495,956,738,34.059,30.208,-0.0154,-0.0615,9.789,0.0282,-0.7702,-0.6774
1500,970,735,34.139,30.156,0.0781,0.0394,9.8369,1.6764,-0.2493,0.3659
1505,984,732,34.057,30.209,0.0815,0.0013,9.736,0.8869,0.3206,0.4542
1510,1002,728,34.093,30.325,-0.0141,-0.0464,9.6887,-0.415,-1.1532,-0.6982
1515,1008,721,34.101,30.107,0.0267,-0.0921,9.8124,-0.3387,-0.1213,0.0886
1520,1018,712,34.117,30.235,-0.0798,-0.0711,9.7285,-0.7251,0.1071,-1.0696
1525,1029,714,34.092,30.238,-0.0716,0.0233,9.8273,0.2495,0.1725,0.5684
1530,1039,712,34.117,30.193,0.0357,0.0239,9.9006,0.5404,0.1285,-0.3495
1535,1058,709,34.072,30.137,0.0014,0.11,9.8034,0.0448,0.5478,-0.7493
1540,1059,703,34.048,30.224,-0.0314,0.0295,9.7686,0.2628,1.0864,0.3996
1545,1081,700,34.226,30.184,0.07,0.0678,9.7961,-0.2344,-0.0964,-0.0288
1550,1088,699,34.05,30.205,0.0821,0.0364,9.8466,-0.4156,-0.0672,-0.0122
1555,1096,707,34.135,30.167,0.0295,-0.0293,9.8654,-0.0069,0.3585,-0.366
1560,1098,700,34.217,30.145,-0.0474,0.012,9.8564,0.1015,0.6522,-0.3155
1565,1114,695,34.017,30.182,0.019,0.0485,9.8622,-0.6053,0.5903,0.558
1570,1128,700,34.082,30.242,0.0429,0.0183,9.8384,0.2347,0.9053,0.3268
1575,1133,698,34.096,30.227,-0.0135,-0.0272,9.8172,0.6108,0.6484,-0.1533
1580,1142,693,34.059,30.156,-0.0885,0.0286,9.8199,0.6769,-0.2791,0.3921
1585,1146,691,34.11,30.268,-0.0465,-0.0385,9.8775,0.0775,0.4002,0.1127
1590,1158,694,34.132,30.21,-0.0223,-0.0262,9.8059,0.7267,-0.3798,0.301
1595,1153,691,34.14,30.179,-0.0227,-0.0434,9.8062,0.0514,-0.9282,-0.3561
1600,1164,690,34.125,30.077,-0.0029,-0.0183,9.8607,0.7725,0.3538,-0.0818
1605,1167,698,34.057,30.235,0.0628,0.0076,9.8122,0.4881,0.8236,-0.2033
1610,1175,689,34.113,30.207,0.0162,0.0398,9.8221,-0.4284,0.5259,0.603
1615,1174,691,34.064,30.167,-0.0459,0.1294,9.7085,-0.0755,-0.5346,0.8694
1620,1186,693,34.086,30.183,-0.058,-0.0212,9.859,0.1563,-0.6444,-0.7275
1625,1183,699,34.199,30.199,-0.0088,0.0437,9.7482,-0.2402,-0.1477,-0.2217
1630,1186,699,34.153,30.143,-0.0658,-0.0103,9.8212,0.5648,-0.043,-0.6043
1635,1185,705,34.077,30.155,0.0237,-0.0017,9.8127,0.4839,-0.1588,0.2418
1640,1186,710,34.073,30.262,-0.0666,0.034,9.8277,1.0974,-0.0445,-0.7564
1645,1186,711,34.139,30.241,0.0017,-0.043,9.7977,0.8301,-0.8832,0.4334
1650,1192,707,34.027,30.328,0.0623,-0.0044,9.8792,-0.2995,-0.1084,0.0964
1655,1183,718,34.05,30.242,-0.0313,-0.0597,9.7631,-0.345,0.1002,-0.0239
1660,1184,718,34.063,30.173,0.0247,-0.0585,9.7667,-0.5432,0.1419,0.1432
1665,1182,719,34.05,30.246,0.0858,-0.0185,9.7737,-0.2811,0.0886,0.1143
1670,1190,723,34.124,30.228,-0.0505,0.006,9.7337,-0.1476,-0.2712,1.2042
1675,1173,731,34.137,30.219,-0.0069,-0.0628,9.7929,0.2244,-0.2728,0.1827
1680,1176,739,34.082,30.244,-0.0376,-0.0276,9.8913,-0.5507,0.4721,0.7005
1685,1178,733,34.025,30.239,0.007,-0.0634,9.7844,-0.1107,0.2369,0.2029
1690,1181,750,34.013,30.162,0.0003,0.0151,9.8421,0.1086,-0.3331,0.0587
1695,1175,746,34.149,30.25,-0.0873,-0.008,9.809,-0.3968,0.4491,0.2003
1700,1171,761,34.097,30.154,-0.047,-0.0003,9.8435,0.0265,-0.3666,0.4569
1705,1171,755,34.131,30.166,0.0791,-0.0991,9.8205,-0.0766,0.0811,0.7318
1710,1163,764,34.083,30.177,0.0538,0.038,9.8831,-0.5035,-0.2769,-0.7039
1715,1153,769,34.124,30.157,-0.0155,0.0266,9.7569,-0.127,0.4109,-0.3386
1720,1148,766,34.116,30.168,-0.0011,0.0396,9.8589,-0.04,-0.0204,-0.3103
1725,1155,787,34.116,30.245,-0.023,-0.0367,9.8113,-0.5727,0.0987,-0.209
1730,1149,793,34.163,30.187,-0.1003,0.0028,9.7328,0.0655,0.4916,0.8049
1735,1150,798,34.135,30.237,-0.0243,0.0033,9.7759,-0.2213,0.3695,-0.2402
1740,1148,799,34.034,30.208,-0.0815,0.0522,9.7856,-0.0725,0.7694,0.7392
1745,1136,805,34.226,30.18,0.0104,-0.0445,9.8091,0.7229,-0.1164,0.3994
1750,1136,809,34.11,30.156,-0.0609,0.0803,9.8548,-0.0519,-1.0885,-0.3504
1755,1124,817,34.138,30.199,0.0199,0.0694,9.7513,-0.0227,0.5762,0.4356
1760,1130,817,34.081,30.176,0.0202,-0.054,9.8798,-0.5486,-0.3357,0.7423
1765,1126,830,34.162,30.223,0.0123,-0.0199,9.773,0.1005,-0.3689,0.3552
1770,1119,832,34.097,30.306,0.1365,0.0084,9.799,0.7088,-0.225,-1.1458
1775,1130,836,34.081,30.229,0.0138,-0.0717,9.8557,0.9127,-0.7913,-0.6954
1780,1126,834,34.098,30.199,0.0319,0.0172,9.8387,-0.7742,-0.2299,-0.5769
1785,1109,841,34.13,30.259,0.0708,-0.0166,9.8012,-1.2217,0.4107,0.7901
1790,1116,848,34.118,30.214,0.0538,0.0055,9.8549,0.0953,-0.0502,0.1884
1795,1114,850,34.118,30.269,-0.0656,-0.037,9.9164,0.696,0.1,-0.0419
1800,1102,850,34.137,30.17,-0.0327,0.0176,9.756,0.3756,-0.1903,0.2171
1805,1105,856,34.074,30.226,-0.0481,-0.0294,9.8362,-0.7795,0.329,0.7981
1810,1109,854,34.076,30.192,-0.022,-0.0132,9.7667,-0.2194,0.9213,0.2944
1815,1096,862,34.148,30.192,-0.0216,-0.0785,9.9016,0.0068,0.1731,-0.0782
1820,1095,865,34.252,30.188,0.0682,-0.0166,9.816,-0.0809,0.1549,-0.6189
1825,1096,877,34.084,30.269,0.0781,0.028,9.7625,-0.3087,-0.311,-0.2172
1830,1094,867,34.144,30.133,-0.0078,0.0173,9.7885,-0.1127,0.019,-0.1937
1835,1086,878,34.066,30.251,-0.0134,-0.0229,9.75,0.3595,-0.4738,-0.2609
1840,1091,876,34.109,30.208,-0.0209,0.0175,9.7956,0.0816,0.6414,0.4958
1845,1088,871,34.055,30.29,0.0,0.0529,9.8466,-0.5316,0.0891,0.9483
1850,1074,876,34.123,30.168,0.0159,-0.0005,9.7817,-0.1812,-0.3082,0.1698
1855,1078,882,34.124,30.109,-0.008,0.0128,9.8032,0.213,-0.4988,0.0178
1860,1078,881,34.056,30.248,0.0149,-0.1056,9.7395,0.9438,-0.2439,-0.0788
1865,1077,877,34.151,30.199,-0.0295,-0.0827,9.8988,-0.0294,0.4053,-0.6169
1870,1075,876,34.142,30.235,-0.0748,0.0039,9.8404,0.3259,-0.1003,-0.4673
1875,1075,880,34.029,30.241,-0.0163,0.0423,9.814,0.3381,0.8124,0.2068
1880,1066,879,34.13,30.194,0.0182,0.0343,9.9209,0.529,0.504,-0.5765
1885,1065,885,34.095,30.156,-0.0458,0.0565,9.8806,-0.9297,-0.2691,-0.3001
1890,1064,881,34.058,30.183,0.0391,-0.15,9.8026,-0.6243,0.3319,-0.0426
1895,1055,879,34.157,30.268,-0.0467,-0.0311,9.7685,-0.3029,-0.357,-0.1284
1900,1051,881,34.115,30.188,0.0187,0.0353,9.8012,-0.433,-0.2407,0.5707
1905,1049,877,34.191,30.266,-0.0814,-0.0395,9.7649,0.6093,0.7315,-0.689
1910,1045,879,34.11,30.242,-0.003,0.0206,9.8306,0.4763,0.8907,0.2968
1915,1041,876,34.146,30.222,-0.0129,0.0227,9.7284,0.7858,-0.1392,-0.139
1920,1035,877,34.147,30.117,0.0976,-0.0379,9.8756,0.6803,1.0531,-0.0538
1925,1022,880,34.13,30.169,0.0274,-0.0404,9.7692,-0.2748,-0.7116,0.5111
1930,1019,873,34.154,30.234,-0.0391,0.0426,9.7211,-0.5068,0.3637,-0.0199
1935,1025,869,34.077,30.144,0.0333,-0.0311,9.7311,-0.3508,-0.667,0.1645
1940,1008,867,34.074,30.12,0.0803,0.0663,9.7926,-0.5477,0.5626,-0.1883
1945,1000,868,34.095,30.271,0.0034,0.0621,9.7733,-0.1941,-0.546,0.1292
1950,1003,863,34.137,30.186,-0.0761,-0.0153,9.8116,-0.6757,0.1659,-0.6693
1955,992,864,34.127,30.214,0.0802,0.1397,9.8543,-0.3455,0.344,-0.4177
1960,980,866,33.997,30.194,0.0534,0.0352,9.7367,-0.4304,-0.3656,-0.5601
1965,973,857,34.175,30.201,0.0149,-0.0198,9.7489,0.3159,-0.3399,-0.7254
1970,965,861,34.101,30.148,0.0431,0.0285,9.8121,0.5014,-0.561,0.4353
1975,956,859,34.2,30.188,-0.0588,0.034,9.7671,-0.0212,0.1865,0.2984
1980,957,860,34.027,30.248,0.0578,0.025,9.801,0.4054,-0.019,-0.4528
1985,946,859,34.129,30.284,0.0293,0.0141,9.8239,-0.5052,0.0697,0.3594
1990,932,858,34.033,30.18,-0.0108,-0.0643,9.7377,0.4944,-0.2335,-0.6108
1995,914,857,34.106,30.179,0.0848,0.0342,9.7659,0.6176,0.2133,-0.3192
2000,919,856,34.044,30.225,-0.1068,0.0132,9.8167,-0.3251,-0.6005,-0.3579
2005,899,851,34.058,30.184,-0.0995,-0.004,9.8631,-0.0595,0.9479,-0.3196
2009,884,850,34.028,30.217,-0.0246,0.021,9.7882,0.5513,-0.5961,0.3064
2015,882,848,34.095,30.241,-0.0506,0.0126,9.8544,-0.0818,-0.5743,0.431
2020,877,846,34.174,30.193,0.0416,-0.078,9.7313,-0.1485,1.4449,0.6053
2025,863,849,34.155,30.256,0.0168,-0.0557,9.7849,0.2379,0.6553,0.6592
2029,858,848,34.142,30.347,-0.0009,-0.0383,9.857,-0.6283,0.3191,-0.6066
2035,847,848,34.102,30.187,0.0188,-0.0362,9.8091,-0.4014,-0.0271,-0.3433
2040,840,842,34.176,30.163,0.0003,-0.0704,9.8132,-0.2121,0.6706,0.3448
2045,836,843,34.053,30.167,0.0126,-0.0497,9.8415,-0.2665,0.6817,-0.2458
2050,829,842,34.092,30.175,0.0219,0.0261,9.91,-0.1798,0.3236,0.4391
2055,805,838,34.081,30.258,0.0307,0.1351,9.7565,0.0313,-1.1645,0.9397
2060,812,840,34.001,30.262,-0.062,0.0166,9.951,-0.1034,-0.0013,-0.3827
2065,805,837,34.037,30.247,0.0077,-0.0244,9.8348,-0.1975,1.2881,-0.0531
2070,795,835,34.184,30.221,0.0471,0.0221,9.8096,-0.506,-0.148,-0.2618
2075,785,839,34.091,30.263,-0.0457,-0.0515,9.7609,-0.3029,-0.6893,-0.0393
2080,781,833,34.117,30.221,-0.0088,-0.1205,9.8325,0.0927,-0.2495,-0.0023
2085,768,834,34.052,30.18,-0.0086,-0.0192,9.8553,0.1767,-0.5269,-0.0474
2090,769,831,34.122,30.232,0.0689,0.0402,9.8431,0.8737,-0.0564,0.3044
2095,762,829,34.129,30.186,0.0127,0.0519,9.8286,-0.2811,0.7774,0.4919
2100,765,831,34.076,30.154,-0.01,-0.0322,9.7819,-0.131,-0.023,0.128
2105,759,833,34.125,30.162,-0.0114,0.0561,9.8919,-0.215,-0.7258,-0.1471
2110,749,828,34.082,30.19,-0.0305,0.0524,9.8312,0.3364,-0.7843,0.0819
2115,746,826,34.172,30.259,0.0542,-0.0199,9.79,0.4835,0.1103,0.4072
2120,756,829,34.205,30.263,-0.0143,0.0568,9.7605,0.2823,-1.2093,0.7363
2125,749,823,34.074,30.198,0.0504,0.0065,9.8113,0.3204,0.6906,-0.2988
2130,743,822,34.019,30.231,-0.0209,0.0735,9.9228,0.8629,0.2615,-0.8702
2135,751,816,34.148,30.262,-0.0523,-0.0045,9.7796,0.3676,0.3774,-0.4537
2140,753,821,34.173,30.138,0.0743,0.0804,9.7883,0.5249,-0.1006,-0.4895
2145,759,816,34.092,30.262,-0.0288,-0.0113,9.949,0.1175,0.7635,-0.9446
2150,759,813,34.12,30.201,-0.0386,0.0888,9.826,-0.2153,0.0608,-0.4248
2155,750,811,34.115,30.209,-0.0272,0.0252,9.8197,-0.5021,-0.0894,0.2954
2160,761,810,34.08,30.231,-0.0085,0.0391,9.839,1.0603,0.0729,-0.4959
2165,763,807,34.166,30.164,0.0069,0.0288,9.7868,-0.1654,0.8281,-0.15
2170,771,806,34.037,30.228,-0.0376,-0.0223,9.7992,-0.5276,0.9199,-0.4116
2175,778,794,34.133,30.263,-0.067,-0.0187,9.7561,0.0968,-0.4322,0.5485
2180,794,793,34.099,30.184,0.0395,-0.0625,9.8732,-0.0206,0.5121,0.2277
2185,787,795,34.122,30.2,0.0855,-0.0711,9.8006,0.343,0.4638,0.0698
2190,806,793,34.042,30.258,0.048,-0.0131,9.8193,0.1948,-0.4376,0.3679
2195,813,788,34.153,30.193,-0.0523,0.0479,9.8678,0.0421,0.0126,1.3287
2200,817,780,34.058,30.132,-0.0205,0.0063,9.8191,0.1473,0.0865,1.0132
2205,820,774,33.987,30.157,0.0386,-0.1275,9.9105,0.4045,-0.3664,0.3241
2210,846,778,34.004,30.172,0.0108,-0.0154,9.7741,0.7364,-0.4708,-0.4585
2215,860,766,34.129,30.273,0.0136,-0.0544,9.8189,0.1975,-0.3992,0.0034
2220,862,768,34.11,30.222,-0.0107,0.006,9.834,0.1859,0.0003,0.6076
2225,877,770,34.11,30.196,0.0126,-0.0692,9.7225,-0.6982,-0.104,0.0611
2230,889,761,34.026,30.248,-0.0544,0.0422,9.9196,-0.0169,0.1196,-0.1557
2235,893,758,34.149,30.204,0.0477,0.0059,9.8736,0.1835,-0.2217,0.7899
2240,914,750,34.163,30.281,0.0179,-0.0073,9.7837,-0.4962,1.0722,0.3196
2245,914,750,34.044,30.184,0.0363,-0.0662,9.8401,0.0166,-0.3956,-0.6558
2250,933,748,34.057,30.278,0.0158,-0.0182,9.7538,0.0754,-0.2386,0.3316
2255,940,743,34.149,30.249,0.0236,-0.0332,9.7485,-0.7487,-0.9775,-0.4028
2260,952,733,34.054,30.272,-0.0168,0.0644,9.7081,0.5941,0.2972,0.3542
2265,968,730,34.054,30.268,-0.0069,0.0126,9.7985,-0.3767,0.6636,-0.7096
2270,974,728,34.1,30.238,-0.1127,0.023,9.8656,0.2797,0.0204,0.0291
2275,1008,722,34.109,30.185,0.0438,-0.0346,9.83,0.2051,0.9801,0.0603
2280,1009,715,34.119,30.101,-0.0096,-0.0331,9.9158,0.526,-0.2795,0.0977
2285,1027,718,34.166,30.26,0.0434,-0.0766,9.8795,0.3677,0.9509,-0.1769
2290,1039,714,34.069,30.309,0.0092,0.0471,9.6885,-0.2518,-0.4358,0.3216
2295,1046,710,34.156,30.264,0.0176,0.0406,9.8665,0.2074,-0.28,-1.022
2300,1065,710,34.152,30.206,-0.0949,-0.014,9.8594,-0.4203,0.0284,0.6417
2305,1070,702,34.118,30.264,-0.0369,0.0332,9.7369,0.1408,-0.1253,-1.0329
2310,1080,699,34.094,30.221,-0.0448,0.0073,9.8035,0.7509,-0.1591,0.0797
2315,1089,703,34.108,30.176,-0.1117,-0.0469,9.7227,0.4463,-0.3737,0.1819
2320,1100,699,34.075,30.207,-0.0154,0.0079,9.7784,0.393,0.3689,-0.2706
2325,1102,698,34.106,30.132,-0.0191,-0.0081,9.7547,0.3308,0.2428,-0.1674
2330,1117,702,34.131,30.268,-0.0523,-0.0625,9.858,-0.5565,0.7242,0.8036
2335,1117,694,34.017,30.106,-0.142,0.0055,9.7718,0.4239,-0.7648,-0.9427
2340,1128,695,34.109,30.168,-0.0215,0.0032,9.8771,-0.5785,-0.2982,-0.2255
2345,1141,695,34.046,30.201,-0.036,0.0,9.8102,0.4658,-0.4144,0.5337
2350,1153,691,34.007,30.181,0.0172,0.0672,9.8327,1.0725,0.2644,1.2366
2355,1157,690,34.044,30.311,0.0115,0.0096,9.8681,-0.288,0.4275,0.6912
2360,1162,692,34.122,30.262,0.0189,0.0135,9.8048,-0.4378,-0.1415,-0.3454
2365,1163,690,34.141,30.2,-0.0121,-0.0199,9.7457,0.6813,-0.308,-0.6378
2370,1178,695,34.071,30.233,-0.0726,0.022,9.75,-0.4039,-0.426,-0.292
2375,1178,698,34.095,30.273,0.0172,0.0553,9.6834,0.3991,-0.5233,0.0842
2380,1173,691,34.101,30.236,-0.0455,-0.0355,9.7918,-0.3069,-0.0324,-0.1963
2385,1178,697,34.102,30.254,0.0346,0.0011,9.8886,-0.0638,0.1516,-0.7365
2390,1181,696,34.164,30.12,-0.0433,-0.0533,9.7525,-0.6051,-0.4258,-0.54
2395,1186,703,34.13,30.25,0.0313,-0.0202,9.8258,-0.7391,0.0129,-0.4832
2400,1198,704,34.144,30.251,0.0401,-0.0738,9.7709,0.7417,-0.2519,1.1247
2405,1192,707,34.177,30.222,0.0564,0.0583,9.8506,-0.4262,0.1257,0.1362
2410,1194,711,34.073,30.268,-0.0195,0.0239,9.8253,-0.3234,-0.2752,-0.4938
2415,1193,709,34.146,30.283,-0.0411,0.003,9.7298,0.4138,-0.3772,-0.1112
2420,1182,720,34.111,30.221,-0.033,0.038,9.7936,-0.2874,0.2457,-0.0689
2425,1184,720,34.122,30.228,0.0932,0.0312,9.7955,-0.4499,0.1636,0.525
2430,1182,723,34.052,30.231,-0.0136,-0.0033,9.8271,-0.2934,-0.1684,0.4738
2435,1184,727,34.08,30.217,0.061,-0.0387,9.8102,-0.7486,-0.1304,-0.0307
2440,1185,734,34.089,30.257,-0.0314,0.0316,9.8101,0.2816,-0.8153,0.6138
2445,1192,735,34.109,30.203,0.0207,-0.0381,9.7746,0.5338,0.7295,-0.4527
2450,1177,739,34.147,30.27,0.0604,0.064,9.7814,-0.2422,-0.1476,0.014
2455,1172,749,34.102,30.149,-0.0465,-0.0101,9.8206,0.8811,-0.1259,-0.209
2460,1169,751,34.158,30.193,0.0009,-0.0451,9.8286,0.4933,-0.6533,0.0606
2465,1174,762,34.118,30.128,0.0335,-0.0006,9.8237,-0.5901,0.3885,0.0759
2470,1164,760,34.123,30.215,0.0147,0.03,9.6983,0.5022,0.9577,0.0715
2475,1173,767,34.142,30.194,0.0238,0.017,9.8086,0.0554,1.121,-0.2885
2480,1163,775,34.104,30.221,-0.0605,-0.0509,9.8301,-0.0866,-0.6721,-0.6145
2485,1154,776,34.132,30.221,-0.0124,-0.0363,9.7574,0.0178,0.7065,0.2514
2490,1153,779,34.041,30.16,0.0903,-0.0126,9.7978,-0.1119,0.7481,-0.31
2495,1151,791,34.13,30.171,-0.0161,0.0673,9.8471,-0.9394,1.3121,0.02
2500,1140,791,34.09,30.188,-0.0015,0.0658,9.8172,-0.0544,-0.1164,-0.6601
2505,1141,804,34.133,30.169,0.0114,0.001,9.7684,0.0197,-0.3182,-0.1592
2510,1142,807,34.132,30.194,-0.0465,0.0433,9.8182,0.3038,-0.0207,0.5988
2515,1148,809,34.133,30.22,-0.0751,-0.0411,9.8432,-0.1938,0.0318,-0.8084
2520,1134,809,34.184,30.17,-0.0107,0.0646,9.8029,0.52,0.2203,0.4125
2525,1132,820,34.198,30.338,0.0632,0.0545,9.8517,-0.4379,0.5831,-0.033
2530,1130,829,34.199,30.294,-0.014,-0.0388,9.8349,0.2357,-0.1321,0.1192
2535,1116,828,34.106,30.223,0.0431,-0.0649,9.8493,-0.0836,-1.2508,-0.0483
2540,1117,842,34.219,30.139,-0.0613,-0.0164,9.8883,0.0159,-0.2161,0.4745
2545,1120,841,34.165,30.239,-0.0398,-0.1378,9.8197,0.5753,-0.0326,0.713
2550,1116,846,34.047,30.244,-0.044,-0.0533,9.9079,0.3733,-0.353,-0.7963
2555,1104,852,34.001,30.214,0.0128,-0.0904,9.7999,-0.1013,-0.3266,-0.9582
2560,1106,854,34.087,30.206,0.0493,-0.067,9.823,-0.6966,0.3287,-0.5759
2565,1112,856,34.081,30.174,0.0392,-0.0377,9.8564,0.1123,-0.5856,-0.3814
2570,1099,857,34.09,30.241,-0.0044,-0.0653,9.7736,0.0643,-0.3809,0.5921
2575,1103,865,34.148,30.187,-0.1027,-0.0432,9.7803,-0.3105,0.2563,0.0509
2580,1098,866,34.164,30.203,0.0564,-0.0308,9.85,0.3982,-0.5507,-0.4179
2585,1095,866,34.082,30.171,-0.0462,-0.0556,9.8316,-0.5356,-0.1034,-0.4768
2590,1085,869,34.133,30.156,-0.096,-0.1064,9.7722,0.8528,0.3416,-0.6943
2595,1087,868,34.126,30.198,-0.033,-0.0145,9.8384,0.4242,-0.5161,0.1548
2600,1079,879,34.048,30.236,0.1348,0.0445,9.7853,0.9713,0.2192,-0.6076
2605,1089,877,34.173,30.208,0.1044,-0.0386,9.8719,0.429,-0.7863,-0.3599
2610,1083,876,34.104,30.216,-0.0891,-0.0828,9.7915,0.8108,0.1434,0.2882
2615,1084,880,34.11,30.303,-0.0125,-0.0256,9.7603,0.7578,1.2886,-0.0541
2620,1078,878,34.141,30.167,0.1268,0.0538,9.7734,-0.3775,-0.0651,-0.0866
2625,1077,877,34.158,30.261,0.0203,-0.0791,9.7727,0.5611,0.094,1.334
2630,1087,881,34.074,30.28,0.0273,0.0423,9.85,0.2203,0.0738,-0.2209
2635,1067,877,34.144,30.182,-0.0183,0.0012,9.8766,0.2202,0.1164,-0.2321
2640,1070,882,34.052,30.262,-0.083,0.0071,9.8193,0.3163,-0.1606,0.1078
2645,1076,882,34.189,30.221,0.0337,-0.0115,9.7899,-1.1086,-0.0664,-0.2589
2650,1070,880,34.141,30.23,0.0697,0.014,9.8064,-0.1808,0.5661,0.6993
2655,1067,875,34.199,30.129,0.0099,-0.0045,9.732,1.0122,-0.5413,-0.2765
2660,1063,882,34.065,30.276,0.1045,-0.0723,9.8788,0.4695,-0.3659,-0.7642
2665,1053,880,34.161,30.282,0.0165,0.0035,9.7016,-0.4841,0.2709,1.2819
2670,1053,878,34.153,30.176,0.0677,0.0215,9.8394,-0.0981,-0.1969,0.248
2675,1040,874,34.118,30.194,0.0553,-0.0058,9.8777,0.7366,0.8974,0.5747
2680,1037,874,34.101,30.113,-0.0365,0.0241,9.8624,0.4141,-0.246,0.9895
2685,1032,873,34.165,30.228,0.0188,-0.0119,9.8084,-0.0927,0.3839,0.5211
2690,1031,875,34.118,30.217,-0.0304,0.0014,9.726,-0.5983,-0.9057,-0.3289
2695,1015,875,34.177,30.132,0.0175,0.0124,9.8829,-0.1608,-0.4045,0.0526
2700,1015,874,34.148,30.242,0.0428,-0.0906,9.7871,0.3605,0.1256,-0.0164
2705,1006,869,34.13,30.263,0.0205,0.0388,9.795,0.0279,-0.1812,0.2301
2710,1009,864,34.063,30.059,-0.0001,-0.0794,9.9133,-0.7339,0.2018,0.0597
2715,991,867,34.167,30.219,-0.0113,0.0028,9.7998,-0.7123,0.5499,-0.3147
2720,989,863,34.03,30.212,0.0889,0.037,9.8488,0.1364,-0.0871,0.2305
2725,976,868,34.092,30.21,-0.0204,-0.0214,9.8066,-0.1515,-0.5156,0.2797
2730,967,865,34.117,30.106,0.0225,-0.0097,9.7749,0.9283,0.306,0.5346
2735,962,863,34.111,30.343,-0.0244,-0.0704,9.827,0.4842,0.3672,-0.4371
2740,958,860,34.04,30.282,-0.1095,0.033,9.8447,0.593,-0.7849,0.107
2745,950,857,34.162,30.211,-0.0341,0.0433,9.8255,0.4504,0.0805,-0.3151
2750,944,855,34.113,30.274,-0.0514,-0.0401,9.703,-0.2226,-1.1911,0.0796
2755,929,852,34.05,30.204,0.008,0.0284,9.9137,-0.3744,1.5829,0.0687
2760,924,855,34.121,30.26,0.1083,0.0509,9.7981,0.2379,0.5448,0.2361
2765,918,850,34.02,30.099,0.0466,0.0311,9.8057,-0.517,-0.1053,-0.4068
2770,914,850,34.131,30.231,-0.0146,-0.0057,9.7206,0.0762,-0.7148,-0.2222
2775,892,857,34.129,30.289,0.0041,0.0605,9.7035,0.315,0.9313,-0.6951
2780,873,850,34.16,30.312,0.0228,0.0001,9.9025,-0.7296,0.3662,0.2011
2785,868,847,34.15,30.229,0.0352,-0.0348,9.7917,0.4439,0.3559,1.1484
2790,872,843,34.117,30.211,-0.0183,0.054,9.7981,0.0115,0.0231,0.0038
2795,854,840,34.119,30.187,0.0684,-0.0378,9.9031,-0.2759,0.1876,0.1661
2800,854,840,34.188,30.22,0.1344,0.0675,9.8524,-0.0566,0.5048,0.2812
2805,834,846,34.136,30.129,0.0215,0.0304,9.8352,-0.0398,0.8816,1.0989
2810,828,845,34.187,30.237,0.0161,-0.0209,9.7531,-0.1757,0.4705,-0.9016
2815,821,837,34.193,30.186,0.0221,0.021,9.7686,-0.6208,-0.1898,0.2765
2820,809,838,34.118,30.283,0.0202,-0.0189,9.8281,0.1453,0.4124,0.4872
2825,802,844,34.034,30.118,0.0467,-0.0744,9.7491,0.4844,0.2049,0.4442
2830,796,841,34.068,30.124,-0.0319,0.1308,9.8422,0.2164,0.5251,0.2808
2835,785,839,34.142,30.26,-0.0094,-0.0033,9.9268,-0.0048,-0.4454,0.0856
2840,783,839,34.056,30.288,0.0365,0.0138,9.8296,0.7402,0.4982,-0.2039
2845,767,833,34.078,30.165,0.0227,0.0339,9.8195,-0.2195,0.2199,0.3425
2850,770,832,34.144,30.279,0.0745,0.0106,9.7665,0.2595,0.8851,-0.2115
2855,764,837,34.078,30.243,-0.0201,0.0234,9.8232,0.2339,0.0571,0.1545
2860,754,833,34.158,30.2,-0.0882,0.0421,9.8928,-0.532,-0.1476,0.8107
2865,748,833,34.144,30.218,-0.0619,0.0622,9.7892,0.2656,-0.616,0.2719
2870,755,829,34.062,30.271,-0.0074,0.0569,9.8213,0.6333,0.0199,0.5036
2875,753,823,34.151,30.235,0.0388,0.0475,9.8123,0.3294,-0.7113,0.0588
2880,746,827,34.08,30.237,-0.0827,-0.0134,9.8007,-0.4719,-0.466,-0.0924
2885,756,823,34.187,30.118,0.0348,-0.0814,9.8135,-0.448,-0.9867,0.9936
2890,752,818,34.016,30.324,-0.0336,-0.0005,9.7,-0.0513,-0.232,-0.1929
2895,747,821,34.153,30.262,0.0743,-0.0022,9.7449,0.6907,0.2988,-0.8908
2900,751,824,34.19,30.323,-0.0158,-0.0234,9.7775,0.8017,0.3145,-0.8973
2905,746,818,34.142,30.27,0.0052,-0.0087,9.8437,-0.9768,-0.2826,-0.1299
2910,753,822,34.01,30.194,0.0503,-0.0673,9.9162,-0.4012,-0.4588,-0.5522
2915,752,810,34.2,30.144,0.0771,-0.069,9.9025,-0.7447,0.0332,1.3741
2920,760,813,34.138,30.237,-0.0066,-0.097,9.8303,0.1741,0.2807,-0.0054
2925,762,807,34.075,30.211,0.0701,0.0306,9.8261,-0.0105,0.2618,0.4354
2930,769,811,34.157,30.173,-0.0879,0.0103,9.8102,-0.2691,-0.2578,-0.5462
2935,775,804,34.095,30.243,0.005,0.0359,9.8296,-0.0107,0.014,0.0766
2940,776,804,34.106,30.162,0.0327,-0.0357,9.7138,0.349,0.2933,-0.7112
2945,791,798,34.131,30.187,-0.0068,0.0039,9.7821,0.3575,0.552,0.1425
2950,793,794,34.06,30.238,0.0151,0.0209,9.8114,1.2256,-0.109,0.0505
2955,808,793,33.984,30.197,-0.0217,0.0194,9.8376,-0.8052,0.1122,-0.459
2960,816,790,34.115,30.249,-0.0239,-0.0444,9.8139,-1.525,-0.2067,-0.5871
2965,817,780,34.143,30.231,-0.0178,0.0183,9.7198,0.7989,0.3803,1.1468
2970,828,781,34.086,30.289,0.0334,-0.0435,9.6727,-0.2784,-0.5678,-0.0536
2975,842,778,34.207,30.207,0.0137,0.0055,9.7386,0.1606,0.556,0.9032
2980,854,776,34.176,30.28,-0.0444,-0.0986,9.8608,-0.36,0.3484,0.3681
2985,861,768,34.07,30.189,-0.0703,0.0624,9.7408,0.3363,0.5214,0.3724
2990,883,765,34.051,30.203,0.0156,-0.043,9.8977,-0.2918,-0.4216,-0.171
2995,887,757,34.037,30.297,-0.0009,-0.0647,9.7738,0.603,0.9603,0.042
3000,896,759,34.154,30.249,-0.0114,-0.016,9.8742,-1.0679,0.5291,-1.1511
3005,913,754,34.064,30.255,-0.0127,-0.0112,9.7703,0.3031,0.7074,0.1421
3010,928,750,34.207,30.294,-0.0118,-0.0418,9.7736,0.4121,-0.0741,0.216
3015,934,749,34.053,30.155,0.083,0.001,9.7756,0.0058,0.6582,-0.358
3020,942,737,34.107,30.199,0.0107,-0.0476,9.7846,-0.4959,-0.2891,-0.4237
3025,965,737,34.104,30.201,-0.068,0.0666,9.8432,-0.2117,-0.4197,-0.6403
3030,977,734,34.184,30.258,-0.1233,0.038,9.7421,0.6402,0.4416,-0.1776
3035,984,727,34.181,30.261,0.042,-0.0068,9.8328,-0.1857,0.309,-0.3381
3040,1009,727,34.109,30.264,0.0324,-0.031,9.8942,0.1018,0.071,1.0216
3045,1013,724,34.057,30.207,-0.0142,0.0034,9.8935,0.323,0.2417,0.6817
3050,1022,717,34.232,30.273,0.0503,-0.0334,9.8439,-0.438,-0.8424,-0.0777
3055,1040,718,33.978,30.268,0.0347,-0.0396,9.7365,-0.5996,0.674,0.0348
3060,1045,707,34.132,30.217,0.005,-0.0306,9.7442,0.237,-0.108,0.3851
3065,1060,712,34.119,30.185,0.0057,0.0113,9.854,0.2254,0.5667,0.8339
3070,1063,707,34.196,30.305,-0.0422,-0.0816,9.7669,0.2206,-0.0495,0.4444
3075,1079,703,34.106,30.322,-0.0847,0.1051,9.8188,0.6153,0.026,0.1306
3080,1097,701,34.091,30.244,0.0133,-0.0222,9.805,0.269,0.0206,-0.2862
3085,1095,700,34.112,30.185,-0.0817,-0.0244,9.765,-0.3059,0.2013,-0.9311
3090,1119,696,34.082,30.15,0.0466,0.0425,9.7914,-0.507,0.0567,-0.4599
3095,1118,695,34.098,30.196,-0.0632,0.0603,9.8113,-0.3744,0.2507,0.7039
3100,1128,693,34.135,30.218,-0.0281,-0.0423,9.8567,0.955,0.2624,0.6898
3105,1138,690,34.128,30.246,-0.0017,-0.0524,9.754,-0.3061,-0.8732,-0.2531
3110,1143,695,34.091,30.246,0.0143,-0.0071,9.7818,-0.3984,0.2643,0.1213
3115,1145,695,34.075,30.237,0.0369,0.0573,9.8375,-0.3545,0.6747,0.5814
3120,1154,690,34.067,30.28,-0.0704,-0.0613,9.798,-0.9898,-0.252,-0.4378
3125,1160,695,34.026,30.186,0.1255,0.0574,9.7126,0.467,0.8495,-0.1618
3130,1156,690,34.15,30.156,0.0024,0.0011,9.7484,0.284,-0.2072,0.5163
3135,1182,691,34.16,30.194,0.0978,0.0189,9.8585,-0.4642,0.026,0.219
3140,1175,697,34.13,30.235,0.0232,-0.0118,9.9339,0.1534,0.6532,0.0331
3145,1183,693,34.138,30.249,-0.0524,0.0827,9.793,-0.553,1.1328,-0.6395
3150,1182,698,34.097,30.174,-0.1373,-0.0645,9.7401,0.113,0.4686,-0.0777
3155,1169,695,34.147,30.266,0.011,0.0594,9.8673,-1.0069,0.0518,0.2595
3160,1179,703,34.176,30.282,-0.0214,0.0299,9.7645,0.6404,-0.2023,0.0682
3165,1187,703,34.156,30.135,0.0346,-0.0063,9.8539,0.1465,0.5701,-0.1945
3170,1185,703,34.133,30.268,-0.0372,0.0668,9.8887,0.4092,-0.2429,0.0449
3175,1191,715,34.142,30.215,0.0371,0.0298,9.9156,-0.9084,-0.0919,-1.2677
3180,1192,709,34.058,30.204,-0.014,0.0405,9.8235,-1.0284,-0.4311,1.001
3185,1194,721,34.103,30.173,-0.0287,0.0609,9.7795,0.4982,0.0265,0.039
3190,1193,716,34.101,30.204,0.0063,0.019,9.8439,-0.7224,-0.6797,0.3338
3195,1188,728,34.21,30.118,-0.0239,0.0323,9.8372,-0.5934,-0.0368,-0.4364
3200,1184,726,34.14,30.32,-0.0557,0.0125,9.76,-0.3519,0.4685,1.214
3205,1177,732,34.13,30.237,-0.0268,0.0474,9.7865,0.0757,0.1193,-0.3013
3210,1185,733,34.055,30.271,-0.0747,0.0521,9.7828,-0.6043,0.7905,0.2889
3215,1174,740,34.127,30.164,0.0081,0.0085,9.8344,0.6197,0.5117,0.6166
3220,1168,752,34.115,30.269,-0.0089,0.035,9.8643,-0.4001,0.6319,0.2247
3225,1173,756,34.097,30.164,-0.0405,-0.0212,9.7519,-0.8351,-0.1342,0.0249
3230,1175,760,34.108,30.271,0.0388,0.0552,9.8993,0.1581,0.1644,0.126
3235,1159,765,34.112,30.285,-0.0054,0.0146,9.8591,0.4985,-0.0271,-0.9677
3240,1167,769,34.162,30.241,0.0293,0.0495,9.811,-0.212,0.1744,0.2327
3245,1159,779,34.079,30.272,0.0521,0.0321,9.8133,-0.7844,0.945,-0.0754
3250,1160,777,34.209,30.284,0.0355,-0.0158,9.7734,-1.2242,-0.5136,-0.3859
3255,1154,781,34.117,30.238,-0.0321,-0.0317,9.7948,0.6498,-0.8198,0.3431
3260,1153,788,34.134,30.21,-0.0259,-0.0202,9.7941,-0.3354,-0.6885,0.2636
3265,1144,797,34.097,30.247,-0.0402,0.0036,9.7796,0.5521,-0.0402,-0.4944
3270,1147,797,34.145,30.18,0.0719,0.0485,9.8129,-0.3915,0.3234,-0.396
3275,1138,807,34.146,30.161,0.0352,-0.0419,9.7231,0.9764,0.3113,-0.4134
3280,1129,807,34.07,30.215,-0.0123,-0.0429,9.7157,0.1136,0.1902,0.1027
3285,1137,814,34.221,30.225,0.0462,-0.031,9.8484,-0.1182,0.8135,-0.4822
3290,1127,824,34.148,30.209,-0.002,-0.0109,9.8342,0.4089,0.5782,0.0221
3295,1120,824,34.151,30.232,-0.007,-0.0631,9.8604,0.4355,-0.6009,0.3839
3300,1130,830,34.12,30.181,0.064,-0.1048,9.7608,-0.681,-0.3276,-0.3218
3305,1125,833,34.055,30.201,-0.009,0.0257,9.7386,0.5425,-0.0384,0.131
3310,1123,836,34.056,30.213,-0.0272,0.1006,9.8281,-0.6999,0.1766,-0.4226
3315,1115,841,34.096,30.185,0.0033,-0.013,9.7808,-0.3445,0.0578,0.2299
3320,1106,849,34.009,30.228,0.0867,-0.0564,9.7972,0.8887,-0.1193,-0.4992
3325,1108,850,34.085,30.23,0.0074,-0.0282,9.8686,-0.842,0.308,-0.2623
3330,1104,858,34.101,30.194,0.0334,-0.0646,9.9298,-0.033,-0.6019,0.021
3335,1102,855,34.173,30.301,0.0118,0.0973,9.7555,-0.2666,0.3301,-0.4337
3340,1100,858,34.159,30.17,-0.1158,-0.0108,9.8772,-0.009,0.4688,1.3097
3345,1087,863,34.063,30.216,-0.0987,0.0202,9.834,0.1906,-0.0887,0.1057
3350,1092,865,34.106,30.249,0.0839,0.005,9.7554,-0.3657,-0.3398,0.506
3355,1095,868,34.016,30.238,-0.0008,-0.1023,9.8312,-0.1983,-0.0306,0.2906
3360,1095,873,34.152,30.155,-0.0584,0.0635,9.9163,0.54,0.3002,-0.1696
3365,1093,874,34.152,30.245,-0.0082,0.0149,9.8253,-0.2399,-0.5556,0.1915
3370,1081,879,34.104,30.221,0.0686,-0.1034,9.836,0.5719,-0.0283,-0.0372
3375,1089,878,34.138,30.258,0.0351,0.0291,9.8134,0.9839,0.054,-0.2879
3380,1091,878,34.128,30.233,0.0275,0.0423,9.8205,-0.5369,0.2581,-0.0225
3385,1092,879,34.127,30.302,0.043,-0.1007,9.8447,-0.6392,0.5607,0.7573
3390,1080,878,34.168,30.287,0.069,0.0566,9.8579,0.6266,-0.0764,0.4903
3395,1071,878,34.132,30.135,-0.0296,0.0409,9.7591,-0.4742,-0.4145,0.129
3400,1069,882,34.095,30.197,-0.0038,0.0246,9.8435,0.5419,0.4934,0.2574
3405,1065,881,34.088,30.183,0.0088,0.0344,9.7796,-0.0347,-0.6809,-0.4124
3410,1064,876,34.113,30.238,0.0136,0.0043,9.7571,0.1008,0.0708,0.2444
3415,1067,886,34.083,30.273,0.0863,0.0543,9.7676,0.261,-0.0977,-0.2013
3420,1065,875,34.087,30.249,-0.0811,-0.0217,9.7803,-0.2215,-0.3342,0.0624
3425,1051,879,34.046,30.176,0.0115,-0.0007,9.799,-0.551,0.461,-0.0843
3430,1062,872,34.095,30.177,-0.0283,0.0237,9.7797,0.9112,-0.8777,-0.4883
3435,1047,881,34.189,30.204,-0.0707,0.0522,9.7707,0.0733,-0.3703,0.4182
3440,1036,882,34.171,30.235,-0.0101,-0.0519,9.7418,-0.8712,-0.3121,-0.2351
3445,1037,877,34.125,30.348,0.0047,-0.0819,9.7743,-0.67,0.5441,0.1081
3450,1024,876,34.167,30.169,0.0439,0.0888,9.791,0.1122,-0.627,-0.0975
3455,1033,873,34.184,30.134,-0.0275,-0.061,9.7769,0.3109,-0.5201,0.6949
3460,1029,873,34.11,30.234,-0.1316,0.0095,9.7723,0.1271,-0.2589,0.0274
3465,1022,874,34.142,30.242,0.0062,-0.019,9.7548,-0.4636,0.807,0.3635
3470,1007,866,34.051,30.226,-0.0943,0.0215,9.7449,0.0027,-0.2153,0.2056
3475,1001,866,34.166,30.188,0.0112,-0.0575,9.8078,-0.1599,-0.6746,-0.7329
3480,1001,865,34.08,30.198,-0.0454,0.0076,9.7562,0.4245,0.3939,-0.5602
3485,985,867,34.099,30.292,-0.0653,-0.0387,9.756,-0.0609,-0.2953,0.0459
3490,981,866,34.097,30.161,0.009,0.0639,9.7482,-0.0798,-0.5445,-0.3824
3495,969,866,34.163,30.267,-0.0455,0.0129,9.8758,0.8,-0.8416,0.7035
3500,963,862,34.141,30.274,0.0863,0.0234,9.8725,0.7496,-0.3406,-0.4563
3505,953,856,34.211,30.236,0.0659,-0.0173,9.8279,-0.3369,-0.2826,-0.8276
3510,938,855,34.122,30.292,0.0492,0.0162,9.9134,-0.2018,-0.1164,0.0392
3515,941,854,34.103,30.214,0.0478,0.0004,9.8664,-0.037,-0.5377,-0.3244
3520,937,853,34.098,30.257,0.0319,0.0666,9.8258,0.6306,-0.2277,-0.7956
3525,909,857,34.193,30.277,-0.0236,-0.0434,9.9482,-0.0062,-0.5893,-0.2598
3530,908,856,34.115,30.212,-0.0513,0.0171,9.8156,0.1584,-0.3641,-0.0152
3535,911,848,34.075,30.197,0.0937,0.0625,9.7576,-0.2061,-0.0072,0.3914
3540,884,850,34.084,30.24,-0.0167,-0.0773,9.8226,0.412,-0.0025,0.622
3545,887,852,34.177,30.219,0.0042,0.0245,9.7571,0.3422,-0.3006,0.0392
3550,877,847,34.007,30.172,0.0618,0.0365,9.7668,-0.1716,0.3698,-1.5104
3555,871,847,34.086,30.3,0.0358,-0.0497,9.8595,0.2282,-0.2965,0.5927
3560,864,842,34.059,30.232,0.0032,0.0936,9.8845,0.1575,0.605,-1.1133
3565,847,848,34.18,30.257,-0.0031,-0.0197,9.7433,-0.2628,0.5845,-0.5289
3570,845,844,34.082,30.17,-0.0074,-0.0599,9.8349,-0.0702,0.5141,-0.1645
3575,825,840,34.119,30.165,0.0191,0.0133,9.8256,1.1166,1.0773,-0.4955
3580,827,837,34.021,30.164,-0.0003,0.0369,9.7506,0.3131,0.4141,0.3576
3585,805,838,34.15,30.266,-0.0487,-0.0317,9.7674,-0.0499,-0.8614,0.491
3590,806,836,34.089,30.183,0.0679,-0.1053,9.766,0.6052,-0.549,0.2651
3595,794,841,34.119,30.138,0.0513,0.0023,9.8411,0.3519,0.2622,-0.189
3600,780,837,34.203,30.223,0.0017,-0.0859,9.8665,-0.359,-0.1648,0.1312
3605,784,837,34.093,30.199,0.0117,0.0281,9.8584,0.2091,-0.8769,-0.1058
3610,779,835,34.099,30.23,-0.0391,0.0124,9.7556,-0.835,0.8206,0.1187
3615,766,836,34.093,30.179,0.0147,0.055,9.7946,-0.8164,0.2609,-0.1852
3620,766,826,34.066,30.24,-0.0437,0.0386,9.7405,-0.312,0.423,0.6682
3625,765,828,34.218,30.246,-0.0613,-0.076,9.8611,-0.1081,0.488,0.5908
3630,761,827,34.107,30.316,0.002,-0.0353,9.807,0.5911,-0.4507,0.2515
3635,755,832,34.112,30.251,0.0501,-0.0161,9.7653,-0.4342,-0.0195,-0.5823
3640,754,829,34.214,30.108,-0.0162,-0.04,9.7749,0.6156,-0.1331,0.3222
3645,755,828,34.112,30.202,0.0441,-0.0001,9.8464,0.1715,-1.3667,-0.4241
3650,750,824,34.133,30.258,0.0154,-0.0156,9.8203,0.1173,-0.9896,-0.2385
3655,757,822,34.189,30.185,-0.026,0.0973,9.7624,-0.0046,0.3109,0.0447
3660,747,823,34.12,30.143,0.0322,0.0326,9.7643,0.3183,0.5315,-0.3621
3665,750,816,34.225,30.227,-0.0624,0.0088,9.8794,-0.1412,0.5246,-0.1831
3670,751,819,34.115,30.162,0.0326,-0.067,9.7811,0.2792,0.3591,0.4725
3675,753,818,34.163,30.258,0.0124,0.0795,9.7733,0.4774,-0.9823,0.285
3680,766,813,34.143,30.21,-0.0244,0.1151,9.7488,0.4094,-0.1582,-0.1191
3685,760,812,34.146,30.216,-0.0879,-0.0028,9.8015,-0.2622,-0.3636,0.0676
3690,769,813,34.068,30.16,-0.0334,-0.0173,9.7714,-0.2978,0.0605,-0.1556
3695,767,801,34.222,30.225,-0.0393,0.0181,9.8303,0.2252,0.1857,0.198
3700,781,802,34.091,30.091,-0.0516,-0.0295,9.8055,0.0545,0.6887,0.2561
3705,787,802,34.125,30.301,-0.043,0.0327,9.8111,-0.8126,0.4461,0.2272
3710,794,800,34.051,30.238,0.0034,0.0434,9.7573,-0.7501,0.6499,0.9282
3715,796,786,34.16,30.255,-0.0006,-0.0335,9.8581,-0.6735,0.0902,0.0802
3720,799,792,34.11,30.211,-0.0454,0.0012,9.8182,0.1776,-0.4323,-0.1901
3725,814,788,34.105,30.152,-0.0278,-0.0176,9.686,1.1356,-0.4689,-0.3742
3730,824,787,34.059,30.227,-0.0568,-0.034,9.8601,0.0742,-0.6249,1.7176
3735,824,778,34.139,30.153,-0.0251,-0.0056,9.8324,0.3391,0.2073,-0.3485
3740,849,777,34.196,30.242,0.0031,-0.0283,9.8963,-1.1229,0.8555,0.6702
3745,853,773,34.204,30.182,-0.0275,-0.0611,9.7477,0.3859,0.1871,0.528
3750,864,772,34.141,30.267,0.0181,0.0436,9.85,0.3739,-0.1905,-0.2
3755,869,764,34.063,30.163,-0.008,0.0003,9.7766,-0.2942,0.9611,0.8499
3760,887,759,34.101,30.206,0.0039,-0.0473,9.749,-0.0715,0.2635,0.1646
3765,899,756,34.132,30.196,-0.0119,0.0876,9.7722,-0.0956,0.2316,0.1793
3770,917,751,34.063,30.208,0.0178,-0.0679,9.8258,0.1072,-0.3892,0.9071
3775,919,752,34.088,30.228,-0.033,0.0435,9.7824,-0.453,-0.2895,-0.2552
3780,943,746,34.075,30.156,-0.0863,0.0654,9.7771,-0.3576,-0.6976,0.0038
3785,950,740,34.097,30.218,0.0167,0.0074,9.8252,-0.3346,0.0178,-0.0932
3790,960,731,34.178,30.259,0.0053,0.0194,9.8146,-0.273,-0.7564,-0.369
3795,980,736,34.174,30.213,0.0787,0.0759,9.825,0.1914,0.6976,-0.2632
3800,987,731,34.14,30.179,-0.0355,0.06,9.8189,-0.2799,-0.2805,0.4203
3805,1002,723,34.104,30.251,-0.0739,-0.0318,9.879,-0.0699,0.5572,0.1457
3810,1018,725,34.169,30.232,-0.047,0.045,9.808,-0.1875,0.934,-0.2937
3815,1027,716,34.21,30.258,-0.0053,-0.029,9.8658,0.4499,-0.3405,-0.2899
3820,1025,719,34.14,30.259,-0.0551,-0.0672,9.831,1.101,-0.0621,0.0639
3825,1048,711,34.052,30.179,-0.0405,-0.0399,9.8538,0.789,0.3602,-0.2888
3830,1063,712,34.213,30.228,-0.0157,-0.0773,9.9133,0.591,-0.3008,-1.0066
3835,1077,702,34.152,30.262,0.0496,-0.075,9.7604,0.0454,-0.7111,-0.6604
3840,1088,701,34.139,30.224,-0.0064,-0.0161,9.8591,-0.4272,0.3098,-0.1554
3845,1091,698,34.112,30.217,0.0377,0.0453,9.8169,-0.2359,-1.6179,-0.2081
3850,1095,701,34.159,30.226,-0.0289,-0.0427,9.7912,0.6705,0.4955,-1.04
3855,1113,699,34.025,30.119,-0.0639,0.0282,9.8523,0.258,-0.5623,-0.0148
3860,1119,692,34.147,30.315,0.0911,0.0113,9.8332,1.0474,0.1937,0.0074
3865,1128,693,34.08,30.162,-0.0239,0.0265,9.7545,0.0904,-0.8572,-0.1541
3870,1136,690,34.188,30.276,0.0442,-0.0112,9.845,-0.0154,-0.4378,-0.6813
3875,1138,688,34.085,30.271,-0.0107,-0.009,9.8913,0.7362,-0.5809,-0.6429
3880,1155,688,34.132,30.2,0.0001,-0.0885,9.8194,-1.1209,-0.5378,-1.2008
3885,1160,690,34.131,30.185,-0.088,0.0425,9.8484,0.2168,-0.7693,-0.338
3890,1158,693,34.147,30.208,-0.0239,0.067,9.8954,-0.3662,0.3369,0.8926
3895,1167,687,34.098,30.157,0.0298,0.0052,9.8453,-0.1047,0.1219,1.1046
3900,1172,694,34.162,30.238,-0.0343,0.0025,9.8929,0.258,-0.3089,-0.3022
3905,1171,697,34.218,30.378,0.0612,0.0175,9.8199,-0.3719,-1.2524,-0.4579
3910,1177,694,34.021,30.245,0.0197,-0.0417,9.7684,-0.7773,0.5917,0.6917
3915,1179,698,34.117,30.205,0.0004,0.0057,9.7751,-0.5498,0.9535,-0.4667
3920,1179,698,34.144,30.276,0.0042,0.0117,9.7142,-0.3275,-0.8164,-0.3273
3925,1178,701,34.099,30.2,-0.046,-0.0126,9.822,0.0945,0.3636,0.086
3930,1191,705,34.055,30.23,0.0639,0.0697,9.8192,-0.67,-0.58,-0.0501
3935,1179,706,34.071,30.286,0.0491,-0.0834,9.839,-0.2729,0.5378,0.5484
3940,1179,713,34.134,30.298,0.0154,0.0428,9.8072,-0.3132,-0.3035,0.1681
3945,1191,715,34.124,30.248,-0.0114,0.0033,9.7857,-0.114,0.2506,-0.3412
3950,1191,721,34.161,30.279,0.0449,-0.0422,9.7135,0.3893,0.9044,-0.0015
3955,1184,721,34.078,30.231,0.0678,-0.0337,9.8038,-0.4621,0.5643,0.4318
3960,1186,727,34.132,30.17,0.0054,-0.0093,9.7897,-0.594,-0.2496,0.0691
3965,1189,724,34.052,30.286,-0.0288,-0.0002,9.8926,0.6135,-0.3735,0.8735
3970,1184,735,34.072,30.343,0.0114,-0.0505,9.8115,-0.7244,0.2718,1.0005
3975,1188,737,34.111,30.219,-0.105,-0.0351,9.842,0.219,0.8718,-0.4837
3980,1170,742,34.169,30.227,-0.0566,-0.0058,9.8824,-0.2204,0.2263,-0.1302
3985,1172,749,34.154,30.188,-0.0281,-0.0459,9.8619,0.3937,-0.4473,0.3154
3990,1161,751,34.113,30.231,0.0157,-0.0687,9.8157,-0.5921,-0.185,-0.901
3995,1166,757,34.105,30.31,0.0513,-0.0232,9.7784,-0.165,0.0673,-0.3515
4000,1161,766,34.111,30.229,-0.0231,-0.0241,9.8219,0.1825,0.331,0.5385
4005,1162,773,34.109,30.205,0.0482,0.0125,9.8929,0.2429,-0.0622,0.6745
4010,1164,772,34.112,30.139,0.0323,-0.0343,9.8856,-0.0276,1.1975,0.3167
4014,1149,775,34.196,30.239,0.0319,0.0642,9.8958,-0.3054,-0.9128,0.7107
4019,1153,784,34.044,30.241,-0.0431,-0.049,9.7998,-0.4084,-0.0211,-0.487
4025,1145,792,34.12,30.201,-0.0204,0.0062,9.7185,0.0387,0.1492,-0.4189
4030,1148,794,34.119,30.13,-0.0328,-0.0059,9.8094,-0.1064,-0.1242,-0.3586
4035,1144,799,34.228,30.207,-0.0826,-0.0093,9.7358,0.2557,0.6797,-1.004
4040,1137,803,34.066,30.256,0.0275,-0.008,9.8386,-0.5752,-0.8949,-0.2095
4045,1139,813,34.138,30.166,-0.0241,0.0309,9.7881,0.0271,0.8146,-0.1743
4050,1127,814,34.117,30.273,-0.006,-0.0527,9.8107,-0.9405,0.8395,-0.3204
4054,1128,825,34.113,30.288,-0.0626,-0.0575,9.727,0.1077,0.1368,0.3721
4059,1130,826,34.218,30.238,-0.0499,0.0445,9.7844,0.4878,-0.095,0.1079
4065,1124,837,34.103,30.208,-0.0141,-0.0806,9.8273,1.1519,-0.2368,-0.0671
4070,1124,838,34.169,30.267,-0.035,0.0373,9.7074,0.0674,-0.0063,0.8913
4075,1115,837,34.136,30.185,0.0299,0.0455,9.7886,-0.2751,-0.7417,-0.4912
4080,1119,848,34.155,30.252,-0.0273,-0.063,9.7997,0.3202,0.6252,-0.2194
4085,1110,852,34.137,30.205,-0.0801,-0.0712,9.7045,0.4792,0.5819,-0.0497
4090,1113,853,34.272,30.201,0.0169,0.0606,9.7941,0.3014,-0.1841,0.064
4094,1107,854,34.142,30.254,-0.0602,-0.0026,9.8229,-0.7979,-1.0271,-0.0387
4100,1102,856,34.213,30.161,0.0286,-0.1283,9.7733,0.3456,0.0768,0.1779
4105,1104,859,34.126,30.22,0.0329,0.0018,9.8121,0.2225,0.4827,-0.9578
4110,1097,863,34.144,30.276,-0.0303,0.0742,9.8387,-0.1918,-0.4639,-0.3665
4115,1097,862,34.261,30.159,-0.0709,0.0422,9.7857,-0.0768,-0.4053,-0.6841
4120,1088,872,34.151,30.234,0.0581,-0.0463,9.8415,0.4399,0.2912,-0.8548
4125,1095,873,34.122,30.186,0.0819,0.006,9.7543,-0.408,-0.3109,-0.0058
4130,1094,872,34.22,30.277,0.0858,-0.0001,9.8138,-0.0331,-0.0692,0.2013
4135,1087,875,34.036,30.263,-0.0187,-0.0328,9.7832,0.7888,0.807,0.9506
4140,1096,875,34.087,30.18,0.0995,0.0562,9.7977,-0.2441,-0.1114,0.1274
4145,1082,874,34.124,30.207,0.0785,-0.0129,9.8471,-0.1046,0.0222,-1.0106
4150,1090,885,34.099,30.225,0.0122,-0.0116,9.7552,0.0978,-0.1176,0.6737
4155,1078,876,34.105,30.213,0.0079,-0.0422,9.8611,0.855,-0.2741,0.7407
4160,1074,873,34.217,30.246,0.0587,-0.0082,9.7501,0.4142,-0.3863,-0.2128
4165,1072,878,34.194,30.239,0.0103,-0.0057,9.7547,-0.8316,-0.3852,0.0371
4170,1068,876,34.012,30.263,-0.0545,-0.069,9.8028,0.0079,0.2816,0.1334
4175,1070,882,34.194,30.259,-0.0522,-0.0574,9.8734,-0.4192,0.2829,0.3578
4180,1064,878,34.123,30.176,0.005,0.0117,9.8189,0.1674,-0.758,-0.6012
4185,1066,876,34.171,30.249,-0.0254,0.0084,9.7515,-0.0378,-0.4548,-0.3276
4190,1051,879,34.094,30.218,-0.0243,-0.0229,9.7799,-0.6792,1.3162,0.8674
4195,1055,880,34.141,30.228,-0.0603,-0.0046,9.8266,0.4747,-0.1843,-0.2851
4200,1049,877,34.145,30.164,-0.0245,-0.0507,9.6974,0.2828,0.4142,-0.2133
4205,1043,880,34.125,30.226,-0.0302,-0.1233,9.9307,0.0755,-0.594,-0.6051
4210,1034,882,34.096,30.183,-0.0388,0.0132,9.8193,-0.2581,0.1434,-0.0815
4215,1034,881,34.162,30.241,-0.0511,-0.0033,9.7711,0.0314,0.2255,0.1577
4220,1031,875,34.1,30.274,0.058,-0.0368,9.8035,0.0563,0.439,1.0235
4225,1025,873,34.193,30.27,0.0867,0.0873,9.7991,-0.4349,-0.6495,-0.1152
4230,1012,869,34.09,30.171,0.0455,0.0028,9.8091,-0.6653,0.5741,-0.7379
4235,1003,869,34.221,30.243,-0.0794,0.0197,9.802,-0.6508,0.3311,-0.2064
4240,1002,865,34.096,30.253,-0.0335,-0.0642,9.8793,0.1919,-0.3813,-0.5461
4245,987,865,34.102,30.193,0.0688,-0.0548,9.8132,-0.5405,0.7826,-0.4131
4250,990,864,34.199,30.247,-0.0694,-0.0269,9.8804,-0.1826,0.4658,0.5
4255,982,862,34.205,30.31,0.0224,-0.0129,9.7438,-0.3027,0.6806,0.1577
4260,972,856,34.201,30.292,0.0482,0.0166,9.8231,-0.4766,-0.0162,-0.0072
4265,960,858,34.117,30.319,0.034,-0.0363,9.7652,-0.1871,0.2271,0.768
4270,955,861,34.179,30.177,-0.0001,0.0,9.9011,0.4419,0.6063,0.5764
4275,948,860,34.194,30.28,0.0427,-0.0162,9.7924,0.3552,0.2051,-1.2082
4280,941,856,34.108,30.188,-0.0827,0.0418,9.8695,0.7732,0.1069,-0.2881
4285,933,855,34.112,30.204,-0.019,-0.0356,9.7527,0.0522,-0.8638,0.134
4290,927,853,34.095,30.353,0.0675,-0.0603,9.8974,0.5815,-0.145,-0.2727
4295,917,854,34.056,30.255,-0.0388,0.087,9.8611,0.0873,-0.183,0.9045
4300,897,854,34.074,30.297,0.0036,0.0345,9.8307,-0.5727,-0.0721,-0.1843
4305,883,855,34.116,30.211,0.1314,0.0114,9.7725,0.347,0.0837,-0.1813
4310,883,847,34.113,30.223,0.0498,-0.0712,9.858,-0.2978,-0.5598,0.7384
4315,871,852,34.124,30.31,-0.043,-0.0374,9.834,-0.1199,1.7096,0.1909
4320,863,847,34.091,30.27,-0.0696,0.0313,9.8342,0.1251,-0.5812,-0.3283
4325,851,849,34.113,30.283,0.004,0.0593,9.8078,-0.7739,0.9243,0.0885
4330,836,844,34.133,30.218,-0.0598,0.0107,9.8298,0.9792,-0.1435,-1.188
4335,830,843,34.115,30.287,-0.0738,0.0386,9.8157,0.5702,-0.258,-0.1087
4340,830,841,34.165,30.229,0.0431,-0.0338,9.7302,0.2961,-0.5903,-0.0926
4345,825,839,34.15,30.26,0.0097,-0.0686,9.9093,-0.9575,-0.5565,-0.0299
4350,804,841,34.044,30.25,-0.071,-0.0372,9.8041,0.5304,0.1456,0.5517
4355,808,841,34.084,30.282,-0.0056,0.0141,9.8122,0.0986,-0.659,-0.6569
4360,798,836,33.975,30.141,-0.0554,-0.0216,9.7904,0.2799,0.331,0.0315
4365,789,839,34.184,30.231,0.0161,0.1103,9.7308,-0.2179,-0.4281,-0.4975
4370,789,838,34.182,30.276,-0.0287,0.036,9.8627,0.3133,0.1593,0.4177
4375,780,834,34.17,30.295,0.0054,-0.0341,9.8276,0.3636,0.4664,1.3997
4380,766,838,34.126,30.324,-0.0116,-0.0033,9.802,0.5148,0.6456,0.241
4385,762,831,34.155,30.27,-0.018,0.0066,9.8136,0.6204,0.3368,-1.1512
4390,761,830,34.156,30.258,-0.0131,-0.0181,9.8335,-0.2656,0.4605,0.5391
4395,755,832,34.09,30.272,-0.0832,-0.0695,9.7582,0.5278,-0.0296,0.0714
4400,757,827,34.137,30.212,-0.1223,-0.0783,9.816,0.2863,-0.4443,0.0893
4405,755,828,34.133,30.207,0.0209,0.0319,9.7625,0.9414,-0.0338,-0.8442
4410,739,827,34.117,30.23,-0.0806,0.0689,9.8076,-0.0137,0.472,0.152
4415,744,819,34.049,30.238,0.0531,0.0348,9.8304,-0.5876,-0.3753,0.9621
4420,742,818,34.115,30.188,0.0253,-0.0521,9.7885,-0.3094,-0.6055,0.1076
4425,736,817,34.072,30.338,0.0403,-0.0117,9.7588,-0.5089,0.2403,0.2142
4430,751,822,34.017,30.207,0.0338,-0.0039,9.7871,-0.1015,0.0098,-0.4235
4435,754,814,34.066,30.153,-0.054,0.1128,9.7802,-0.7222,0.0594,0.5045
4440,752,814,34.112,30.222,0.0092,0.0584,9.8254,0.0314,-0.4007,0.2445
4445,751,812,34.079,30.218,-0.0139,-0.0757,9.7952,-0.9692,0.1797,0.0762
4450,752,811,34.188,30.22,0.0997,0.0335,9.8019,-0.5361,-0.1346,0.3543
4455,769,810,34.212,30.253,0.0492,0.1125,9.8632,0.5057,-0.0373,0.0485
4460,773,803,34.092,30.192,-0.0317,0.0701,9.7976,0.5917,0.0101,0.9795
4465,777,798,34.178,30.268,0.0633,0.048,9.8288,1.1325,-0.0217,-0.5216
4470,785,796,34.149,30.222,0.0219,-0.1185,9.7404,0.8654,-0.2628,-0.2357
4475,790,800,34.175,30.257,-0.0264,0.0384,9.8463,-0.1598,-0.1076,-0.3136
4480,803,790,34.153,30.286,-0.0139,0.0049,9.806,-0.0509,-0.7989,0.688
4485,809,793,34.063,30.146,0.043,0.0172,9.8684,0.0618,-0.4452,0.4291
4490,806,787,34.052,30.23,-0.0635,0.0111,9.7994,0.2185,-0.3778,-0.4954
4495,823,788,34.166,30.247,0.0294,0.0423,9.8032,-0.5815,0.4138,0.7018
4500,839,776,34.11,30.235,-0.0477,-0.0031,9.8829,0.0578,-0.3426,-0.7013
4505,843,776,34.172,30.266,0.0275,-0.0863,9.8797,0.677,-0.5059,0.6615
4510,853,776,34.075,30.287,0.0565,-0.0517,9.8899,0.0545,-0.3406,0.1502
4515,870,766,34.26,30.202,0.0378,-0.0182,9.7773,0.5178,0.226,0.2224
4520,875,761,34.206,30.302,0.0267,0.1186,9.8107,0.1138,-0.0673,-0.352
4525,890,758,34.282,30.372,-0.0397,-0.052,9.8112,0.917,0.2653,0.3636
4530,892,758,34.197,30.328,0.0769,0.0241,9.7872,-0.2034,-0.2021,0.3131
4535,913,751,34.068,30.233,-0.0274,0.0074,9.7165,-0.3164,-0.0215,0.4205
4540,922,748,34.098,30.234,-0.036,0.0099,9.8424,0.5172,0.083,-0.0715
4545,942,744,34.059,30.278,0.0237,0.0184,9.8696,0.5939,-0.6533,-1.0083
4550,953,741,34.121,30.259,-0.0223,-0.0539,9.7805,0.3838,-0.0101,0.9283
4555,964,735,34.115,30.16,0.0787,0.0148,9.7741,0.0777,-0.4352,-0.1234
4560,967,734,34.199,30.252,0.0636,0.0412,9.8011,-1.2547,0.1497,0.2899
4565,993,731,34.137,30.215,0.0201,0.0647,9.7528,-0.9444,0.0325,0.1302
4570,1005,725,34.095,30.19,-0.0442,0.0822,9.8263,0.1371,0.0555,0.0053
4575,1016,721,34.103,30.293,0.0288,0.0197,9.7459,-0.3062,-0.791,-0.7332
4580,1017,715,34.151,30.27,-0.0743,-0.0218,9.8687,-1.0928,-1.0777,-0.1564
4585,1045,717,34.089,30.175,-0.0244,-0.0496,9.7414,-0.2011,-0.6801,-0.2626
4590,1050,710,34.095,30.243,-0.0252,-0.0943,9.8118,0.0863,-0.3138,-0.0613
4595,1058,714,34.045,30.243,-0.0164,0.0441,9.8163,-0.0857,0.7635,-0.572
4600,1079,701,34.008,30.147,0.0262,-0.0293,9.9494,-0.0317,-0.5684,-0.0462
4605,1082,704,34.098,30.157,-0.0337,-0.0293,9.8241,0.0574,0.0075,0.1248
4610,1089,701,34.154,30.159,-0.0805,0.0384,9.8118,-0.2763,-0.1864,0.5533
4615,1099,693,34.108,30.35,-0.0194,0.0314,9.8162,1.2386,0.5409,-0.089
4620,1108,696,34.137,30.195,-0.0004,-0.0725,9.7709,0.7429,-0.6484,0.0354
4625,1123,698,34.086,30.228,-0.0514,0.0432,9.8172,-0.2685,0.4606,0.1705
4630,1128,692,34.162,30.309,-0.0044,0.0045,9.8621,-0.7203,0.2407,-0.004
4635,1144,690,34.131,30.152,-0.0286,-0.0126,9.7993,0.0177,0.13,0.6201
4640,1157,691,34.159,30.259,0.0022,-0.0615,9.8844,-0.1388,0.2653,0.3363
4645,1150,691,34.082,30.295,-0.0748,-0.0204,9.7835,-0.8667,-0.6606,0.1063
4650,1154,693,34.041,30.223,-0.0716,0.0105,9.7747,0.4064,0.3908,0.7068
4655,1162,691,34.207,30.174,-0.0207,-0.0125,9.7417,-1.132,0.7869,-0.6695
4660,1172,690,34.122,30.191,0.0356,0.0271,9.8198,1.1234,0.4777,0.8787
4665,1173,694,34.115,30.179,-0.0939,0.0076,9.8402,-0.0494,-0.1666,-0.3598
4670,1175,691,34.179,30.241,0.009,-0.0036,9.7361,0.0709,-0.7723,0.2731
4675,1179,697,34.067,30.245,-0.0063,-0.0502,9.7936,-0.0214,0.8155,0.9864
4680,1178,696,34.203,30.341,0.0542,0.0147,9.8335,-0.3591,-0.4159,-0.65
4685,1190,697,34.123,30.251,-0.049,0.0513,9.8056,-0.0882,-0.5018,0.8389
4690,1179,704,34.206,30.307,0.0161,0.0951,9.7483,-0.4875,0.4524,-0.6923
4695,1195,702,34.134,30.323,-0.0781,0.0234,9.8356,-0.2625,-0.4846,0.5719
4700,1186,707,34.129,30.274,-0.0402,0.0344,9.8581,-0.7501,0.9642,-0.103
4705,1189,712,34.127,30.255,0.0761,0.0101,9.8675,0.6557,0.1844,1.1616
4710,1195,712,34.016,30.168,0.0792,-0.0626,9.9234,-0.5002,0.4264,0.8397
4715,1195,720,34.144,30.308,-0.0158,0.0136,9.7692,-0.951,-0.9607,-0.3475
4720,1187,723,34.198,30.214,-0.0409,-0.0442,9.7906,0.0319,-0.5503,0.1438
4725,1181,727,34.171,30.305,-0.0009,-0.0503,9.8163,0.6513,-0.6927,-0.1261
4730,1187,723,34.108,30.267,-0.0452,0.0214,9.7492,0.2362,0.9239,0.5509
4735,1180,733,34.09,30.145,-0.0235,0.0471,9.8473,0.3141,0.4584,0.8394
4740,1183,734,34.097,30.221,0.013,-0.0626,9.8026,0.0713,-0.659,0.4167
4745,1185,742,34.141,30.156,-0.0306,-0.0108,9.816,0.3835,0.1995,-0.108
4750,1182,750,34.208,30.227,0.0149,0.0342,9.7005,-0.7561,0.4116,0.6533
4755,1167,757,34.127,30.168,0.0226,-0.0197,9.8577,0.1797,0.2896,0.6632
4760,1163,760,34.123,30.148,0.0068,0.0223,9.7642,0.4936,0.1619,0.0005
4765,1165,758,34.121,30.291,-0.003,-0.0001,9.8407,0.2291,0.2632,0.2279
4770,1161,769,34.233,30.232,0.0056,-0.0597,9.8398,-0.2958,0.4099,-0.3167
4775,1160,772,34.061,30.209,-0.0517,-0.0188,9.8382,0.6889,0.5869,-0.6579
4780,1158,781,34.109,30.353,-0.0089,0.0136,9.8663,-1.0483,0.2017,0.0507
4785,1156,789,34.162,30.211,0.0344,-0.0158,9.8469,-0.0394,0.1987,-0.3657
4790,1138,791,34.11,30.204,0.0938,-0.0303,9.8294,-0.4652,0.2765,-0.6273
4795,1149,797,34.183,30.258,-0.0252,0.0691,9.8146,-0.2593,1.1331,0.0079
4800,1136,799,34.097,30.133,0.0411,-0.0224,9.9244,-0.51,0.7882,-0.2128
4805,1143,807,34.16,30.178,-0.012,0.06,9.74,-0.3463,0.915,1.2622
4810,1136,815,34.083,30.225,0.0309,0.0168,9.7359,-0.157,-0.8824,-0.0941
4815,1139,822,34.192,30.168,-0.031,0.0538,9.7799,0.5729,0.7718,0.5923
4820,1129,821,34.127,30.202,-0.042,-0.1119,9.7808,-0.0283,0.2428,0.5369
4825,1123,830,34.094,30.225,0.0586,0.0318,9.835,0.5479,-0.5587,-0.5202
4830,1123,830,34.032,30.18,0.1023,-0.1458,9.8231,-1.3391,0.0004,1.1024
4835,1114,840,34.11,30.236,0.103,0.0483,9.88,-0.0271,0.3423,0.4163
4840,1120,846,34.126,30.176,-0.039,0.0549,9.7284,0.1365,0.2773,0.4303
4845,1113,845,34.108,30.255,-0.043,0.099,9.7481,0.2273,0.671,0.3735
4850,1112,852,34.166,30.252,-0.0286,0.0283,9.8821,0.7702,-0.2622,0.1541
4855,1105,850,34.134,30.294,-0.0219,-0.0471,9.8517,0.4552,-0.5334,0.2759
4860,1114,855,34.213,30.288,-0.0291,0.1322,9.7898,-0.2156,-0.0638,-0.0928
4865,1097,859,34.16,30.21,-0.078,0.0909,9.783,0.0533,0.0271,0.2271
4870,1103,858,34.097,30.248,-0.0167,-0.0569,9.7571,0.4789,0.3494,0.3236
4875,1087,871,34.122,30.211,0.0032,-0.05,9.7514,-0.8659,0.1552,-0.0678
4880,1094,866,34.157,30.269,0.0161,-0.0073,9.7921,0.2604,-0.1087,0.3727
4885,1098,869,34.165,30.285,-0.0462,-0.0102,9.8012,-0.4724,-1.0962,-0.0681
4890,1095,869,34.168,30.165,-0.0553,0.0481,9.7145,-0.7258,-0.2806,-0.5073
4895,1086,867,34.066,30.26,-0.0617,0.0108,9.8675,-0.2027,0.1481,0.2625
4900,1092,875,34.096,30.337,-0.0029,0.0202,9.7553,0.3976,0.1462,0.1235
4905,1080,876,34.155,30.268,0.0207,0.0522,9.8476,0.8889,0.0178,-0.0314
4910,1075,878,34.143,30.278,0.0401,-0.0346,9.8961,0.0669,0.3306,-0.5663
4915,1079,884,34.165,30.306,-0.0121,0.0088,9.8085,0.9233,-0.5744,0.0397
4920,1078,884,34.157,30.278,0.0434,0.0424,9.952,-0.7921,-0.45,0.116
4925,1080,883,34.176,30.307,-0.087,0.0535,9.7907,-0.9839,0.1106,0.0339
4930,1073,884,34.147,30.289,0.048,-0.0268,9.8078,-0.0743,-0.3725,-0.2616
4935,1071,883,34.183,30.216,0.0486,-0.028,9.6945,0.1365,0.1907,-0.2225
4940,1066,882,34.17,30.282,-0.0543,0.0145,9.802,-0.3031,0.8043,0.4782
4945,1065,886,34.075,30.225,0.0826,-0.0388,9.7879,0.3419,1.2237,-0.0778
4950,1062,880,34.12,30.216,0.0083,-0.001,9.7498,0.2281,-0.0284,0.6631
4955,1051,875,34.193,30.236,0.0971,0.0052,9.7872,0.5204,1.5842,0.4638
4960,1051,881,34.169,30.273,0.0081,-0.0218,9.8085,0.3434,0.253,-1.1692
4965,1050,877,34.097,30.219,0.0009,0.0534,9.8533,-0.6494,0.668,0.7682
4970,1052,878,34.146,30.181,-0.002,0.0067,9.7018,-0.13,-0.2148,-0.1978
4975,1042,876,34.124,30.185,0.0134,0.1447,9.8594,0.0817,-0.1217,-0.1732
4980,1039,871,34.174,30.239,0.0425,-0.0279,9.8579,0.9159,0.0193,0.2324
4985,1026,872,34.173,30.303,-0.0036,-0.003,9.7699,0.0734,0.018,-0.1492
4990,1021,866,34.137,30.266,0.039,-0.04,9.7944,-0.1265,0.4317,-0.4788
4995,1010,868,34.246,30.289,0.0907,-0.129,9.6981,-0.544,-0.8895,0.4633
5000,1000,865,34.106,30.167,-0.0583,-0.0514,9.8103,-0.5019,0.1326,0.165
5005,990,867,34.14,30.227,0.0208,0.0504,9.7693,-0.7739,0.4375,0.3817
5010,993,868,34.1,30.188,-0.0027,-0.0197,9.8466,0.1166,0.0609,-0.3389
5015,985,864,34.059,30.328,-0.0659,-0.0404,9.8422,1.4054,0.2517,0.6231
5020,980,856,34.156,30.185,0.0403,-0.0068,9.9252,0.7562,0.0376,0.2053
5025,974,867,34.135,30.196,0.0124,-0.0568,9.8144,0.4946,0.3365,-0.0298
5030,960,857,34.076,30.288,0.0412,0.1725,9.8926,0.091,0.4983,0.0332
5035,949,860,34.137,30.221,0.004,-0.0544,9.8443,0.173,-0.4414,0.9097
5040,943,854,34.145,30.153,0.0306,-0.021,9.8654,0.1023,0.1236,0.5177
5045,937,855,34.251,30.191,-0.023,-0.0252,9.7847,-0.1866,0.4971,-0.2562
5050,924,852,34.074,30.289,-0.013,0.025,9.765,-0.5522,0.0237,-0.9296
5055,913,852,34.217,30.202,-0.0808,-0.0153,9.7673,-0.3651,0.5484,0.9065
5060,908,848,34.114,30.251,0.063,0.0293,9.9357,-0.0471,-0.4499,-0.4199
5065,899,849,34.075,30.298,-0.0307,0.0072,9.8683,0.2575,-0.1201,-0.1652
5070,881,847,34.156,30.301,0.0725,-0.0031,9.7922,0.4182,-0.1394,-0.6841
5075,876,852,34.181,30.172,-0.001,0.0363,9.8526,-0.7978,-0.0376,0.9519
5080,866,847,34.263,30.218,-0.0506,0.0734,9.809,-0.1447,-0.249,-0.1552
5085,859,844,34.077,30.285,-0.0406,0.0012,9.9025,0.3895,-0.1922,0.0594
5090,853,851,34.074,30.27,0.0098,-0.0608,9.8349,0.2608,0.3967,-1.1938
5095,838,842,34.067,30.135,-0.0596,-0.0655,9.7726,0.0589,-0.6141,0.2349
5100,827,850,34.119,30.238,0.0007,0.0213,9.7955,-0.7056,0.4666,-0.6032
5105,827,847,34.192,30.217,0.0512,-0.0479,9.8394,-0.3642,-0.1473,0.4533
5110,818,842,34.09,30.307,0.0705,0.1054,9.7764,-0.5587,-0.0608,0.196
5115,816,841,34.114,30.237,0.0151,-0.0438,9.8709,-0.354,0.4262,-0.2665
5120,794,837,34.185,30.319,-0.0044,0.0338,9.7466,1.1577,0.1865,0.6656
5125,790,835,34.191,30.229,0.0082,-0.0234,9.7676,-0.6883,-0.7636,0.4776
5130,789,835,34.076,30.227,0.071,-0.0504,9.8191,-0.3578,0.7372,0.2949
5135,787,839,34.134,30.324,-0.0083,0.027,9.7945,-0.5899,0.0642,-1.3401
5140,781,832,34.071,30.186,-0.02,-0.0144,9.7808,0.108,0.3932,-0.687
5145,768,837,34.238,30.298,0.0258,-0.085,9.7852,0.2855,0.4837,0.1828
5150,753,830,34.076,30.231,0.1146,-0.0187,9.8233,-1.108,-0.5858,0.0683
5155,754,832,34.134,30.262,-0.0235,0.0366,9.8483,0.5955,0.4327,0.08
5160,755,832,34.119,30.244,-0.0004,-0.0616,9.8593,0.5517,0.3195,-0.0499
5165,759,826,34.094,30.237,0.0546,0.0343,9.863,-0.0852,0.5458,-0.5036
5170,754,829,34.132,30.203,0.0026,-0.0146,9.7814,0.2409,-1.5283,-0.1485
5175,742,826,34.134,30.274,0.0097,0.0338,9.8436,-0.5872,0.1983,0.6249
5180,754,824,34.16,30.349,-0.0424,0.0569,9.7168,1.1915,-0.0661,0.1306
5185,756,831,34.142,30.258,-0.0477,-0.0556,9.8022,0.5087,0.1686,-0.3293
5190,750,821,34.072,30.263,0.0582,-0.0594,9.8858,0.6931,0.4964,0.2276
5195,754,823,34.108,30.247,0.036,0.0254,9.8114,1.1361,-0.6979,-0.579
5200,750,814,34.093,30.268,-0.0016,0.0525,9.8487,-0.2907,-0.2908,-0.8766
5205,752,819,34.103,30.317,-0.0245,-0.0757,9.8269,0.9673,-0.1476,-0.42
5210,743,813,34.146,30.22,-0.0135,0.0145,9.8709,0.0982,0.5902,0.0499
5215,758,808,34.155,30.215,0.0162,-0.1137,9.8309,0.0511,0.5442,-0.027
5220,762,806,34.164,30.346,0.0514,0.0724,9.799,-0.0466,-0.2828,0.0811
5225,769,806,34.101,30.234,-0.0647,0.0425,9.769,-0.3406,-0.3231,0.27
5230,770,802,34.188,30.136,-0.0766,0.0151,9.8306,-0.2802,-0.2047,0.5305
5235,782,796,34.172,30.188,0.0312,0.0372,9.7215,-0.0007,0.335,-0.5315
5240,788,798,34.117,30.254,0.0297,0.0087,9.79,-0.7221,0.5184,0.4326
5245,806,797,34.116,30.284,0.0645,0.0401,9.8521,-0.314,-0.1034,-0.6518
5250,797,791,34.108,30.344,-0.0551,0.014,9.8632,0.2262,0.2727,0.3748
5255,815,784,34.165,30.303,0.0533,0.0309,9.8793,-0.2745,0.5128,-0.3954
5260,833,777,34.16,30.272,0.04,0.0378,9.7997,0.5471,-0.1335,0.2075
5265,831,783,34.075,30.281,0.0694,-0.0161,9.8786,-0.2866,-0.0679,0.9581
5270,849,780,34.076,30.209,0.0013,-0.0826,9.7079,0.2415,-0.017,-0.266
5275,851,771,34.117,30.3,-0.0265,-0.0569,9.7307,0.1351,0.4741,-0.0259
5280,874,769,34.069,30.258,0.0116,0.0216,9.7627,-0.5464,0.5065,0.6797
5285,876,769,34.112,30.207,-0.0906,-0.0294,9.7703,-0.0348,0.1549,-0.0202
5290,887,755,34.014,30.317,-0.0455,-0.076,9.7808,0.2569,0.6251,0.9276
5295,903,758,34.237,30.249,-0.0338,0.0338,9.8591,-0.1669,-0.0315,-0.0864
5300,923,750,34.005,30.207,-0.0326,-0.0005,9.8665,-0.0948,-1.0555,-0.8858
5305,937,744,34.095,30.15,-0.0554,-0.006,9.8202,-0.2081,-0.3307,-0.1479
5310,943,744,34.14,30.288,0.0232,-0.0523,9.8086,-0.4799,-0.4217,0.3731
5315,957,745,34.137,30.224,-0.0014,-0.0058,9.8432,-0.4254,-0.2041,-0.4288
5320,973,732,34.172,30.19,-0.0877,-0.012,9.8211,-0.9147,-0.067,-0.1953
5325,972,729,34.172,30.197,-0.0208,0.0639,9.7876,0.0865,-0.1246,0.4111
5330,992,727,34.09,30.215,0.0029,0.1047,9.7805,0.1354,-0.4212,-0.1086
5335,1005,719,34.146,30.239,0.0499,0.0233,9.8289,-0.5909,0.3229,0.6002
5340,1016,722,34.152,30.19,0.0322,0.0474,9.8259,-0.3415,-0.3919,0.1725
5345,1029,714,34.096,30.22,0.035,-0.0088,9.7786,0.5784,-0.3034,-0.2632
5350,1040,716,34.196,30.219,0.0739,0.0273,9.7973,-0.1159,-0.2521,-0.7826
5355,1054,712,34.1,30.266,-0.019,0.0289,9.8603,0.1135,-0.0741,-0.0446
5360,1074,709,34.117,30.182,0.0643,-0.071,9.8558,-0.2323,-0.0605,-0.4748
5365,1070,706,34.157,30.302,-0.0252,0.0069,9.7687,0.6913,0.3833,0.0489
5370,1080,706,34.136,30.271,-0.006,-0.0107,9.8224,0.3969,0.02,0.4672
5375,1104,702,34.16,30.116,-0.0359,0.048,9.8251,0.628,-0.2349,0.3483
5380,1105,697,34.125,30.337,-0.0471,-0.0568,9.7938,0.5396,-0.1743,0.163
5385,1117,695,34.124,30.218,0.1264,0.0487,9.806,0.4514,-0.2882,0.3237
5390,1122,690,34.061,30.217,0.0119,0.0082,9.7353,0.1551,0.8217,-0.4827
5395,1140,700,34.174,30.245,-0.0248,0.0124,9.7667,0.239,-0.0852,0.0313
5400,1139,695,34.025,30.253,-0.0412,0.0788,9.7614,-0.3393,0.6294,-0.2968
5405,1149,691,34.124,30.279,-0.0747,0.0152,9.8919,-0.4189,0.3439,0.3495
5410,1153,694,34.163,30.244,0.0494,0.0003,9.7782,-0.0273,0.2518,0.0854
5415,1165,692,34.12,30.255,-0.0822,0.0193,9.7547,1.5939,-0.0595,0.3953
5420,1155,695,34.18,30.213,-0.064,-0.0192,9.7942,0.3696,0.4729,-0.1616
5425,1163,684,34.175,30.185,0.0083,-0.049,9.7069,0.1163,-0.3469,-0.0497
5430,1162,689,34.113,30.26,-0.0192,-0.0609,9.806,0.9349,-0.4097,0.6417
5435,1179,693,34.121,30.206,-0.0842,-0.0034,9.759,-1.1722,-0.0657,-1.1219
5440,1179,694,34.127,30.259,0.0495,-0.0323,9.8745,-0.4376,-0.4257,0.7187
5445,1190,695,34.19,30.219,0.009,-0.074,9.8166,0.3897,0.4479,0.7661
5450,1184,704,34.109,30.197,0.1406,0.057,9.844,-0.2452,-0.0758,-0.4098
5455,1188,703,34.083,30.281,-0.0171,-0.0323,10.002,0.0325,-0.5026,0.5276
5460,1179,701,34.225,30.221,-0.0382,0.0062,9.748,0.4067,0.1159,0.0712
5465,1184,703,34.218,30.358,-0.0451,-0.0182,9.8177,-0.8486,0.6127,-0.355
5470,1187,715,34.196,30.233,-0.0058,0.0063,9.8412,-0.4967,-0.4538,-0.5533
5475,1187,711,34.152,30.235,0.0232,0.0432,9.8343,1.3444,-0.1853,-0.6832
5480,1185,711,34.177,30.202,-0.096,-0.0281,9.8534,0.6543,0.146,0.097
5485,1191,720,34.219,30.29,-0.0213,-0.0568,9.7768,-0.269,-0.3122,-0.7482
5490,1186,725,34.065,30.19,0.0783,0.0197,9.8731,0.6294,0.5898,0.7795
5495,1181,722,34.157,30.282,-0.0473,-0.1151,9.7329,0.2254,0.8583,0.7854
5500,1184,736,34.038,30.263,-0.0016,0.0093,9.8002,-0.6176,0.48,0.5437
5505,1184,735,34.13,30.325,0.0045,-0.1475,9.8604,0.4968,-0.5033,-0.3192
5510,1173,742,34.129,30.216,0.0287,-0.029,9.9171,-0.2627,1.0388,-0.0741
5515,1183,749,34.112,30.185,0.0191,0.0217,9.8183,-0.4939,-0.377,-0.6452
5520,1175,759,34.138,30.209,-0.0324,-0.0153,9.8623,0.2216,-0.5039,0.6943
5525,1166,759,34.154,30.214,-0.008,0.0323,9.6959,-0.1887,0.8437,0.0239
5530,1172,768,34.143,30.221,-0.0326,0.0252,9.7842,0.2339,-0.0662,0.243
5535,1157,769,34.123,30.247,-0.0357,-0.0815,9.7869,0.2748,-0.4766,-0.6475
5540,1157,782,34.039,30.236,-0.1192,0.0067,9.8499,0.4707,0.5302,0.7632
5545,1155,789,34.086,30.31,-0.0298,0.0122,9.7831,-0.3666,-0.1823,0.0267
5550,1158,789,34.055,30.349,0.047,-0.0623,9.8918,-0.4008,0.0125,-0.1239
5555,1143,794,34.177,30.203,0.0809,0.1354,9.7892,-0.0116,-0.8019,0.546
5560,1146,795,34.174,30.204,-0.0048,-0.026,9.807,0.5364,0.1365,0.6976
5565,1139,801,34.108,30.279,-0.0169,-0.0723,9.6855,0.4579,-0.2741,0.7329
5570,1141,807,34.18,30.268,-0.0167,-0.055,9.6846,-0.5274,0.0114,-1.1947
5575,1134,816,34.149,30.211,0.0205,0.0117,9.7886,-0.1771,-0.8255,-0.4533
5580,1127,819,34.055,30.294,0.0198,-0.0477,9.7669,0.7484,-0.2203,-0.3475
5585,1130,821,34.139,30.266,-0.0114,0.0708,9.8458,-0.8151,0.7598,0.1027
5590,1116,827,34.136,30.229,0.0164,0.0185,9.7881,0.1892,-0.0723,0.0794
5595,1121,828,34.17,30.233,-0.0222,-0.0142,9.8002,-0.5307,0.1934,0.6127
5600,1114,839,34.172,30.156,0.0655,0.0932,9.7301,-0.4658,-0.0632,-0.5636
5605,1123,838,34.144,30.23,-0.0205,0.0724,9.8625,1.0281,-0.8377,-0.0859
5610,1108,844,34.124,30.247,0.0044,-0.0304,9.7439,0.4598,0.3972,-0.4869
5615,1106,853,34.167,30.266,0.005,0.1155,9.8085,0.2942,0.1821,-0.0362
5620,1112,851,34.14,30.24,0.0049,0.0179,9.8385,-0.8734,0.5726,0.5788
5625,1096,854,34.119,30.282,-0.0734,-0.0585,9.7471,0.8942,-0.6882,-0.6364
5630,1099,856,34.205,30.262,-0.0346,-0.0984,9.8159,0.2787,-0.9244,-0.2724
5635,1101,866,34.131,30.231,0.0294,0.0174,9.893,-0.4753,0.04,-0.9397
5640,1101,865,34.179,30.304,-0.0268,0.0165,9.7597,1.0181,-0.1685,-0.2343
5645,1091,865,34.159,30.22,-0.0159,0.0596,9.7651,0.3564,0.4814,0.0588
5650,1093,871,34.081,30.281,0.0451,-0.0669,9.8893,-0.312,0.3642,0.7709
5655,1094,874,34.126,30.291,-0.0221,-0.033,9.7446,0.1567,0.8391,0.4806
5660,1094,874,34.09,30.186,-0.0465,0.0638,9.8421,-0.4101,0.4907,0.3504
5665,1085,878,34.046,30.237,0.0408,0.0395,9.7942,-0.3588,-0.2255,-0.0338
5670,1086,874,34.117,30.276,-0.0351,-0.0685,9.7949,-0.2345,0.0947,0.1321
5675,1083,873,34.205,30.125,-0.025,0.0441,9.863,-0.5032,0.3594,-0.0706
5680,1081,881,34.164,30.309,-0.0461,0.0301,9.7753,0.256,-0.1396,0.3588
5685,1081,877,34.125,30.264,-0.0365,0.0138,9.8399,-0.2504,-0.4236,-0.4605
5690,1074,879,34.209,30.297,-0.0034,0.0158,9.8007,-0.0373,0.0874,0.3988
5695,1080,877,34.066,30.32,-0.0214,-0.0665,9.787,0.5896,-0.6366,0.0966
5700,1070,880,34.181,30.268,0.0097,-0.0639,9.8339,0.0422,0.2949,-0.3513
5705,1060,879,34.091,30.248,-0.028,0.0393,9.7288,-0.1856,0.0654,0.6384
5710,1070,880,34.171,30.261,0.1192,-0.011,9.7871,0.0029,0.3603,0.6761
5715,1056,873,34.07,30.244,0.0544,-0.0376,9.8248,0.2006,0.6229,-0.3489
5720,1054,878,34.121,30.316,0.0646,0.0068,9.8248,-0.455,-0.0165,0.5145
5725,1049,878,34.12,30.291,-0.0323,-0.0545,9.8114,0.4881,-0.1708,1.0763
5730,1049,877,34.24,30.23,0.0052,0.0554,9.7833,0.2299,-0.5442,0.468
5735,1044,878,34.248,30.271,-0.072,-0.0471,9.7686,0.9905,0.0383,-0.4755
5740,1040,880,34.165,30.215,0.0493,-0.062,9.7916,0.3699,-0.0551,-0.4641
5745,1036,873,34.084,30.197,-0.0642,-0.0254,9.8672,-0.4025,0.7698,0.8829
5750,1020,867,34.146,30.183,-0.023,0.0011,9.765,0.0313,-0.3117,0.0724
5755,1015,869,34.156,30.246,0.0215,-0.0729,9.859,0.1096,0.0038,1.071
5760,1015,870,34.158,30.299,-0.0345,0.1097,9.8,-0.2352,-0.8436,-0.1486
5765,1005,869,34.141,30.189,0.0705,-0.0421,9.8689,0.4872,0.5618,0.4671
5770,1009,866,34.122,30.309,-0.031,-0.0326,9.7108,-0.5803,-0.3414,0.6447
5775,992,864,34.066,30.259,0.0177,0.0905,9.7986,0.2696,-0.3453,-0.3278
5780,986,867,34.149,30.259,-0.0593,0.0769,9.8594,0.1147,0.16,-0.0215
5785,974,864,34.115,30.242,-0.0345,-0.0061,9.8125,0.2853,0.1156,0.3519
5790,974,860,34.045,30.292,-0.0827,0.0093,9.8712,0.5821,-0.275,-0.5914
5795,973,862,34.131,30.263,0.0084,0.0122,9.7653,0.0696,0.0368,-0.0294
5800,953,856,34.243,30.312,-0.0268,-0.0526,9.8046,-0.3371,-0.3857,0.659
5805,944,850,34.134,30.273,0.0279,0.0338,9.8182,0.0374,-0.6251,-0.8184
5810,933,854,34.201,30.206,-0.0435,0.0374,9.8653,0.4887,-0.819,0.2946
5815,918,852,34.102,30.263,0.0435,0.0133,9.7314,0.0674,0.2437,0.816
5820,910,850,34.134,30.214,-0.0246,-0.0436,9.8248,0.813,0.2595,0.5134
5825,907,853,34.13,30.258,0.0273,0.0667,9.7379,0.0323,-0.2042,-0.4928
5830,898,853,34.065,30.317,-0.0538,0.0484,9.8328,0.5303,-0.8398,0.4542
5835,895,849,34.062,30.174,0.0567,0.0258,9.8112,0.6785,0.761,0.0854
5840,887,851,34.069,30.208,-0.012,0.0951,9.8291,-0.2503,-0.0542,0.1409
5845,873,850,34.194,30.25,0.0185,0.0991,9.8289,0.212,0.5304,-0.1686
5850,859,845,34.037,30.299,-0.0175,-0.0792,9.8492,-0.7719,0.3202,-0.41
5855,858,840,34.082,30.223,0.0033,0.007,9.8191,-0.5118,-0.107,0.75
5860,849,850,34.105,30.197,0.0376,-0.0531,9.7892,0.2667,0.219,-0.4005
5865,839,846,34.17,30.286,-0.0842,0.0066,9.8843,0.6244,-0.2603,0.0056
5870,833,840,34.069,30.188,0.0512,-0.0705,9.8313,-0.6792,-0.3391,0.2038
5875,816,841,34.19,30.302,-0.0355,-0.004,9.9053,-0.0343,0.4516,0.3412
5880,814,835,34.086,30.308,0.0629,0.0134,9.8796,0.1017,0.4184,-0.3057
5885,803,842,34.172,30.199,-0.0181,-0.0261,9.8944,-0.5588,-0.5443,-0.1138
5890,793,842,34.133,30.251,-0.0076,-0.0316,9.7767,0.1339,-0.1618,-0.3082
5895,785,838,34.145,30.328,0.071,-0.0264,9.821,-0.0181,0.0044,-0.2346
5900,787,838,34.173,30.314,-0.027,0.0501,9.814,0.7324,0.3507,0.6971
5905,775,831,34.147,30.337,0.0275,-0.0289,9.8118,0.5,0.2232,0.4632
5910,770,831,34.218,30.248,-0.037,-0.022,9.7839,-0.1237,-0.3651,-0.4353
5915,769,836,34.235,30.266,0.0227,-0.0397,9.8341,0.6996,0.142,-0.4859
5920,755,833,34.149,30.215,0.0238,-0.0767,9.8477,-0.1356,0.1708,-0.4169
5925,751,830,34.223,30.243,-0.0677,-0.0117,9.7735,0.3354,0.2445,-0.2583
5930,749,830,34.16,30.251,0.1457,-0.0354,9.7262,0.0545,0.3652,-0.1771
5935,754,829,34.132,30.236,-0.0587,-0.0743,9.8255,0.0863,-0.2326,0.5335
5940,746,822,34.14,30.301,-0.0974,-0.0713,9.831,-0.8866,-1.0142,0.5885
5945,743,820,34.204,30.249,-0.0488,-0.0345,9.8364,-0.29,-0.5254,0.0158
5950,746,817,34.081,30.174,0.0604,0.0294,9.8188,0.2897,-0.8605,0.2145
5955,744,816,34.168,30.31,-0.003,0.0482,9.8338,-0.2593,0.4297,0.8976
5960,747,819,34.139,30.227,-0.0565,0.0033,9.9134,0.3189,-0.1452,-0.2398
5965,744,815,34.068,30.244,-0.056,-0.0012,9.7786,-0.234,-0.8359,0.2675
5970,762,814,34.201,30.282,0.0082,0.0471,9.7795,0.0554,0.3043,0.3014
5975,760,817,34.191,30.217,-0.0316,-0.0112,9.7925,-0.5119,-0.333,-0.0418
5980,762,806,34.114,30.232,-0.0953,-0.1159,9.8752,-0.3433,0.245,-0.1625
5985,761,811,34.103,30.24,-0.0785,-0.0292,9.8795,0.083,0.977,0.2185
5990,771,805,34.247,30.186,0.0284,-0.0314,9.7436,0.0723,0.1911,-0.7323
5995,768,805,34.222,30.16,-0.0001,0.0293,9.7539,0.3816,0.6022,-0.1895
6000,778,801,34.099,30.284,-0.0374,-0.0651,9.8096,-0.392,-0.084,0.3216
6005,786,801,34.198,30.194,0.0506,-0.0252,9.7887,-0.2752,0.0505,-0.1431
6010,799,794,34.162,30.307,-0.035,-0.0739,9.7834,-0.0698,-0.2814,1.0852
6015,814,787,34.056,30.303,-0.0035,-0.0647,9.8093,0.6037,0.0494,0.1864
6020,821,786,34.191,30.179,-0.0419,-0.0014,9.8567,0.1003,0.4371,-0.6819
6025,831,782,34.187,30.396,0.0022,0.0181,9.8689,0.0579,0.268,-0.2838
6030,834,781,34.167,30.311,0.0379,0.0239,9.8073,-1.3281,-0.9672,-0.1123
6035,840,775,34.051,30.19,-0.0136,0.0015,9.8327,-0.1436,1.0348,0.4171
6040,853,770,34.218,30.178,0.0279,0.0324,9.7285,-0.1743,-0.9135,-0.5074
6045,865,773,34.057,30.334,0.0704,0.0634,9.7219,0.7827,-0.6301,0.2765
6050,886,764,34.186,30.256,-0.0507,0.0004,9.7431,0.0936,-0.2224,-1.0752
6055,893,755,34.176,30.281,-0.0567,-0.0297,9.7824,0.465,0.5028,-0.6685
6060,898,754,34.126,30.2,0.0293,0.0337,9.782,0.0418,0.6223,0.0079
6065,918,755,34.104,30.236,-0.0191,0.0126,9.8185,-0.3239,-0.0801,0.7215
6070,934,748,34.103,30.174,-0.0335,-0.0354,9.7922,0.6832,-0.8075,0.1451
6075,934,741,34.183,30.335,0.0302,0.0955,9.8806,0.6301,-0.4223,0.0853
6080,951,739,34.107,30.279,0.0786,-0.0071,9.7464,0.738,0.6618,0.3021
6085,967,731,34.096,30.263,0.0059,0.1493,9.8187,-0.0192,0.0447,0.1198
6090,984,729,34.176,30.298,-0.022,-0.0243,9.7699,-0.692,-0.3729,-0.0817
6095,984,724,34.098,30.312,-0.0066,0.0593,9.8304,0.3702,0.4754,0.4991
6100,1002,728,34.193,30.332,-0.0478,0.0641,9.8261,-0.6189,0.1219,0.7865
6105,1015,718,34.148,30.287,-0.013,0.0552,9.7842,0.1237,0.5056,-0.7539
6110,1031,718,34.155,30.185,-0.0226,-0.0015,9.7527,-0.2458,-0.1816,-0.0753
6115,1048,710,34.134,30.276,0.0381,0.0128,9.7693,0.2382,-0.2908,-0.3048
6120,1057,710,34.082,30.1,-0.0072,0.0754,9.8767,0.503,0.1445,0.5919
6125,1059,709,34.093,30.277,0.0636,0.0715,9.8596,-0.0089,0.0427,0.1978
6130,1075,706,34.032,30.267,-0.0007,-0.0024,9.8747,0.8044,-0.8452,0.3051
6135,1080,705,34.145,30.246,0.0051,-0.07,9.7491,-0.3833,0.2225,-0.5246
6140,1102,695,34.133,30.24,0.1103,-0.0942,9.8102,0.083,-0.8005,-0.5542
6145,1099,703,34.111,30.194,0.0345,-0.0857,9.817,0.035,-0.6331,-0.5095
6150,1117,695,34.289,30.215,0.0102,-0.0591,9.8878,-0.544,-0.6237,-1.1636
6155,1124,694,34.225,30.223,0.0267,-0.0329,9.6976,-0.2721,0.0712,-1.3454
6160,1139,691,34.084,30.198,-0.0837,0.0012,9.81,-0.7774,-0.1195,0.3173
6165,1138,693,34.177,30.235,-0.0089,0.0061,9.7491,0.4372,0.3655,-0.811
6170,1140,693,34.082,30.27,0.1541,-0.0353,9.9055,-0.0614,-0.1697,0.6649
6175,1155,694,34.141,30.242,0.0779,-0.0156,9.7603,-0.3716,0.1327,-0.4109
6180,1159,692,34.151,30.283,-0.0297,0.1103,9.8256,0.7707,0.7976,0.6124
6185,1168,693,34.07,30.212,-0.0246,0.0302,9.818,-0.0267,-1.346,0.3123
6190,1157,689,34.12,30.193,0.0167,0.0386,9.8649,0.365,0.3789,0.4333
6195,1175,694,34.067,30.297,0.0093,0.046,9.8635,-0.3263,0.0534,-0.9618
6200,1163,691,34.224,30.189,0.0419,0.01,9.7887,0.4061,-0.6089,0.2128
6205,1188,692,34.2,30.32,-0.003,-0.0194,9.784,0.3596,-0.21,0.9532
6210,1187,700,34.242,30.232,0.0227,-0.028,9.8653,0.6832,-0.341,0.0423
6215,1182,698,34.145,30.246,0.0977,-0.0303,9.7999,-0.2706,-0.0618,-0.3463
6220,1189,700,34.14,30.241,0.0341,-0.0675,9.8719,-0.0874,-0.6838,-0.0666
6225,1185,702,34.154,30.281,-0.0767,0.0161,9.7651,-0.9413,0.1594,0.3352
6230,1189,704,34.125,30.266,0.0052,0.0126,9.7963,0.3661,0.0859,-0.2867
6235,1190,707,34.086,30.241,0.0256,0.0173,9.831,0.3342,0.7016,-0.7756
6240,1186,708,34.075,30.309,-0.0259,0.0483,9.8203,-0.1346,0.7018,0.3865
6245,1177,718,34.112,30.25,-0.0378,-0.0693,9.8701,0.0404,0.5512,-0.409
6250,1183,718,34.131,30.261,0.0642,0.0257,9.7933,-0.3188,-0.2338,-0.6788
6255,1190,724,34.143,30.267,-0.0174,-0.0008,9.8762,0.8291,0.0683,-0.0975
6260,1185,729,34.142,30.238,0.0142,0.0216,9.7266,-0.262,0.7113,0.7882
6265,1180,737,34.123,30.289,-0.0549,-0.0662,9.8061,-0.4802,-0.5847,-0.1872
6270,1169,735,34.137,30.293,-0.0689,-0.0192,9.6968,-0.4235,0.5608,-0.3534
6275,1188,745,34.109,30.29,0.0421,-0.0106,9.7521,-0.1374,1.0469,0.2262
6280,1172,748,34.093,30.208,-0.1176,-0.015,9.8163,-0.2306,0.6252,-0.5149
6285,1162,753,34.181,30.221,-0.0373,-0.0048,9.764,-0.2949,-0.2947,0.2583
6290,1175,760,34.077,30.327,-0.0711,-0.1092,9.8094,-0.152,-0.1672,0.3107
6295,1166,764,34.159,30.342,-0.016,-0.005,9.8979,0.1326,-0.0339,-1.0404
6300,1159,768,34.163,30.263,-0.0452,0.0707,9.7935,-0.8515,0.1618,0.5433
6305,1167,776,34.106,30.151,0.0137,0.0503,9.7959,0.1941,-0.0498,0.3041
6310,1158,777,34.181,30.244,0.0772,-0.0214,9.8365,-0.1932,0.1758,-0.0771
6315,1153,785,34.044,30.213,-0.0054,0.0681,9.8108,-0.3978,0.3905,0.2598
6320,1149,791,34.185,30.197,0.0225,0.0165,9.7544,-0.0844,0.0582,0.5898
6325,1141,796,34.134,30.257,0.0669,-0.0095,9.7958,0.2824,0.6224,0.1994
6330,1139,794,34.187,30.258,0.08,0.0024,9.7371,-1.0266,0.2948,-0.2693
6335,1131,810,34.064,30.234,-0.0029,-0.0161,9.7814,-0.0664,0.217,-0.0784
6340,1136,815,34.018,30.233,-0.0309,-0.0913,9.8278,-0.7979,0.219,0.9242
6345,1124,818,34.133,30.246,-0.0188,0.0997,9.8093,-0.0568,-0.5064,0.7918
6350,1123,823,34.146,30.275,0.0373,0.02,9.778,-0.1568,-0.6778,0.5941
6355,1122,827,34.038,30.194,0.0124,-0.0235,9.8094,0.07,-0.1991,-0.4173
6360,1114,832,34.229,30.255,0.0247,0.0136,9.781,0.2483,0.1091,1.3959
6365,1131,836,34.206,30.226,-0.0129,0.0188,9.8698,0.3697,0.3001,0.9438
6370,1117,844,34.244,30.226,0.06,0.0657,9.7959,0.3416,-0.3511,-0.8459
6375,1114,845,34.17,30.162,-0.0906,-0.0475,9.8223,0.8428,-0.8113,-0.024
6380,1115,848,34.157,30.26,0.0809,-0.0134,9.7961,0.3752,0.1957,0.1163
6385,1105,854,34.187,30.251,-0.0243,-0.0078,9.7517,0.5932,0.2845,-0.0409
6390,1102,855,34.132,30.309,0.0762,-0.0022,9.8823,0.7438,0.1946,-0.7359
6395,1103,865,34.129,30.26,0.0561,0.0061,9.755,-0.109,0.1915,-0.7485
6400,1097,862,34.135,30.191,0.0206,-0.0522,9.8504,-0.775,-0.6283,0.255
6405,1090,864,34.146,30.235,0.0151,0.0019,9.8932,-1.0988,-0.6812,0.4015
6410,1097,871,34.095,30.263,-0.0147,-0.0002,9.8848,0.7453,-1.508,0.2368
6415,1082,869,34.15,30.318,-0.0825,0.0598,9.7671,-1.2269,0.196,-0.5044
6420,1091,872,34.176,30.151,-0.0593,0.1183,9.7626,-0.9804,0.5961,0.3267
6425,1089,881,34.054,30.283,0.0481,-0.068,9.8129,0.3106,0.8572,-0.1315
6430,1084,881,34.161,30.281,-0.0142,0.0073,9.7758,0.1133,0.38,0.2883
6435,1088,877,34.123,30.288,-0.0932,-0.0115,9.8249,0.0137,0.4559,0.2832
6440,1080,879,34.14,30.3,-0.0392,0.0612,9.84,-0.0934,-0.8623,-0.5978
6445,1086,884,34.152,30.339,0.0408,0.0382,9.8523,0.1298,-0.1559,0.7112
6450,1082,882,34.108,30.237,0.0189,0.039,9.8897,0.0518,0.4139,0.8294
6455,1071,877,34.117,30.191,0.1454,0.0139,9.6971,-0.0347,0.5047,-0.3973
6460,1071,879,34.189,30.284,0.0876,-0.0649,9.9325,0.2912,-0.0859,-0.3891
6465,1067,878,34.165,30.297,0.0894,-0.0689,9.8168,-0.2144,0.317,0.4049
6470,1057,883,34.112,30.286,0.0329,0.0112,9.8278,0.2895,-0.1943,-0.0538
6475,1067,877,34.11,30.191,-0.0564,0.0383,9.7943,0.2886,-0.4804,-0.5718
6480,1051,877,34.107,30.239,0.0357,0.0506,9.7901,-0.3841,0.2285,-0.2989
6485,1057,879,34.169,30.256,-0.0516,-0.025,9.8415,-0.4886,-0.3831,1.4028
6490,1051,876,34.141,30.119,0.0949,-0.0172,9.8812,-0.1066,0.6769,-0.6804
6495,1044,880,34.123,30.193,-0.0192,0.095,9.8695,-0.2933,0.1467,-0.76
6500,1036,876,34.127,30.24,-0.0139,-0.0695,9.8167,-0.7815,-0.2425,0.1389
6505,1033,877,34.213,30.198,0.0324,-0.007,9.8152,0.9242,-0.4419,-0.8763
6510,1024,876,34.171,30.29,-0.0405,0.0714,9.7845,-0.4355,0.7614,0.0421
6515,1024,872,34.209,30.17,-0.106,-0.0527,9.7994,0.4008,-0.2285,-0.1849
6520,1024,872,34.103,30.212,0.077,0.0426,9.8804,0.2656,0.4702,-0.1541
6525,1018,872,34.227,30.261,0.0465,-0.0184,9.7828,-0.1718,-0.0754,0.3287
6530,1014,871,34.184,30.27,-0.0656,0.0745,9.7805,-0.6915,-0.6437,0.4699
6535,1000,870,34.133,30.3,-0.0037,0.0302,9.7604,-0.2649,-0.1069,-0.714
6540,1000,872,34.045,30.232,-0.0717,-0.011,9.8541,0.0955,-0.6391,-1.2363
6545,981,858,34.075,30.229,0.0566,0.0804,9.8114,0.677,-0.2207,-0.1827
6550,984,868,34.156,30.311,-0.0354,-0.0501,9.7796,0.396,-0.3824,-0.1164
6555,968,863,34.21,30.205,-0.0132,-0.0073,9.8655,0.2035,0.0884,0.4576
6560,971,862,34.239,30.219,0.0285,0.0501,9.7572,0.0547,-0.3277,0.4754
6565,948,865,34.156,30.141,-0.0046,-0.1187,9.8207,-1.3759,-0.1405,0.5386
6570,940,852,34.146,30.161,0.0528,0.0607,9.8226,0.4688,-0.5374,-0.331
6575,937,857,34.076,30.213,-0.036,0.006,9.9262,-0.385,-0.0775,0.1294
6580,934,851,34.243,30.238,0.0306,-0.026,9.8158,0.9491,-0.3045,0.3033
6585,921,850,34.17,30.284,-0.0046,-0.0094,9.8485,0.1292,0.5164,0.231
6590,905,852,34.265,30.293,0.0687,-0.0854,9.7484,-0.2855,0.5445,0.101
6595,893,852,34.131,30.305,0.093,0.0584,9.8003,0.0259,0.3862,0.0229
6600,890,852,34.167,30.227,-0.0363,-0.081,9.871,0.3384,-0.8202,0.766
6605,888,845,34.169,30.317,0.0204,-0.0803,9.7318,0.4367,0.4401,0.0541
6610,857,851,34.113,30.183,-0.0525,0.0151,9.8671,0.5078,-0.5839,0.9185
6615,855,843,34.155,30.165,-0.0147,-0.0199,9.8435,-0.0291,0.3002,-0.0706
6620,860,840,34.2,30.262,0.0722,0.0504,9.8433,0.4562,0.2939,0.8505
6625,845,839,34.157,30.225,0.1015,-0.0093,9.8296,-0.2525,0.3507,1.0726
6630,829,845,34.095,30.215,0.0506,0.0105,9.8563,-0.0682,0.3824,0.758
6635,824,846,34.13,30.248,0.0067,0.0729,9.76,-0.727,-0.3823,0.371
6640,810,839,34.193,30.219,0.0286,-0.0837,9.8793,0.7037,0.3182,0.2463
6645,803,834,34.22,30.214,-0.0121,-0.0577,9.8329,0.6278,-0.04,-0.1805
6650,806,842,34.231,30.231,-0.0548,0.0538,9.7851,0.6367,-0.2208,0.0237
6655,792,836,34.112,30.321,0.009,0.0342,9.7894,-0.6875,-0.4246,0.5503
6660,783,836,34.152,30.204,-0.056,-0.0082,9.8114,-0.5393,-0.1265,-0.2921
6665,778,833,34.197,30.313,0.0424,-0.0126,9.7791,-0.0106,0.4975,-0.2956
6670,771,837,34.104,30.177,0.0196,0.0355,9.7221,0.2641,0.3851,-1.3964
6675,771,839,34.135,30.215,0.0428,0.048,9.7602,0.531,-0.1086,-0.2138
6680,761,833,34.242,30.219,-0.0578,-0.0264,9.8475,0.3957,-0.5507,0.3697
6685,755,826,34.183,30.283,-0.0532,-0.0116,9.8356,-0.5315,0.2967,0.1485
6690,755,830,34.231,30.308,0.0047,-0.0428,9.7971,0.6855,0.1509,0.4067
6695,757,829,34.098,30.272,0.0025,0.0353,9.7551,-0.609,0.3983,-0.5927
6700,755,828,34.099,30.333,-0.0768,-0.0277,9.7449,-0.7188,-1.4356,0.3292
6705,750,823,34.212,30.341,0.0649,-0.0289,9.7907,-0.0715,0.4923,-0.1035
6710,753,825,34.205,30.24,-0.0575,0.0119,9.8701,-0.0862,0.3357,-0.377
6715,740,821,34.162,30.285,-0.0479,-0.0225,9.7823,1.1499,0.7337,-0.1232
6720,752,823,34.176,30.221,-0.0192,-0.0243,9.8177,-0.1406,-1.22,0.0659
6725,748,817,34.156,30.295,0.0525,-0.0097,9.8055,0.3987,0.1696,0.5121
6730,756,812,34.15,30.27,-0.0451,0.0342,9.7689,-0.9181,-0.5147,0.9171
6735,756,815,34.17,30.238,-0.0212,-0.0769,9.8162,-0.4514,-0.535,0.0432
6740,757,814,34.203,30.375,-0.0132,-0.0455,9.787,0.7964,0.4271,0.3614
6745,749,810,34.134,30.204,0.0097,0.0041,9.8613,0.0531,-0.0772,-0.8645
6750,763,806,34.03,30.239,0.0323,0.0719,9.8259,0.6534,-0.4507,-0.7266
6755,767,802,34.134,30.201,0.0254,-0.0189,9.8006,0.5039,-0.6339,0.267
6760,775,806,34.136,30.33,0.0304,-0.0706,9.7574,0.7363,-0.2296,-0.3318
6765,779,799,34.123,30.299,0.0631,-0.0283,9.7997,-0.073,-0.1461,-0.7377
6770,777,797,34.146,30.303,-0.1236,-0.0375,9.7739,0.4133,0.5664,0.6574
6775,795,792,34.123,30.249,0.0536,0.0438,9.7712,0.2637,-0.1215,0.2152
6780,805,792,34.161,30.204,0.0582,0.0563,9.8441,0.4836,0.7248,0.691
6785,814,789,34.19,30.298,0.1165,0.0092,9.7141,0.6627,-0.1747,0.0956
6790,827,784,34.155,30.236,0.0009,0.093,9.6397,-0.8867,-0.328,0.209
6795,836,775,34.178,30.196,0.1146,-0.054,9.7038,0.1775,0.5393,-0.3439
6800,848,774,34.109,30.262,-0.0415,0.0253,9.909,0.2989,0.3086,0.6372
6805,866,771,34.315,30.287,-0.0809,0.0083,9.9093,0.6119,-0.3011,-0.3401
6810,866,769,34.181,30.227,0.0556,0.0009,9.7412,0.4075,0.3162,0.0534
6815,878,762,34.228,30.27,0.0307,-0.0999,9.8072,0.2861,0.08,0.7125
6820,894,757,34.207,30.134,-0.0027,0.011,9.7653,-0.9342,-0.4784,-0.3051
6825,906,759,34.049,30.252,0.1253,0.1226,9.7757,0.2676,-0.25,-1.0256
6830,917,749,34.137,30.347,0.0536,-0.0086,9.7749,-0.3858,0.0298,-0.0008
6835,926,747,34.183,30.259,0.0524,-0.0258,9.7919,0.3916,-0.2729,0.4069
6840,943,744,34.232,30.243,0.0072,-0.0506,9.8592,0.8712,-0.1831,0.7911
6845,948,739,34.193,30.213,0.1778,0.0199,9.8319,0.0442,0.6205,0.7018
6850,974,739,34.21,30.27,0.041,0.0915,9.7552,-0.362,-0.2192,-0.0879
6855,979,729,34.108,30.207,0.043,0.0101,9.742,-0.8429,0.3554,-0.3043
6860,996,735,34.083,30.342,0.0669,0.0068,9.8279,-0.0068,-0.201,0.1141
6865,1003,719,34.177,30.207,-0.007,0.0124,9.8123,-0.2022,-0.6236,-0.1937
6870,1012,722,34.281,30.164,-0.0141,0.0864,9.7373,-0.5088,-0.4351,0.0489
6875,1016,720,34.213,30.2,-0.0262,0.0194,9.8232,-0.1259,-0.2107,0.0492
6880,1044,712,34.136,30.249,-0.055,0.0015,9.787,0.2051,1.1059,-0.1722
6885,1052,708,34.128,30.206,0.0254,0.0016,9.8032,-0.864,0.6431,0.3365
6890,1058,706,34.078,30.173,0.0831,0.0472,9.8408,0.3729,-0.1683,0.2515
6895,1078,702,34.114,30.234,-0.0229,-0.0179,9.8028,0.4337,-0.8909,0.4005
6900,1082,703,34.085,30.182,0.0304,0.0123,9.8154,0.8723,-0.2191,0.2776
6905,1088,693,34.181,30.295,-0.0282,-0.0019,9.879,0.6651,0.19,0.1608
6910,1097,699,34.162,30.339,0.0064,0.0795,9.7496,0.2306,-0.722,0.2255
6915,1113,698,34.186,30.218,-0.0502,0.0048,9.8418,-0.2251,0.8942,0.6126
6920,1128,696,34.177,30.38,0.0253,0.0291,9.8686,-0.1333,-0.4355,-0.5339
6925,1135,692,34.189,30.246,0.0479,-0.0213,9.7214,-0.0524,-0.3271,-0.5764
6930,1126,689,34.143,30.266,-0.0457,0.0376,9.8457,-0.8813,-0.4931,0.1413
6935,1141,688,34.223,30.302,0.0204,0.0386,9.8536,-0.1212,-1.567,-0.674
6940,1150,686,34.086,30.263,-0.0569,-0.0308,9.8289,0.4713,0.5226,-0.2138
6945,1164,689,34.184,30.258,-0.0607,-0.0123,9.806,-0.3696,-0.614,-0.2533
6950,1170,692,34.213,30.225,0.063,-0.1211,9.764,1.2825,-0.6294,0.5514
6955,1172,691,34.111,30.285,-0.1199,0.0487,9.8187,-0.5352,0.7359,1.1104
6960,1172,695,34.083,30.215,-0.0286,0.0011,9.8721,0.0538,0.0319,-0.1658
6965,1177,690,34.117,30.346,-0.0104,-0.0061,9.7864,-0.4312,0.345,0.4552
6970,1170,693,34.161,30.207,-0.0569,0.0336,9.8243,-0.6278,0.3065,-0.7945
6975,1173,700,34.23,30.283,0.0555,-0.0433,9.8153,-0.2371,0.1017,0.1162
6980,1188,701,34.116,30.223,0.0984,-0.0144,9.7593,0.1693,-0.459,-0.458
6985,1184,702,34.113,30.281,-0.0197,-0.0589,9.7539,-0.7724,-0.7783,0.0322
6990,1187,706,34.217,30.224,0.0781,0.0001,9.8019,0.2891,-0.139,-0.5382
6995,1184,702,34.136,30.19,0.0336,-0.0182,9.8412,-0.099,0.8801,-0.7253
7000,1186,710,34.096,30.224,-0.0024,-0.0565,9.8831,0.127,0.1109,0.0643
7005,1180,711,34.208,30.233,-0.0742,0.0878,9.794,0.0004,-0.5201,0.6424
7010,1183,721,34.228,30.327,-0.053,0.0469,9.8296,-0.0213,-0.5015,0.3663
7015,1194,721,34.162,30.233,-0.1158,0.0073,9.8491,-0.4254,0.3284,-1.1913
7020,1181,727,34.164,30.251,0.0007,0.0574,9.7613,0.2187,0.0475,0.2651
7025,1189,728,34.182,30.238,0.011,0.0191,9.8512,-0.131,0.0672,0.4846
7030,1176,733,34.097,30.276,-0.0106,0.0176,9.7946,0.2926,0.0355,0.0011
7035,1180,742,34.087,30.31,-0.0894,0.029,9.8266,-0.0459,-0.1085,-0.5739
7040,1176,742,34.092,30.314,0.0295,0.01,9.8262,1.0593,0.3637,-1.418
7045,1181,750,34.12,30.314,-0.0174,-0.0189,9.8392,0.0636,-0.4515,-0.8674
7050,1169,755,34.186,30.233,0.0294,0.0057,9.9125,0.4024,0.1189,0.6017
7055,1173,758,34.106,30.24,0.0681,-0.0874,9.8253,-0.2645,0.2678,-0.3624
7060,1167,763,34.152,30.285,0.0125,0.0185,9.8517,-0.1819,0.4291,1.2849
7065,1159,774,34.058,30.261,0.0837,0.0128,9.8219,-0.3312,-0.6489,-0.003
7070,1156,775,34.123,30.234,0.011,-0.0333,9.854,-0.4498,-0.1664,1.079
7075,1150,784,34.202,30.223,0.0238,0.0477,9.737,-0.5802,0.5694,-0.4077
7080,1150,786,34.118,30.301,-0.1116,0.0091,9.8632,0.7355,-0.1455,-0.1618
7085,1146,788,34.173,30.253,0.0308,-0.0012,9.886,-1.567,0.2964,1.0716
7090,1140,796,34.227,30.271,-0.0078,0.0394,9.7484,0.2778,0.1527,-0.0779
7095,1141,800,34.153,30.379,0.0141,-0.0235,9.8169,-0.8638,-0.4057,-1.1459
7100,1137,809,34.126,30.256,-0.0475,-0.0996,9.8498,0.2693,-0.3225,-0.4298
7105,1133,814,34.146,30.22,0.0801,0.0744,9.8053,0.7145,-0.8328,0.6955
7110,1123,821,34.069,30.258,0.08,-0.0615,9.761,-0.3753,-0.1914,-0.1935
7115,1131,825,34.148,30.173,0.0752,-0.0017,9.7941,0.5006,-0.5797,0.5372
7120,1122,822,34.104,30.175,-0.0462,0.0205,9.874,-1.095,-0.1488,-0.5217
7125,1113,832,34.154,30.31,0.1208,-0.0804,9.8208,-0.1599,-0.113,1.3084
7130,1119,838,34.163,30.264,0.0486,-0.0654,9.7228,-0.1954,-0.8159,0.2524
7135,1113,845,34.208,30.376,-0.072,0.0194,9.7324,-0.1603,0.5094,0.157
7140,1115,844,34.197,30.251,-0.0047,0.0864,9.8058,0.2411,1.2232,0.3313
7145,1113,846,34.07,30.234,0.0638,0.0022,9.7638,0.0958,0.3615,0.5299
7150,1118,854,34.064,30.301,0.0159,0.0368,9.7289,0.0453,-0.2783,0.7314
7155,1103,855,34.191,30.285,-0.0383,0.0755,9.8015,0.5083,0.7443,0.1173
7160,1102,861,34.18,30.192,0.009,-0.0393,9.7984,-0.0851,-0.8159,-0.752
7165,1101,862,34.134,30.254,-0.0237,-0.0619,9.7697,-0.3285,-0.043,-0.7716
7170,1100,866,34.231,30.212,-0.026,0.0555,9.8644,-0.1515,0.5428,0.2052
7175,1087,869,34.124,30.318,-0.1145,0.0591,9.8364,-0.5696,-0.672,-0.3984
7180,1099,867,34.168,30.251,-0.0451,-0.012,9.7885,0.1501,-0.3353,-0.9355
7185,1088,873,34.139,30.308,0.0038,-0.0311,9.8308,0.5285,-0.1157,0.6702
7190,1096,870,34.238,30.306,0.0142,-0.008,9.8356,0.0341,0.0864,-0.0057
7195,1086,876,34.147,30.266,0.008,-0.051,9.7908,-0.4038,-0.1412,0.2425
7200,1090,874,34.093,30.187,0.0109,-0.0236,9.7167,-0.2901,0.086,0.1433
7205,1083,874,34.076,30.219,-0.0226,-0.0755,9.7872,-0.1076,1.1661,0.0737
7210,1071,876,34.114,30.242,0.0168,0.0644,9.7603,0.1158,-0.2855,-0.4779
7215,1074,882,34.227,30.28,0.0035,0.0209,9.7738,0.8613,-0.535,-0.3962
7220,1072,880,34.254,30.222,-0.0349,0.0316,9.7899,-0.1952,1.6254,-0.2087
7225,1071,882,34.107,30.242,-0.0491,-0.0452,9.8573,-0.0522,0.0392,0.3226
7230,1069,886,34.171,30.338,-0.0024,-0.0984,9.826,-0.9966,-0.9398,0.358
7235,1066,881,34.138,30.242,0.0706,0.021,9.801,-0.1378,0.6287,-0.9986
7240,1062,878,34.153,30.258,-0.0077,0.0283,9.8286,0.2228,-0.1432,-0.1389
7245,1052,880,34.215,30.184,-0.0548,-0.01,9.7837,-0.6968,0.2578,0.6702
7250,1054,877,34.185,30.219,-0.0689,-0.0093,9.7613,-0.3969,0.536,-0.2562
7255,1050,876,34.162,30.293,0.0376,0.0545,9.7839,0.4459,-0.9021,0.2103
7260,1042,882,34.185,30.349,0.0521,-0.0033,9.8608,0.4163,-0.3057,-0.3477
7265,1049,877,34.203,30.243,0.0158,-0.0556,9.8406,-0.1881,0.3781,0.519
7270,1035,873,34.04,30.16,-0.0079,-0.0483,9.7805,0.0329,0.8331,-0.2571
7275,1029,873,34.079,30.355,-0.0547,-0.0024,9.8793,-0.9633,-0.2955,0.5367
7280,1026,877,34.198,30.231,-0.0074,0.1181,9.8273,0.1689,0.1604,0.6001
7285,1028,871,34.16,30.337,0.0256,0.0655,9.7955,-0.4437,0.3887,-0.1761
7290,1017,871,34.073,30.324,-0.0163,0.0759,9.7426,0.1181,-0.5533,0.0467
7295,1002,867,34.06,30.263,0.0406,0.0886,9.7823,-0.3955,-0.1606,-0.4559
7300,997,865,34.05,30.245,0.0732,-0.0265,9.7606,-0.5179,-0.3641,-0.1509
7305,994,867,34.155,30.272,-0.0252,-0.0297,9.8313,0.2649,-0.0393,0.339
7310,989,866,34.202,30.305,-0.0147,0.0419,9.8146,-0.5327,-0.2409,-0.2845
7315,984,863,34.136,30.274,-0.0023,0.1433,9.8288,-0.7881,0.0506,0.578
7320,971,862,34.187,30.133,-0.0061,-0.0078,9.9035,0.3491,0.6776,0.5017
7325,945,861,34.125,30.28,-0.0227,0.0307,9.8133,-0.2013,0.0067,-0.0
7330,950,855,34.131,30.193,0.0597,-0.0143,9.8286,-0.2248,-0.6612,0.1195
7335,932,860,34.12,30.272,-0.084,0.0454,9.7478,0.2762,-0.5343,0.2793
7340,935,852,34.153,30.257,0.056,-0.034,9.8323,-0.3623,0.1758,0.3216
7345,925,855,34.297,30.28,0.0675,0.0034,9.8556,-0.5214,-0.7959,0.4896
7350,923,848,34.218,30.282,0.0563,-0.007,9.7445,-0.1903,-0.5217,0.1079
7355,910,849,34.13,30.254,0.0419,-0.0198,9.8597,-0.8991,-0.704,-0.3641
7360,894,853,34.126,30.158,0.0362,0.0261,9.7223,-0.0164,-0.1166,-0.2745
7365,890,854,34.173,30.229,0.0272,-0.0445,9.7155,-0.3123,0.1412,-0.0148
7370,884,846,34.174,30.261,0.033,0.0114,9.7374,-0.2484,-0.3242,0.5664
7375,865,843,34.208,30.243,0.001,0.0219,9.8097,-1.3641,0.3575,0.2384
7380,868,848,34.097,30.283,-0.0783,-0.0854,9.7899,0.578,-0.8391,0.7581
7385,844,843,34.106,30.266,-0.0067,0.0334,9.9017,0.2848,0.7673,-0.2406
7390,841,844,34.097,30.211,-0.0189,-0.0012,9.8331,0.6271,-0.1687,-0.3051
7395,834,843,34.2,30.39,0.0358,-0.0631,9.8297,-0.1781,-0.8622,-0.5882
7400,820,836,34.098,30.239,-0.0724,0.0365,9.8259,0.3612,0.6593,-0.143
7405,813,838,34.09,30.347,-0.0337,0.0244,9.7934,0.4097,-0.4177,0.2189
7410,809,841,34.164,30.303,-0.0443,0.0949,9.7802,-0.5912,0.6352,0.176
7415,797,839,34.16,30.286,0.1034,0.0347,9.7875,-0.0317,0.0603,-0.8541
7420,794,836,34.146,30.304,0.0431,0.0441,9.7113,-0.3139,0.0011,-0.1619
7425,779,843,34.21,30.355,0.0758,0.0317,9.9347,0.0106,0.0065,-0.3259
7430,785,837,34.298,30.284,0.0126,-0.0575,9.8305,-0.3805,0.8879,0.1094
7435,787,836,34.114,30.238,0.0333,-0.0365,9.8451,0.1692,0.2487,-0.5034
7440,770,838,34.167,30.292,0.0272,-0.0413,9.8053,0.2641,0.1607,-0.1276
7445,758,831,34.116,30.22,-0.0003,0.0069,9.8378,-0.2056,-0.0193,-0.931
7450,754,833,34.128,30.288,0.0031,0.0316,9.7857,-1.0194,0.0318,0.2951
7455,743,824,34.132,30.275,-0.1179,-0.0508,9.8582,0.301,-0.5719,0.0205
7460,758,829,34.181,30.197,-0.0159,0.0554,9.951,-0.3448,0.0859,0.6554
7465,743,826,34.164,30.25,0.0161,0.0178,9.7986,-0.3023,0.5217,-0.1926
7470,746,827,34.138,30.324,0.0079,-0.1253,9.8467,0.6624,-0.261,0.5268
7475,744,819,34.177,30.289,-0.0766,-0.0208,9.8044,0.1624,-0.4647,-0.1675
7480,745,821,34.16,30.249,-0.0528,-0.0424,9.8255,1.0203,0.3208,0.218
7485,747,822,34.094,30.287,0.0423,-0.0286,9.8499,-0.6399,0.7547,0.0423
7490,745,822,34.1,30.29,0.0525,0.0006,9.8311,-0.0112,0.8276,0.3545
7495,759,819,34.19,30.235,-0.0302,-0.0353,9.7356,-1.4033,0.2595,0.499
7500,756,814,34.145,30.3,0.0048,-0.0627,9.8213,0.2431,-0.2031,-0.0266
7505,754,812,34.101,30.187,0.0074,-0.0325,9.8302,0.3528,-0.3235,0.1755
7510,756,809,34.178,30.24,0.0052,0.0838,9.8192,0.2627,-0.2783,-0.0658
7515,768,808,34.085,30.211,0.0202,-0.0434,9.7281,-0.378,0.0725,0.143
7520,763,805,34.143,30.17,-0.0087,0.0101,9.8479,-1.0447,-0.0707,-0.224
7525,783,802,34.155,30.282,0.0235,-0.0293,9.8275,0.3258,-1.0056,0.5236
7530,782,799,34.205,30.248,-0.0369,-0.0443,9.7404,-0.4222,-0.5267,-0.685
7535,798,799,34.123,30.227,0.0015,-0.0548,9.8937,0.7322,-0.5204,0.2143
7540,802,795,34.128,30.251,0.1307,0.0421,9.8121,0.1274,-0.2386,0.3111
7545,806,792,34.076,30.307,0.0494,-0.0803,9.7826,-0.3252,-0.6523,0.0927
7550,820,787,34.159,30.249,0.1126,-0.0225,9.8203,-0.1397,-0.3458,-0.3874
7555,817,782,34.234,30.331,-0.0122,0.0637,9.8023,-0.9264,-0.1399,-0.3109
7560,835,771,34.129,30.222,0.0145,-0.0876,9.7708,0.3954,-0.4515,-0.6021
7565,847,775,34.097,30.202,0.0187,-0.0322,9.8789,-0.0207,0.0386,0.3491
7570,865,768,34.197,30.212,-0.1104,-0.1005,9.8415,0.1807,-0.0301,-0.0664
7575,876,768,34.111,30.212,-0.0395,-0.0112,9.7599,-0.5872,-0.2875,-0.3313
7580,887,768,34.145,30.326,0.06,-0.0556,9.7712,-0.8067,0.6371,1.0263
7585,900,756,34.103,30.274,-0.0367,-0.0476,9.8071,0.8034,0.0826,-0.4694
7590,910,756,34.212,30.259,0.0485,0.0875,9.7352,0.0038,-0.2523,0.7215
7595,917,744,34.186,30.279,-0.0095,0.0579,9.8082,-0.1387,0.2366,1.0837
7600,928,743,34.128,30.267,0.0256,-0.0117,9.9286,-0.1564,0.5549,0.8369
7605,945,745,34.163,30.244,-0.0378,0.0405,9.8267,0.4031,0.5537,0.151
7610,952,738,34.093,30.265,-0.0741,-0.0476,9.728,-0.4275,0.4475,0.7168
7615,964,731,34.19,30.157,0.0366,-0.0147,9.858,-0.5235,-0.936,0.1107
7620,986,736,34.169,30.236,-0.0127,0.055,9.8583,0.631,0.1565,0.54
7625,991,726,34.227,30.255,-0.022,0.0638,9.8369,0.762,-0.0319,0.5319
7630,1017,724,34.04,30.271,0.0182,-0.0159,9.891,-0.732,-0.8646,-0.539
7635,1025,718,34.195,30.333,-0.0644,-0.0779,9.8045,0.04,-0.2911,0.1919
7640,1037,714,34.067,30.279,0.0232,-0.0347,9.7693,-0.4819,0.6564,0.4043
7645,1048,714,34.209,30.29,-0.0017,-0.0138,9.7474,-0.541,-0.6553,-0.1179
7650,1053,707,34.226,30.234,0.034,-0.0574,9.7759,0.7927,-0.5718,0.0419
7655,1064,711,34.137,30.328,0.0539,0.0728,9.8513,-0.1743,-0.5976,0.1987
7660,1080,708,34.155,30.352,0.0385,-0.0406,9.8673,0.2904,0.2021,1.2396
7665,1087,707,34.152,30.227,-0.0364,0.0463,9.8491,-0.4855,0.5473,-0.4676
7670,1088,701,34.252,30.231,0.0505,0.0161,9.7659,0.6876,0.804,0.5174
7675,1114,693,34.115,30.246,0.0627,0.0842,9.7919,0.7903,-0.5067,-0.3071
7680,1112,694,34.176,30.279,0.0206,0.0729,9.8348,0.1655,-0.2532,0.0353
7685,1120,690,34.186,30.3,0.0251,-0.0299,9.8016,0.0692,-0.472,-0.7224
7690,1138,693,34.109,30.214,-0.0663,0.0259,9.7666,-0.26,-0.2777,-0.0173
7695,1134,694,34.202,30.275,0.1132,-0.0052,9.7829,0.0118,0.1189,-0.1295
7700,1143,693,34.06,30.352,0.0634,0.1241,9.8446,-0.8706,-0.7918,0.1879
7705,1151,689,34.155,30.28,0.0849,-0.0863,9.8069,-0.175,0.2033,-0.2827
7710,1156,690,34.256,30.29,-0.0128,-0.0368,9.7804,-0.4251,-0.2429,-0.6252
7715,1167,689,34.128,30.232,-0.0101,-0.057,9.7657,0.1853,0.0727,0.5757
7720,1167,687,34.203,30.287,0.0213,-0.0525,9.8485,0.3474,-0.0491,-0.5295
7725,1174,691,34.136,30.149,0.0412,0.0313,9.7836,-0.6514,0.5038,-0.053
7730,1180,702,34.201,30.35,0.0219,0.0171,9.7734,0.261,-0.1518,0.7403
7735,1178,690,34.152,30.322,-0.0648,-0.0412,9.92,0.6204,0.4897,0.0022
7740,1181,696,34.109,30.355,0.0865,-0.046,9.7999,1.0132,-0.3508,0.0703
7745,1188,701,34.119,30.312,-0.0054,0.0337,9.8426,-0.2121,-0.2016,0.3842
7750,1183,699,34.145,30.331,-0.0385,-0.0709,9.8415,-0.031,-0.7806,-0.2828
7755,1188,705,34.105,30.275,0.0564,0.0317,9.8375,-0.5952,-0.0475,-0.6671
7760,1188,711,34.204,30.239,0.0033,-0.0113,9.8271,0.5643,0.5165,0.1898
7765,1182,707,34.185,30.221,0.0013,0.0994,9.7705,-0.7989,-0.6066,-0.5528
7770,1183,710,34.147,30.262,-0.0142,-0.0256,9.795,0.6406,0.3685,0.2476
7775,1182,716,34.12,30.258,0.0071,0.0009,9.7611,-0.7424,-0.4605,0.4357
7780,1185,725,34.273,30.338,0.0241,-0.0096,9.7802,-0.2604,-0.7836,-0.2343
7785,1184,725,34.165,30.365,0.0686,-0.0811,9.7157,0.166,-0.2062,0.3108
7790,1174,732,34.135,30.253,0.034,0.0565,9.7932,0.2544,-0.2526,0.0906
7795,1182,734,34.147,30.297,-0.0045,0.0905,9.8126,0.3398,0.0568,-0.397
7800,1172,740,34.155,30.268,-0.0434,0.0685,9.8621,-0.6005,-0.455,0.047
7805,1171,747,34.219,30.304,-0.0159,-0.0833,9.8157,0.0516,0.0447,-0.5685
7810,1171,754,34.201,30.284,0.0706,-0.0652,9.7949,0.0435,-0.1896,0.312
7815,1169,755,34.196,30.286,-0.0537,-0.1498,9.8163,-1.0337,0.4317,0.7794
7820,1164,762,34.174,30.186,0.0393,-0.0081,9.7823,0.1117,0.0903,0.2248
7825,1166,769,34.239,30.32,-0.0385,0.027,9.704,0.3685,0.0228,-0.3393
7830,1164,771,34.113,30.26,0.0171,-0.0039,9.8833,-0.6977,-1.0608,-0.5255
7835,1158,775,34.237,30.324,0.0369,0.0122,9.7338,-0.0187,-0.8645,-0.8585
7840,1150,779,34.271,30.306,0.0356,0.0324,9.784,-0.7885,-0.7818,0.4149
7845,1148,783,34.138,30.277,0.0289,0.0004,9.8512,-0.4545,-0.5211,-0.1502
7850,1146,788,34.121,30.32,-0.0241,-0.0578,9.8644,-0.8032,0.6132,-0.4436
7855,1139,796,34.216,30.333,0.0458,-0.0187,9.8444,-0.3971,-0.7146,0.4863
7860,1144,803,34.183,30.246,0.0824,0.0237,9.8825,-0.1662,0.7676,0.005
7865,1139,804,34.154,30.308,-0.0524,-0.0347,9.8185,0.2593,-0.3483,-0.2297
7870,1143,816,34.197,30.313,0.0144,-0.1029,9.84,-0.7804,0.982,0.0855
7875,1132,825,34.1,30.308,-0.0218,-0.018,9.7889,0.1088,0.2142,-1.18
7880,1126,824,34.142,30.308,0.0133,-0.0281,9.7319,-0.0322,0.5422,1.0112
7885,1122,825,34.147,30.248,0.0339,0.0553,9.7821,-0.6142,0.0821,-0.3698
7890,1120,834,34.161,30.286,-0.1194,0.0283,9.811,0.3251,0.1757,-0.8983
7895,1127,840,34.211,30.244,0.0098,0.0264,9.75,0.2062,0.6537,1.1996
7900,1112,840,34.122,30.251,-0.0884,-0.0618,9.8198,-0.8249,0.5948,-0.7506
7905,1102,845,34.208,30.21,0.0372,-0.0259,9.85,-0.2083,0.1375,-0.1506
7910,1104,849,34.196,30.415,-0.1109,0.0113,9.7777,-0.2426,-0.0601,0.1867
7915,1110,858,34.126,30.283,0.066,-0.0484,9.7817,0.4599,0.0162,-0.7677
7920,1108,852,34.169,30.317,-0.0026,0.0318,9.8316,-0.4248,-1.3275,-1.2519
7925,1099,855,34.114,30.165,-0.1229,-0.0404,9.8305,-0.1624,-0.5282,0.1949
7930,1109,860,34.232,30.247,0.0086,0.031,9.8007,0.1721,-0.1707,0.4025
7935,1090,870,34.134,30.306,-0.0449,0.0222,9.7795,0.3929,-0.9146,0.0608
7940,1105,870,34.211,30.303,-0.0029,0.15,9.8097,0.3328,0.035,-0.1258
7945,1098,871,34.046,30.285,-0.1054,-0.0114,9.7518,0.355,0.3729,0.2075
7950,1095,875,34.154,30.294,0.0358,-0.0076,9.7317,0.1588,0.2011,-0.088
7955,1093,873,34.212,30.306,0.0332,0.0384,9.8164,-0.2467,-0.0934,0.2557
7960,1093,875,34.182,30.259,0.0181,-0.0515,9.8042,0.3158,0.5064,0.5018
7965,1089,879,34.253,30.247,0.01,-0.0246,9.7766,-0.5692,-0.1996,-0.248
7970,1088,883,34.209,30.231,-0.024,-0.054,9.858,-0.4811,0.2279,0.8321
7975,1078,881,34.082,30.195,0.095,-0.072,9.9019,-0.0685,-0.4294,-0.2193
7980,1080,880,34.156,30.312,0.0013,-0.0016,9.7561,0.1652,-0.1798,-0.88
7985,1085,881,34.179,30.356,0.0297,0.0738,9.7645,-0.464,0.521,0.0586
7990,1076,877,34.125,30.281,0.0277,0.0204,9.8875,0.5922,-0.4555,0.0434
7995,1076,878,34.174,30.289,-0.0106,0.0184,9.8218,-0.0813,-0.2178,0.6612
8000,1060,880,34.143,30.251,0.0076,-0.017,9.807,-0.2178,-0.5999,-0.0922
8005,1062,881,34.097,30.302,-0.0604,-0.0695,9.8723,0.0749,-1.0424,-0.3702
8010,1059,885,34.092,30.367,0.0411,-0.1328,9.7956,-0.4505,0.2396,0.9759
8015,1056,878,34.215,30.229,0.0658,-0.0214,9.8564,-0.1198,-0.1734,0.0391
8020,1055,883,34.128,30.285,-0.0124,-0.0143,9.8082,-1.0724,0.1507,0.0956
8025,1044,883,34.11,30.249,-0.016,0.0527,9.7604,0.3944,0.0751,0.1472
8029,1050,880,34.167,30.237,0.0234,-0.0377,9.849,0.0864,-0.0412,0.3786
8035,1028,879,34.224,30.241,0.0408,-0.0095,9.8291,0.1189,0.2799,-0.0782
8039,1028,877,34.15,30.179,0.0128,0.034,9.7817,-1.008,0.0908,-0.231
8045,1023,873,34.136,30.173,-0.0264,0.0141,9.8261,0.6223,0.104,0.3275
8050,1015,876,34.183,30.289,-0.0155,-0.0729,9.7932,-0.1442,-0.6734,0.5431
8055,1018,867,34.185,30.243,0.0242,0.024,9.9681,-0.0331,0.3053,0.3498
8060,1004,864,34.213,30.244,0.0553,0.0395,9.8627,0.4792,0.8795,0.0736
8064,1000,868,34.136,30.353,0.0488,0.0621,9.8223,0.4649,-0.1669,-0.7931
8070,987,865,34.156,30.298,-0.036,0.0051,9.8317,-0.0665,-0.1289,-0.3708
8074,989,864,34.232,30.211,0.1037,0.0522,9.793,0.1504,-0.0496,0.6632
8080,981,854,34.165,30.264,-0.0287,0.0307,9.8365,-0.804,0.328,-0.0154
8085,967,861,34.123,30.339,0.0697,0.0645,9.7661,0.3741,0.1249,-0.1703
8090,954,854,34.079,30.292,0.0008,-0.0276,9.8172,-0.4681,0.2324,0.0884
8095,960,861,34.192,30.361,0.05,-0.043,9.7765,0.0613,-0.3499,-0.224
8100,939,854,34.096,30.227,-0.0639,-0.0039,9.8213,-0.5117,0.1337,0.7499
8105,933,853,34.218,30.339,0.057,-0.0783,9.8718,0.2668,-0.6183,0.0463
8109,921,851,34.123,30.25,0.0093,-0.0686,9.8759,0.728,-0.2628,-0.3605
8115,918,852,34.197,30.254,-0.0357,0.0117,9.8684,0.6436,0.7027,-0.1188
8119,910,857,34.155,30.293,-0.0488,0.007,9.8406,-0.1088,0.364,0.1811
8125,901,848,34.111,30.226,0.0343,0.0359,9.8159,0.1466,-0.0233,-0.167
8130,887,848,34.175,30.28,0.0574,0.099,9.7874,-0.2109,0.3364,-0.048
8135,876,844,34.169,30.366,0.0526,-0.008,9.807,-0.0672,1.2391,-0.5294
8140,871,846,34.13,30.303,0.0551,-0.0379,9.8489,0.2892,1.0878,-0.3021
8145,851,848,34.198,30.341,-0.0205,-0.0162,9.8593,0.0032,-0.9143,0.4297
8150,846,846,34.096,30.325,-0.0207,-0.0299,9.7943,0.2117,-0.1598,1.114
8154,845,848,34.207,30.207,0.0544,-0.0129,9.9547,0.4095,-0.1836,-0.3265
8160,832,842,34.203,30.143,0.1054,0.0556,9.827,-0.4812,-0.5067,0.0464
8164,826,843,34.085,30.253,-0.0303,0.0361,9.8845,-0.4338,-0.2308,-0.4028
8170,824,840,34.181,30.283,0.0171,-0.0467,9.7998,-0.4751,-0.4014,-0.1382
8175,815,837,34.203,30.186,0.0238,-0.0659,9.7873,0.1538,0.3759,0.1246
8180,807,843,34.144,30.309,0.0076,-0.043,9.8393,-0.1681,0.0444,0.4867
8185,790,836,34.212,30.265,-0.0286,0.1332,9.7672,-0.8122,0.1883,-0.1455
8189,786,839,34.187,30.261,0.0134,-0.0073,9.7593,-0.2372,-0.1164,-0.6461
8195,785,831,34.179,30.27,0.0821,-0.0133,9.7522,0.2801,0.9623,-0.8595
8200,774,835,34.181,30.26,-0.0086,0.0726,9.8643,0.2526,-0.9049,-0.316
8205,763,836,34.163,30.368,-0.1219,0.0087,9.8665,-0.3912,0.9076,-0.3559
8210,764,830,34.148,30.3,0.0111,-0.046,9.8959,0.0776,0.6611,0.7891
8215,755,830,34.17,30.311,0.0747,-0.0101,9.773,-0.7294,-0.6335,0.7886
8220,755,824,34.066,30.413,-0.0155,-0.0096,9.8034,-0.7214,0.19,-0.101
8225,754,833,34.144,30.335,0.0025,-0.0047,9.9002,-0.8661,0.7901,0.5731
8230,744,831,34.15,30.204,-0.0625,-0.1033,9.8342,-0.3805,0.594,0.2184
8235,744,828,34.141,30.301,0.0014,-0.0286,9.7872,0.3942,-0.2451,-0.1868
8240,756,824,34.211,30.259,-0.0167,-0.0578,9.8026,0.0392,-0.086,1.017
8245,757,822,34.204,30.332,-0.0167,-0.0113,9.8514,-0.1878,0.1072,-0.5535
8250,752,817,34.076,30.295,0.0138,0.0109,9.8605,-0.2889,-0.1394,-0.1299
8255,755,820,34.146,30.292,-0.0113,-0.0543,9.8608,0.6327,1.0075,0.2372
8260,756,817,34.173,30.325,0.0294,-0.0767,9.7686,0.0134,-0.0106,-0.1183
8265,753,821,34.134,30.289,-0.0293,0.0539,9.8761,-0.1285,-0.485,0.0626
8270,754,812,34.186,30.346,0.0516,0.0073,9.77,0.1774,0.9366,-0.2222
8275,761,805,34.204,30.354,-0.0076,-0.0877,9.8136,0.4585,0.7972,0.2187
8280,763,809,34.18,30.186,-0.0684,-0.1464,9.7701,0.3344,-0.3042,-0.6595
8285,782,802,34.133,30.246,0.0259,0.0912,9.7763,-0.0599,-0.5672,0.3514
8290,769,805,34.223,30.176,0.053,0.0715,9.8692,-0.2987,-0.9257,-0.2322
8295,791,801,34.099,30.325,0.0666,-0.036,9.8055,-0.375,1.046,-1.2635
8300,789,796,34.19,30.356,-0.038,0.0995,9.8052,0.3835,-0.4061,0.6811
8305,799,787,34.202,30.278,0.0678,0.0618,9.9054,0.5178,0.066,0.8983
8310,811,787,34.182,30.269,-0.0337,-0.0056,9.7624,-1.0397,-0.5023,-0.5917
8315,819,783,34.136,30.229,-0.0137,-0.0313,9.8262,-0.4335,-0.5,0.0924
8320,820,783,34.169,30.293,-0.0414,-0.0124,9.792,0.0014,-0.2036,-0.3079
8325,832,774,34.222,30.317,-0.0583,0.0271,9.757,-0.9719,-0.1742,-0.403
8330,843,777,34.187,30.356,-0.0289,0.0745,9.8272,0.1366,0.1103,0.5013
8335,851,766,34.192,30.212,-0.0035,-0.0646,9.7568,-0.9556,-0.3766,0.841
8340,879,765,34.16,30.197,0.0055,0.1303,9.776,0.0877,0.1552,0.0524
8345,882,762,34.13,30.363,0.0103,0.0273,9.8062,-0.2809,0.3374,-0.316
8350,891,759,34.157,30.326,-0.041,0.04,9.7398,0.0065,-0.232,-0.1817
8355,903,753,34.122,30.228,-0.0267,-0.0607,9.8107,-0.5962,0.0055,-0.0199
8360,926,752,34.209,30.295,-0.0634,-0.0297,9.8873,-0.7024,1.2951,-0.5177
8365,935,737,34.135,30.324,0.01,-0.0219,9.7946,-0.3565,0.8824,0.3751
8370,942,741,34.121,30.265,0.0198,0.0958,9.7689,0.8561,-0.0037,0.1131
8375,953,738,34.104,30.259,0.0596,0.0227,9.8679,-0.8264,-0.7743,0.6294
8380,962,736,34.068,30.29,-0.0366,0.049,9.8074,-0.9146,-1.1002,-0.5106
8385,986,731,34.141,30.257,0.0948,-0.0626,9.8074,0.041,0.3284,-0.9309
8390,993,724,34.152,30.305,0.0155,0.0085,9.8201,0.5921,0.1182,-0.4582
8395,1004,720,34.133,30.339,-0.069,0.0364,9.8938,0.2891,1.2058,-0.179
8400,1027,717,34.203,30.228,0.0075,-0.0029,9.8198,-0.1196,-0.5328,0.4916
8405,1030,719,34.171,30.294,0.0658,0.0139,9.8891,-0.6176,1.3291,-0.0782
8410,1042,717,34.216,30.265,-0.0797,0.0128,9.719,-0.0521,0.5483,-0.0533
8415,1060,712,34.201,30.187,0.0587,-0.0438,9.7795,0.3444,-0.2363,0.4492
8420,1065,707,34.163,30.226,-0.0356,0.0022,9.9014,0.6498,0.6718,0.3466
8425,1077,707,34.164,30.307,0.0303,-0.1346,9.8458,-0.0971,0.8051,-0.1102
8430,1089,699,34.173,30.299,0.0141,-0.0236,9.8273,0.1594,0.5538,-1.0055
8435,1103,700,34.202,30.253,-0.0413,0.0249,9.8432,-0.024,-0.8413,-0.3471
