timestamp_ms,ir_finger,ir_toe,temp_finger,temp_toe,ax,ay,az,gx,gy,gz
0,1046,676,34.464,33.784,0.015,0.0332,9.8632,-0.796,0.3456,0.5781
5,1054,675,34.563,33.87,-0.0058,-0.0546,9.8341,0.5621,0.1809,-0.57
10,1071,683,34.475,33.758,-0.0435,-0.0068,9.712,-0.3574,0.7182,0.0232
15,1076,691,34.457,33.831,-0.0396,-0.0377,9.8284,0.5251,0.2601,-0.6807
20,1083,700,34.486,33.905,-0.008,-0.001,9.8777,0.3263,0.1885,-0.5524
25,1090,707,34.551,33.955,0.0962,-0.0283,9.8552,-0.1726,-0.3243,0.3182
30,1110,712,34.412,33.93,0.0291,0.0026,9.8744,0.0466,-0.1508,-0.0185
35,1110,726,34.451,33.78,-0.0572,0.093,9.7572,0.5858,-1.396,0.4874
40,1132,729,34.514,33.862,-0.0104,0.0564,9.7276,1.1714,-0.825,0.7053
45,1133,741,34.484,33.891,0.0191,0.0393,9.7764,-0.5238,-0.1944,0.4071
50,1144,742,34.435,33.87,-0.071,0.0015,9.8445,0.3466,0.1331,-0.5294
55,1158,753,34.414,33.952,0.0129,-0.0021,9.8447,-0.0874,0.5262,0.7512
60,1163,762,34.555,33.914,0.0187,-0.0059,9.8237,0.1533,0.9233,-0.3707
65,1165,769,34.528,33.849,-0.1114,-0.0492,9.808,0.8095,0.96,-0.0434
70,1161,777,34.5,33.866,0.0562,-0.0233,9.9403,0.7981,-0.2723,-0.6723
75,1169,782,34.467,33.883,-0.0574,0.0019,9.8575,-0.3912,-0.1063,-0.263
80,1169,792,34.509,33.885,0.0682,0.0049,9.755,-0.5869,-0.5603,0.1626
85,1180,797,34.578,33.773,0.0307,-0.0385,9.8712,0.2373,0.4156,0.1439
90,1188,812,34.421,33.856,-0.0741,-0.0474,9.8584,0.1379,0.3514,-0.4109
95,1186,817,34.553,33.88,-0.0322,-0.1156,9.8694,0.7952,-0.5643,0.6121
100,1189,828,34.578,33.809,0.0195,-0.1252,9.9014,-0.445,-0.1416,0.2191
105,1187,836,34.468,33.898,0.0364,-0.0086,9.7994,0.3678,0.1381,-0.3198
110,1190,838,34.573,33.854,-0.0649,-0.0615,9.862,0.0959,0.4195,0.709
115,1201,849,34.589,33.894,-0.007,-0.048,9.7756,0.122,0.676,0.0699
120,1183,855,34.521,33.876,0.1218,0.0035,9.8388,-0.4655,-0.2923,0.4685
125,1191,864,34.444,33.904,-0.0094,-0.0807,9.8185,0.0804,-0.2277,-0.6188
130,1188,871,34.606,33.823,0.0329,-0.0321,9.738,0.1624,0.3608,0.5419
135,1186,875,34.488,33.776,0.0021,-0.071,9.8122,0.277,0.0335,-0.1389
140,1184,884,34.47,33.89,0.0728,-0.0092,9.9059,-0.3772,0.6428,0.4168
145,1167,881,34.489,33.836,0.0052,0.0216,9.7784,0.1386,1.5002,0.4632
150,1178,897,34.561,33.789,-0.0597,-0.0153,9.8666,-0.3276,0.8731,-0.2379
155,1175,887,34.452,33.816,-0.0269,-0.0203,9.7075,0.6666,0.1648,0.3114
160,1178,896,34.482,33.918,-0.0335,-0.0494,9.8711,-0.0841,-0.4524,-0.3967
165,1161,902,34.525,33.829,-0.0794,0.0557,9.7857,0.5521,0.1872,-0.2115
170,1169,905,34.434,33.947,0.0241,0.0263,9.8894,-0.2918,0.4708,0.02
175,1165,909,34.532,33.966,-0.0371,-0.0344,9.748,0.6197,0.0899,-0.1883
180,1160,912,34.505,33.811,-0.0308,-0.0209,9.7931,0.6357,-0.3741,-0.8319
185,1152,909,34.479,33.863,0.0048,-0.0262,9.7652,-0.3717,-0.1128,0.1582
190,1156,911,34.517,33.868,0.0453,-0.0265,9.7635,-0.1688,-0.3296,0.0602
195,1147,914,34.475,33.925,0.0274,0.0145,9.8616,-0.4147,0.1942,0.0428
200,1153,918,34.456,33.854,-0.0218,-0.0091,9.8015,-0.7117,0.1486,-0.0163
205,1143,918,34.465,33.78,-0.0024,0.0164,9.854,-0.5181,-0.7981,0.0443
210,1142,920,34.421,33.926,0.0749,-0.0583,9.8575,-0.1381,-0.1623,0.061
215,1135,916,34.461,33.874,0.0039,0.0043,9.8108,0.0517,0.0385,0.2467
220,1124,915,34.426,33.875,-0.0414,0.0579,9.7944,0.0504,0.4688,-0.9789
225,1130,923,34.499,33.897,-0.0287,-0.039,9.8473,-0.2794,0.0541,-0.8515
230,1128,913,34.489,33.878,0.0127,0.0504,9.8651,0.0072,-0.0514,-0.7745
235,1118,917,34.406,33.841,-0.0047,-0.0308,9.8906,-0.7677,-1.1229,-0.1824
240,1122,916,34.432,33.783,-0.001,0.0102,9.7267,-0.2845,0.086,-0.3902
245,1116,916,34.525,33.952,-0.0157,-0.0545,9.8658,-0.4847,-0.1344,0.1812
250,1124,917,34.489,33.909,0.0333,-0.004,9.8565,-0.2043,0.1107,0.4315
255,1109,913,34.6,33.907,-0.1272,0.0512,9.7266,0.06,0.3943,-0.4069
260,1102,904,34.521,33.859,0.0443,-0.0006,9.7753,0.0333,0.3288,-0.2855
265,1109,907,34.509,33.86,-0.0281,-0.0464,9.8158,0.3546,0.1252,-0.3789
270,1107,904,34.589,33.845,0.0076,-0.0253,9.8998,-0.5723,0.3215,-0.0244
275,1105,903,34.455,33.881,-0.0494,-0.0514,9.7828,0.5442,0.0104,-0.1183
280,1098,898,34.457,33.818,-0.0411,-0.0567,9.827,0.598,0.061,0.1336
285,1088,897,34.594,33.93,0.0104,0.0369,9.7935,0.5213,0.0988,-0.2105
290,1094,897,34.471,33.829,-0.0474,-0.0275,9.8186,0.7405,-0.9308,0.3809
295,1082,897,34.431,33.972,-0.0554,0.0313,9.8641,-0.0535,-0.3722,-1.0385
300,1079,894,34.542,33.802,0.0237,-0.0103,9.8267,-0.5466,-0.0536,-0.3589
305,1089,888,34.473,33.893,-0.009,-0.1191,9.8568,-0.7814,1.0619,0.4517
310,1083,886,34.515,33.887,0.0466,0.0103,9.7866,-0.6011,-0.4978,0.1297
315,1078,884,34.485,33.816,-0.0515,-0.0643,9.832,-0.6454,0.4355,-0.5429
320,1081,882,34.472,33.909,0.071,-0.0278,9.742,-0.2282,-0.0994,-0.5111
325,1074,881,34.457,33.868,-0.0066,0.0202,9.8509,-0.0409,1.1763,-0.895
330,1074,876,34.596,33.923,-0.0478,0.0033,9.7278,0.5289,0.4986,0.025
335,1065,880,34.492,33.777,0.0586,0.0936,9.7499,-0.4353,0.045,-0.6854
340,1073,869,34.573,33.798,0.0042,0.1046,9.8046,-0.2292,0.1389,0.328
345,1063,874,34.444,33.861,0.0031,0.0132,9.8354,-0.2729,0.2439,0.2973
350,1063,870,34.485,33.852,0.0369,0.0243,9.7292,-0.533,0.676,-0.9194
355,1058,867,34.497,33.823,0.0887,0.0539,9.7663,-0.6692,0.0143,0.2077
360,1054,870,34.428,33.911,0.042,-0.0434,9.8361,0.459,-0.9328,0.2633
365,1046,865,34.514,33.864,0.0455,0.0454,9.8797,0.5096,0.7899,-0.738
370,1035,868,34.425,33.858,-0.0515,-0.0134,9.8503,-0.5713,-0.5815,-0.8539
375,1047,862,34.497,33.901,0.0496,-0.0778,9.7278,0.3496,-0.0353,0.1202
380,1033,862,34.496,33.86,0.0796,0.0053,9.8278,-0.5234,-0.3348,-0.7263
385,1020,864,34.493,33.815,0.0408,0.0036,9.7445,0.4073,-0.5266,-0.6523
390,1018,861,34.521,33.847,0.0377,0.0081,9.8314,-0.2555,0.6758,0.5628
395,1011,859,34.573,33.881,-0.041,0.0169,9.8206,-0.2434,0.3662,-0.3811
400,1012,852,34.51,33.823,0.0085,0.0685,9.6653,-0.2736,-0.0537,-0.1595
405,1001,852,34.472,33.858,-0.0931,-0.0073,9.8372,0.0104,0.8633,0.5122
410,1003,858,34.445,33.976,-0.1242,-0.0121,9.8018,0.2703,-0.4187,-0.5634
415,985,848,34.522,33.837,0.0015,0.0116,9.8047,1.033,-0.4294,-0.0952
420,974,851,34.52,33.965,-0.0154,-0.0536,9.6912,-0.1485,-0.9155,-0.554
425,971,844,34.541,33.816,0.0679,-0.0489,9.827,0.0824,0.6566,-0.416
430,958,843,34.491,33.839,-0.0207,0.0366,9.8261,-0.8457,0.9594,0.3254
435,952,845,34.555,33.872,-0.0554,-0.0695,9.7968,-0.9307,0.0647,0.3213
440,951,844,34.448,33.973,-0.0082,-0.0043,9.8479,0.2788,0.7309,0.0877
445,937,842,34.462,33.809,0.0965,-0.0641,9.7866,0.4143,0.3288,-0.5742
450,924,839,34.44,33.881,-0.0628,-0.058,9.8653,0.4611,0.4546,-0.8637
455,915,837,34.539,33.939,0.0309,0.0088,9.814,0.1161,0.8932,0.0073
460,900,837,34.44,33.909,0.0966,-0.0176,9.8127,-0.0332,-0.3425,0.3019
465,895,830,34.544,33.887,0.0291,0.09,9.7879,1.0399,-0.3545,-0.0649
470,883,825,34.507,33.898,-0.0418,0.0117,9.8586,0.8967,-0.3798,-0.8107
475,881,825,34.611,33.901,-0.029,-0.0127,9.8422,0.8792,0.4914,0.4855
480,867,819,34.516,33.876,0.1031,-0.0328,9.7648,0.0771,0.3493,-0.7188
485,853,820,34.45,33.835,0.1256,0.1135,9.9033,-0.1579,0.2203,-0.4348
490,854,813,34.445,33.884,-0.049,0.0457,9.8348,-0.3781,-0.3108,-0.2129
495,831,806,34.431,33.939,0.0031,0.0149,9.7436,0.6866,0.1975,0.6912
500,831,804,34.499,33.882,0.0064,0.0359,9.796,-0.4698,0.0904,-0.3409
505,829,805,34.587,33.909,0.0735,-0.05,9.6902,-0.8277,0.5694,0.1012
510,815,802,34.494,33.969,0.0605,0.0215,9.8093,0.1573,0.5667,0.1252
515,807,791,34.516,34.029,-0.0265,-0.0598,9.8492,0.8618,0.3274,-0.7783
520,801,787,34.528,33.989,-0.0056,-0.0137,9.791,-0.4727,-0.3813,-0.2383
525,792,780,34.487,33.923,-0.0819,0.0096,9.8856,-0.9485,0.363,0.0451
530,781,774,34.492,33.8,0.0726,0.0197,9.8373,-0.22,0.1418,-0.0574
535,771,770,34.491,33.892,0.0666,-0.0109,9.8611,-0.9691,-0.2249,-0.8754
540,773,766,34.549,33.914,0.0881,0.0126,9.9081,0.1963,0.8912,0.015
545,762,752,34.5,33.999,0.0601,-0.0498,9.8392,-0.2105,0.1815,0.0552
550,762,752,34.429,33.808,-0.0075,0.1225,9.8194,0.28,-0.6777,-0.4434
555,750,743,34.493,33.794,-0.0025,-0.0182,9.7975,-0.0042,0.5211,-0.1026
560,757,745,34.424,33.837,0.0677,0.0697,9.7589,-0.0402,1.0702,0.3652
565,755,733,34.454,33.866,0.1492,0.0377,9.7728,-0.5476,-0.4543,0.738
570,757,724,34.461,33.891,0.0094,-0.0082,9.907,0.6125,0.2847,-0.8152
575,755,720,34.605,33.922,-0.0668,0.0215,9.8907,-0.3349,0.0339,0.1512
580,747,715,34.474,33.9,0.002,-0.0408,9.7795,-0.2205,-0.5745,0.9005
585,750,712,34.571,33.891,-0.0649,0.0353,9.7978,0.2046,-0.6805,0.3321
590,750,702,34.652,33.893,0.0139,0.0709,9.7913,0.4318,-0.1981,0.2747
595,750,696,34.494,33.848,-0.0051,0.0297,9.7531,-0.7109,-0.0288,0.2733
600,749,688,34.519,33.856,0.0617,0.0303,9.7842,0.3826,0.2861,0.0839
605,748,680,34.479,33.749,0.0812,-0.0525,9.7437,0.0837,0.3241,-0.1686
610,761,685,34.572,33.923,-0.0954,0.0521,9.8755,-0.2191,0.9628,-0.2995
615,763,677,34.448,33.894,-0.0643,-0.0733,9.7248,-0.1078,-0.1252,0.9814
620,775,670,34.53,33.902,0.0637,-0.0033,9.8333,-0.6501,-0.3136,0.2437
625,775,662,34.499,33.881,0.086,-0.0357,9.7365,-0.0162,-0.3825,-0.4462
630,790,666,34.514,33.871,0.1177,-0.0051,9.808,-0.3055,-0.4178,-0.1461
635,792,658,34.442,33.909,0.0491,0.0528,9.8838,1.0174,0.0792,-0.0082
640,800,648,34.454,33.863,-0.0981,-0.0184,9.8874,-0.1455,0.098,0.6962
645,811,654,34.539,33.899,-0.0138,-0.0279,9.8278,-0.6557,-0.6893,-0.3458
650,817,642,34.435,33.871,0.0121,0.0157,9.7897,0.4577,0.8462,-0.3257
655,836,643,34.555,33.821,0.0459,0.0711,9.9027,0.3128,0.1469,-0.2598
660,840,648,34.458,33.926,0.0416,0.0641,9.8953,-0.3259,0.0517,0.2485
665,863,642,34.531,33.93,0.041,-0.0264,9.8123,-1.0774,0.2215,0.0196
670,851,642,34.505,33.91,0.0459,0.036,9.7881,0.3265,0.231,-0.1257
675,887,644,34.508,33.8,0.0512,-0.0274,9.8533,-0.3672,0.08,-0.193
680,884,639,34.49,33.725,0.1016,-0.0356,9.8365,0.5971,-1.0232,-0.2233
685,896,639,34.508,33.88,-0.0754,0.0235,9.7762,0.3615,-0.5615,-0.6318
690,912,643,34.512,33.942,0.0448,-0.0547,9.8424,0.1023,-0.8417,-0.0708
695,932,643,34.479,33.911,-0.0016,-0.0379,9.8416,-0.6553,0.2946,0.0391
700,938,651,34.57,33.961,-0.0468,0.0311,9.8284,0.2915,-0.1532,-0.1136
705,948,645,34.48,33.851,-0.0162,-0.0167,9.7771,-0.2475,-0.0731,-0.3398
710,960,651,34.532,33.931,0.0903,-0.0496,9.8642,-0.2627,0.6038,0.0109
715,981,656,34.458,33.898,0.0159,-0.0675,9.8352,-0.0395,0.2882,0.0479
720,993,654,34.492,33.847,0.0397,0.0056,9.793,-0.4366,-0.0757,0.612
725,1007,659,34.58,33.872,-0.0032,0.0015,9.8144,-0.4594,-0.7629,-0.2756
730,1017,661,34.538,33.86,-0.0565,-0.0419,9.7387,-0.2364,0.9219,-0.1844
735,1029,673,34.532,33.935,-0.0057,-0.0576,9.8001,0.1265,-1.1279,-0.2757
740,1043,677,34.484,33.855,0.0326,-0.0936,9.841,-0.2502,0.1019,0.1461
745,1055,679,34.472,33.905,-0.0547,-0.0385,9.7998,0.2877,0.5702,0.0457
750,1065,685,34.606,33.941,-0.0309,-0.031,9.8691,-0.1524,0.3739,0.6009
755,1088,687,34.553,33.86,-0.0127,-0.0361,9.826,0.3038,0.0264,0.3414
760,1080,698,34.512,33.79,0.0305,0.0185,9.8266,0.067,0.4883,-0.0136
765,1096,706,34.478,33.912,-0.0238,0.0414,9.778,-0.8545,-0.3345,0.7998
770,1100,715,34.43,33.948,-0.0161,0.0011,9.8111,-0.1779,0.7202,0.1896
775,1120,717,34.454,33.946,0.0177,-0.0292,9.9331,-0.0563,0.0763,0.0087
780,1128,729,34.509,33.843,-0.0565,0.0691,9.8042,-0.8437,0.8571,0.3437
785,1132,733,34.506,33.859,-0.0414,-0.0821,9.8666,0.3665,0.0229,-0.372
790,1143,747,34.41,33.915,-0.0063,0.0031,9.7826,-0.0729,-0.1869,-1.208
795,1143,754,34.495,33.862,0.0379,0.0192,9.9125,-0.026,0.6529,0.085
800,1153,761,34.534,33.902,-0.1058,-0.0266,9.8918,0.0027,-1.2613,0.3892
805,1149,771,34.515,33.921,0.081,0.0478,9.831,-0.1466,0.3778,-0.2347
810,1168,779,34.536,33.922,-0.0447,-0.0628,9.7304,-0.2033,1.1449,0.598
815,1163,785,34.505,33.935,0.093,-0.0322,9.8407,-0.3635,0.5594,-0.5278
820,1163,792,34.466,33.926,0.0635,0.005,9.7752,-1.3573,0.2865,0.0242
825,1175,805,34.504,33.911,0.0374,-0.1009,9.8115,0.4281,-1.1319,0.4089
830,1175,816,34.529,33.859,0.0,-0.0891,9.694,0.0459,-0.8057,-0.0336
835,1178,815,34.55,33.83,0.0277,0.0423,9.8423,-0.7313,0.0578,-0.2287
840,1185,825,34.51,33.826,-0.0344,0.0049,9.7897,-0.7761,-0.4602,-0.2195
845,1179,835,34.515,33.874,-0.0224,0.0102,9.7394,0.064,0.7453,0.2262
850,1190,842,34.431,33.879,0.0275,-0.078,9.7984,0.1422,-0.5413,-0.593
855,1180,845,34.588,33.953,0.0427,-0.0618,9.7767,-0.5495,-1.2379,-0.4588
860,1193,857,34.449,33.892,0.0097,0.1225,9.7433,-0.1745,-0.0849,0.1325
865,1195,863,34.531,33.916,-0.0303,-0.0093,9.7235,-0.5389,1.2009,0.2485
870,1183,868,34.444,33.832,0.0598,0.0293,9.7599,-0.0434,0.1168,-0.4475
875,1181,874,34.481,33.918,-0.0046,0.0192,9.8161,-0.695,0.9763,0.3092
880,1187,883,34.551,33.857,0.0198,0.0224,9.8947,-0.1179,-0.4076,0.3991
885,1177,882,34.51,33.802,-0.0847,-0.1376,9.8552,0.0422,-0.5617,0.2275
890,1184,887,34.455,33.926,-0.031,-0.0091,9.8728,0.6731,0.1252,0.246
895,1172,887,34.426,33.783,0.014,0.1151,9.7911,0.0105,-0.2965,0.1571
900,1168,901,34.434,33.842,-0.2254,-0.0397,9.7941,0.5078,-0.5477,0.0509
905,1170,903,34.476,33.862,0.0289,-0.0021,9.9462,0.2425,-0.1631,0.8126
910,1164,907,34.583,33.907,0.0085,-0.0087,9.7997,0.3415,-0.0608,0.6669
915,1161,906,34.581,33.848,0.0179,-0.0128,9.8537,0.0206,0.4924,0.7562
920,1156,905,34.529,33.826,-0.0615,-0.0017,9.8142,-0.2005,-0.1536,-0.1868
925,1160,917,34.421,33.85,0.0098,0.0183,9.7688,0.2233,0.3318,-0.0508
930,1159,922,34.522,33.777,0.0141,-0.0107,9.8072,0.0389,-0.6972,0.0888
935,1150,914,34.412,33.853,0.0624,0.0309,9.8868,1.1812,-0.9136,-0.5949
940,1135,915,34.515,33.892,-0.0021,-0.1338,9.9307,0.7744,0.4779,-0.1457
945,1137,916,34.506,33.834,0.1059,-0.0097,9.8661,-0.3388,0.5528,0.1646
950,1135,918,34.45,33.925,-0.0029,-0.0386,9.7768,-0.2489,-0.3332,-0.6692
955,1140,918,34.529,33.947,-0.0248,0.013,9.8155,-0.0379,-0.262,0.0986
960,1139,924,34.489,33.973,0.0548,-0.0972,9.806,-0.1882,-0.6362,-0.6434
965,1124,922,34.452,33.901,-0.05,-0.0204,9.7875,0.3698,-0.1073,-1.7769
970,1131,917,34.47,33.914,-0.0093,-0.0039,9.771,-0.6673,0.1321,-0.41
975,1118,918,34.602,33.949,-0.0337,-0.0985,9.7978,0.8069,0.339,-0.3691
980,1130,914,34.585,33.848,-0.0689,-0.0266,9.7378,-0.2458,0.855,-0.081
985,1124,910,34.433,33.922,-0.0446,0.0331,9.8121,-0.5908,0.8156,0.6267
990,1117,913,34.513,33.977,-0.0356,0.0579,9.8511,0.3726,0.2844,0.0865
995,1107,910,34.524,33.83,0.0226,-0.0072,9.7698,0.3945,0.0268,-0.7045
1000,1112,908,34.531,33.883,0.0206,-0.0403,9.8902,0.3638,0.0398,-0.2367
1004,1106,909,34.508,33.831,-0.0512,-0.0608,9.79,0.5266,0.0095,0.3755
1010,1114,909,34.52,33.855,-0.0006,-0.0274,9.8543,-0.0092,-0.056,0.142
1014,1102,899,34.507,33.854,0.058,0.0272,9.7839,0.0122,0.9527,-0.0866
1020,1098,906,34.463,33.962,0.0271,-0.0322,9.7547,0.6569,0.6492,0.4502
1025,1100,898,34.403,33.894,-0.0856,0.0383,9.8352,-0.0398,-0.7899,-0.1041
1030,1099,902,34.565,33.809,-0.032,0.0963,9.734,1.5533,-0.2734,-0.4867
1035,1097,895,34.402,33.926,-0.0021,-0.02,9.833,-1.0786,-0.059,-0.2757
1040,1091,891,34.543,33.835,-0.0109,0.0046,9.8312,-1.4959,0.4951,-0.854
1045,1085,891,34.583,33.794,0.0731,-0.0159,9.7713,-0.2714,-0.7792,-0.3342
1050,1078,889,34.499,33.76,-0.0366,-0.0546,9.7469,-0.0908,-0.1621,-0.4455
1055,1081,882,34.553,33.929,0.0401,-0.0023,9.834,0.123,0.3468,0.0857
1060,1083,881,34.495,33.922,-0.0711,0.0528,9.8061,0.0985,0.6402,-0.809
1065,1082,883,34.527,33.83,-0.0745,0.0777,9.7908,-0.3156,-0.3616,0.2575
1070,1094,879,34.519,33.918,-0.0072,-0.0327,9.8512,-0.9092,-0.5695,-0.3881
1075,1070,873,34.503,33.812,0.1227,0.0529,9.7921,0.9996,0.2145,1.2247
1080,1077,880,34.438,33.847,-0.0719,0.0151,9.8454,0.5564,-0.0778,0.5756
1085,1049,878,34.464,33.952,0.0917,0.0339,9.8687,0.1302,0.4624,-0.4154
1090,1061,874,34.522,33.881,0.0348,-0.0092,9.8803,-0.2207,-0.3666,0.2921
1095,1050,866,34.481,33.88,-0.0628,0.0582,9.7425,0.019,0.5254,0.1271
1100,1049,869,34.54,33.841,-0.0345,-0.0009,9.7553,0.2777,0.2955,0.9295
1105,1053,863,34.459,33.848,-0.0411,0.0192,9.7798,-0.385,-0.3535,-0.7635
1110,1042,860,34.533,33.868,-0.0289,0.037,9.8061,-0.0851,-0.1658,0.732
1115,1039,857,34.446,33.879,-0.0757,0.0193,9.8386,-0.2229,-0.5489,-0.0756
1120,1025,866,34.586,33.903,-0.0329,-0.0038,9.8554,0.6442,-0.3061,-1.1291
1125,1028,858,34.489,33.899,0.024,0.0561,9.7947,-0.3132,-1.0798,0.0848
1130,1018,856,34.461,33.869,-0.028,-0.0819,9.8428,-0.1348,-0.4709,0.579
1135,1012,855,34.53,33.871,0.0432,-0.0035,9.8501,-1.0322,1.0855,-0.1427
1140,1008,856,34.429,33.798,-0.003,-0.0255,9.9035,-0.4727,-0.6761,0.1875
1145,1003,852,34.513,33.896,-0.0108,-0.0791,9.8659,0.0862,-0.538,-0.7851
1150,992,852,34.518,33.893,-0.0181,0.0425,9.7988,0.0492,0.6226,-0.8693
1155,994,849,34.444,33.861,0.0173,-0.024,9.8101,-0.3417,-1.2653,0.3931
1160,987,851,34.492,33.895,-0.0463,-0.0114,9.773,0.1839,-0.1895,-0.6933
1165,970,841,34.545,33.931,-0.074,-0.0912,9.8584,0.3052,-1.0702,-0.7718
1170,958,854,34.51,33.861,-0.0551,-0.025,9.8088,-0.7003,-0.1754,1.6563
1175,951,847,34.553,33.952,0.0491,-0.0165,9.794,-1.1013,-0.8113,0.3104
1180,935,844,34.563,33.898,0.0278,0.0339,9.7705,0.0527,-0.3387,-0.6255
1185,924,839,34.494,33.841,0.1013,-0.0023,9.8171,0.5112,-0.1656,-0.4694
1190,928,836,34.529,33.842,-0.0217,0.0153,9.8967,-0.1306,-1.3135,0.5976
1195,910,834,34.426,33.938,-0.0622,0.0372,9.8241,-0.152,-0.1813,-0.4624
1200,903,831,34.466,33.924,0.0593,-0.0445,9.8445,-0.5331,-0.7542,0.267
1205,889,824,34.42,33.952,-0.0541,0.0191,9.8191,-0.5433,-0.8051,-0.2367
1210,891,828,34.595,33.805,0.0285,-0.0438,9.8369,0.315,-0.0742,-0.7263
1215,876,824,34.516,33.888,0.0316,-0.0308,9.8034,-0.0211,0.2624,0.1748
1220,863,820,34.487,33.774,-0.0357,-0.0649,9.8189,0.3143,0.1968,-0.6185
1225,853,811,34.62,33.86,0.0199,0.0521,9.7837,-0.2713,-0.637,0.309
1230,854,810,34.455,33.877,-0.0355,-0.0026,9.7856,0.4131,-0.0304,-0.0212
1235,840,801,34.456,33.92,0.0144,-0.0436,9.7796,0.0337,0.1321,-0.1749
1240,834,805,34.501,33.896,0.0095,0.0354,9.9153,0.0139,-0.0214,-0.0948
1245,819,800,34.466,33.874,-0.0469,-0.0417,9.8479,0.1242,-0.4922,-0.2215
1250,809,795,34.483,33.829,0.0778,-0.0232,9.8372,-0.3132,-0.2817,-0.2411
1255,804,792,34.539,33.853,-0.0513,-0.008,9.7758,-0.2884,-0.9319,0.4631
1260,792,786,34.519,33.855,-0.0205,-0.0024,9.8154,0.1301,0.0349,-0.1371
1265,793,781,34.472,33.85,-0.038,0.0735,9.8026,-0.096,-0.3571,0.6226
1270,784,778,34.535,33.918,0.0636,0.0256,9.8257,0.375,-0.2257,1.0899
1275,773,773,34.588,33.82,-0.0281,-0.0299,9.8793,0.4906,-0.3059,0.2498
1280,766,766,34.502,33.743,-0.084,-0.098,9.8139,0.1229,-0.1651,0.3968
1285,759,758,34.481,33.798,-0.0026,0.1085,9.8478,-0.4634,0.4271,0.6302
1290,759,755,34.489,33.822,-0.0054,-0.0142,9.7825,0.4974,-0.6487,-0.1038
1295,756,743,34.442,33.795,-0.0014,-0.0269,9.7983,-0.2897,-0.9313,0.3843
1300,746,740,34.552,33.876,-0.0098,-0.0394,9.7863,0.1661,0.2986,0.3267
1305,766,742,34.499,33.958,-0.0076,0.015,9.8752,0.1134,-0.7868,-0.1268
1310,750,725,34.542,33.832,0.0145,-0.0598,9.764,-0.2674,0.2566,-0.5122
1315,746,716,34.574,33.846,0.0389,0.0644,9.8925,-0.2314,-0.5112,0.7034
1320,750,720,34.547,33.944,0.0249,-0.0966,9.7689,-0.497,0.0553,0.6658
1325,746,707,34.459,33.845,0.0563,0.0422,9.8823,-0.1057,-0.0488,-0.7724
1330,743,699,34.4,33.873,-0.0284,-0.0467,9.806,0.3937,0.3321,-0.0589
1335,754,700,34.448,33.924,-0.032,0.0592,9.9306,-0.4889,-0.5607,0.7397
1340,766,693,34.5,33.832,-0.0133,0.0678,9.6912,-0.6199,-0.9259,0.0484
1345,753,682,34.439,33.89,0.1021,0.0236,9.7039,0.2003,0.2745,-0.2838
1350,758,681,34.482,33.896,-0.0703,-0.0369,9.806,0.0399,0.5129,0.601
1355,767,678,34.592,33.822,-0.0395,0.0059,9.8358,-0.2848,0.84,0.1999
1360,769,668,34.461,33.84,-0.0499,-0.0194,9.8232,-0.4335,0.7996,0.6766
1365,783,668,34.534,33.785,-0.0519,0.0076,9.8078,0.1282,-0.8579,0.0108
1370,787,660,34.391,33.847,0.0951,-0.0316,9.8169,-0.1263,0.8227,-0.0225
1375,794,659,34.546,33.871,0.0057,-0.0357,9.7603,-0.4425,0.8569,-0.1958
1380,799,651,34.51,33.828,-0.1201,-0.0266,9.7162,0.5796,-0.1841,0.0923
1385,814,646,34.542,33.842,0.0114,-0.0342,9.7785,-0.1049,0.0415,-0.5263
1390,823,644,34.532,33.904,0.1121,-0.0513,9.858,0.79,0.2802,-0.6858
1395,839,645,34.53,33.953,0.0801,0.0062,9.7414,0.0966,0.2198,-0.3189
1400,843,643,34.477,33.901,0.0383,-0.0131,9.8283,0.026,-0.8097,-0.5561
1405,854,641,34.477,33.852,0.0243,0.0447,9.8099,-0.4888,0.2831,0.2314
1410,871,640,34.648,34.012,0.0271,0.021,9.7325,0.2469,0.5573,-0.0907
1415,876,642,34.513,33.896,-0.0009,-0.0573,9.8445,-0.2547,-0.4047,-0.2032
1420,897,640,34.498,33.871,0.0791,-0.0204,9.8786,-0.4211,-0.1829,-0.1399
1425,906,640,34.471,33.865,-0.0116,-0.0624,9.9571,0.0928,0.2879,0.061
1430,913,641,34.491,33.812,0.0806,0.0054,9.8013,-0.1919,0.5983,0.2821
1435,927,643,34.489,33.876,-0.0391,-0.0413,9.7559,0.5546,-0.2586,-0.1917
1440,930,641,34.492,33.807,-0.0696,0.0222,9.8553,-0.3473,0.6488,0.4231
1445,952,649,34.483,33.924,0.0089,-0.092,9.8258,0.3399,0.933,0.4594
1450,963,647,34.479,33.987,0.0558,-0.0173,9.8115,-0.0892,0.4244,0.1117
1455,982,647,34.498,34.002,-0.0314,0.02,9.8058,0.9162,-0.8982,-0.1059
1460,993,655,34.528,33.878,0.0017,-0.0214,9.7885,-0.3049,0.0375,0.5231
1465,1014,657,34.463,33.874,-0.0275,-0.0218,9.8152,0.1312,-0.0746,0.2318
1470,1020,662,34.534,33.939,-0.0507,0.0876,9.8156,-0.0772,0.1886,0.3935
1475,1034,671,34.506,33.94,-0.0101,-0.0573,9.8222,0.7604,0.7718,-0.4788
1480,1046,675,34.48,33.834,0.0081,0.0312,9.7624,0.4455,-0.0432,-0.4633
1485,1056,676,34.481,33.875,-0.113,-0.0202,9.8002,-0.1304,-0.6299,0.1932
1490,1058,682,34.518,33.91,-0.0234,-0.0331,9.7904,0.4651,-0.6104,-0.0773
1495,1089,691,34.536,33.864,-0.066,-0.061,9.7974,0.0801,-0.5555,0.2503
1500,1076,700,34.502,33.922,-0.0265,0.0634,9.766,-0.2358,0.1187,0.2938
1505,1100,705,34.504,33.892,-0.0797,-0.018,9.8021,-0.0373,0.1781,0.6802
1510,1113,711,34.458,33.956,-0.0071,0.0317,9.8269,0.3963,-1.5375,-0.0432
1515,1125,717,34.515,33.984,0.0834,-0.0774,9.8295,1.0915,-0.3875,1.0148
1520,1126,730,34.438,33.863,0.0396,0.0793,9.6908,-0.2516,0.5139,-0.7113
1525,1133,735,34.442,33.783,0.0864,0.0151,9.8811,-0.4441,0.1824,-0.2158
1530,1148,743,34.452,33.815,0.0209,-0.1076,9.8782,0.1608,0.2484,0.114
1535,1147,753,34.542,33.902,0.0288,-0.0026,9.7603,0.7085,0.6474,0.5559
1540,1154,761,34.417,33.87,-0.0026,-0.059,9.7861,1.0578,0.2478,0.0482
1545,1158,769,34.542,33.863,0.0862,-0.0084,9.9009,-0.2546,0.7269,-0.1762
1550,1176,776,34.427,33.876,0.1164,0.0373,9.8489,-0.3374,0.7556,-0.3574
1555,1170,786,34.581,33.893,0.0751,-0.0016,9.8131,-1.412,-0.3565,-0.4463
1560,1167,793,34.52,33.888,0.0253,-0.0032,9.7584,0.1719,0.3,0.4191
1565,1178,811,34.589,34.042,0.0174,0.0092,9.7213,-0.1175,0.4533,0.5104
1570,1180,813,34.546,33.909,0.0065,-0.0355,9.8431,0.2436,-0.2461,-0.5281
1575,1180,819,34.558,33.887,-0.0008,0.0245,9.8185,-0.3534,-0.0128,0.1002
1580,1180,824,34.526,33.869,-0.0281,-0.0106,9.8483,-0.4801,-0.0011,-0.5677
1585,1180,835,34.5,33.823,0.0115,-0.0538,9.7555,-0.5973,-0.2401,-0.652
1590,1191,836,34.505,33.812,-0.1174,-0.0037,9.8496,-0.124,-0.0142,0.3202
1595,1184,851,34.409,33.844,-0.0541,0.0183,9.8312,0.3619,-0.2237,0.135
1600,1190,859,34.521,33.921,-0.0102,0.0661,9.7878,-0.1547,0.1202,0.2012
1605,1186,862,34.473,33.877,-0.0172,0.0106,9.8061,0.3045,0.6295,0.529
1610,1190,868,34.554,33.886,-0.0652,-0.0624,9.8227,-0.0852,0.2345,0.4522
1615,1182,868,34.502,33.962,-0.101,0.0739,9.8138,0.7573,-1.0688,0.5898
1620,1176,880,34.469,33.897,0.0391,-0.0638,9.7826,-0.3402,0.8616,0.1914
1625,1184,890,34.583,33.863,-0.0333,-0.0774,9.7661,0.3625,0.1921,0.1604
1630,1174,891,34.57,33.938,0.0338,0.0114,9.921,0.6374,-0.0252,0.486
1635,1176,888,34.422,33.869,0.0035,0.0124,9.7941,-0.2463,-0.2805,0.022
1640,1170,902,34.54,33.904,0.0546,0.0316,9.7705,-0.0286,1.5136,0.8661
1645,1160,901,34.521,33.913,-0.0108,-0.0753,9.8188,0.6352,0.4577,0.2275
1650,1169,911,34.535,33.883,0.043,-0.0268,9.6959,-0.0955,-0.2174,-0.3748
1655,1158,911,34.399,33.898,-0.0311,-0.0396,9.8358,0.2657,-0.3955,0.5455
1660,1154,909,34.5,33.965,-0.0301,-0.0356,9.8183,-0.0029,0.5838,-0.8469
1665,1153,915,34.498,33.865,0.0167,-0.066,9.8579,-0.5798,0.2434,-0.3338
1670,1151,920,34.456,33.877,-0.0886,0.0124,9.7543,0.553,-0.7533,0.5348
1675,1146,917,34.454,33.934,-0.0527,-0.0383,9.8078,0.3244,0.5268,-0.1429
1680,1143,917,34.488,33.875,0.1302,0.0106,9.7837,-0.5175,0.1282,-0.8359
1685,1144,917,34.545,33.783,0.0924,0.0824,9.8099,-0.4999,0.1999,0.1879
1690,1135,921,34.601,33.918,-0.015,0.0248,9.8169,0.1603,0.0064,0.3331
1695,1139,915,34.49,33.897,0.0583,0.0345,9.7391,0.3462,0.4407,0.1581
1700,1134,921,34.497,33.855,-0.0454,-0.0946,9.7593,1.363,-0.3043,-0.1254
1705,1132,920,34.44,33.883,-0.0271,0.0022,9.7426,-0.3297,0.5465,0.1925
1710,1124,915,34.496,33.877,0.1124,0.0299,9.7332,-0.0012,-0.2344,0.6863
1715,1122,910,34.494,33.914,-0.0287,0.0486,9.786,0.0281,-0.2604,-0.1124
1720,1128,917,34.467,33.874,-0.0164,0.0441,9.878,-0.2117,-0.1277,-0.1133
1725,1113,914,34.555,33.813,0.0361,-0.0764,9.8607,-0.2428,0.8842,-0.6031
1730,1117,917,34.51,33.839,-0.0201,-0.0736,9.8626,-1.2697,0.3667,-0.2736
1735,1106,912,34.524,33.901,-0.0892,-0.0401,9.8594,0.2592,-0.7699,-0.5142
1740,1111,908,34.545,33.922,0.0107,0.0171,9.7896,-0.3693,0.658,-0.2966
1745,1109,905,34.488,33.899,0.0013,-0.0505,9.819,0.1729,0.5943,-0.6472
1750,1103,903,34.54,33.898,-0.0312,0.0823,9.8417,-0.0293,-0.4565,-0.3021
1755,1101,909,34.471,33.844,0.0788,-0.0649,9.7911,0.0587,0.7377,-0.0753
1760,1093,899,34.456,33.863,0.0325,0.0015,9.8415,-0.5999,0.2208,-0.6945
1765,1099,896,34.496,33.867,-0.0188,0.0151,9.9388,-0.2659,-0.5114,-0.1671
1770,1101,900,34.393,33.866,0.1009,0.0151,9.7663,-0.5015,0.5564,-0.1238
1775,1093,895,34.554,33.866,0.0535,0.009,9.8732,-0.0182,-0.0462,-1.0306
1780,1090,895,34.46,33.804,-0.0588,0.0698,9.7844,0.5121,-0.2324,-0.2378
1785,1074,885,34.597,33.779,0.0575,-0.036,9.857,1.2437,-0.3934,0.4557
1790,1082,884,34.475,33.89,0.0044,0.0745,9.849,0.4632,-0.5133,-0.0205
1795,1082,890,34.489,33.917,-0.0728,-0.0591,9.8467,-0.1676,-0.7134,-0.0557
1800,1084,888,34.538,33.872,0.0275,-0.0033,9.8012,-0.2403,-0.9752,0.0339
1805,1075,882,34.535,33.844,0.0175,0.0572,9.8503,0.2797,-0.6188,0.2073
1810,1076,883,34.594,33.961,0.052,0.0688,9.7698,0.0528,-0.057,-0.3815
1815,1070,880,34.513,33.892,-0.0735,-0.0251,9.9206,0.443,0.1568,0.1697
1820,1066,871,34.553,33.91,-0.0061,0.0156,9.8101,-0.652,0.3774,-0.372
1825,1062,877,34.53,33.93,0.0418,-0.012,9.7456,1.0666,0.2738,0.4443
1830,1054,869,34.535,33.884,-0.0517,-0.0215,9.8311,0.073,0.406,0.324
1835,1063,871,34.536,33.93,-0.0041,0.0199,9.79,0.2095,0.0501,0.0295
1840,1057,866,34.512,33.913,-0.0308,-0.0043,9.728,0.3887,-0.3192,0.3712
1845,1049,864,34.566,33.798,0.0619,-0.018,9.7858,-0.3662,-0.39,-0.2678
1850,1034,866,34.591,33.9,0.0955,0.0262,9.7825,0.0676,-0.3057,0.2994
1855,1034,857,34.53,33.929,0.0554,0.0776,9.9418,0.3913,0.3967,0.5359
1860,1030,859,34.463,33.879,-0.0891,-0.1144,9.9264,-0.29,0.121,0.2892
1865,1027,860,34.525,33.919,0.0006,0.0213,9.878,0.4788,0.4403,-0.6205
1870,1015,858,34.48,33.891,0.0527,0.1586,9.8171,-0.0675,-0.6601,0.3724
1875,1017,853,34.527,33.803,0.02,-0.083,9.8252,0.4451,0.0666,0.1714
1880,1012,857,34.555,33.87,0.052,0.0308,9.8346,-0.2601,-0.4062,-0.4836
1885,989,856,34.549,33.968,-0.0487,-0.0312,9.8669,-0.0549,0.5286,-0.4044
1890,994,852,34.438,33.87,0.0372,0.0647,9.7792,-0.2246,0.2709,-0.8483
1895,977,849,34.461,33.914,-0.0315,-0.0068,9.8176,0.259,0.7542,0.423
1900,984,852,34.528,33.795,0.0311,-0.0484,9.8838,-0.2871,-0.5594,0.7545
1905,970,848,34.568,33.865,-0.0536,-0.0379,9.8614,0.7459,-0.7101,0.4767
1910,969,840,34.468,33.876,-0.042,0.0289,9.7165,-0.0592,0.3152,0.0235
1915,948,845,34.468,33.922,-0.1415,0.0239,9.8554,0.6501,-0.2519,-0.0056
1920,938,837,34.505,33.944,-0.0164,-0.0057,9.7877,-0.4345,-0.7609,0.1797
1925,930,845,34.555,33.817,-0.0186,-0.0138,9.7801,-0.0107,-0.5812,-0.0031
1930,922,837,34.447,33.882,0.0822,0.0874,9.803,0.152,0.0959,-0.16
1935,905,835,34.487,33.913,0.0062,-0.0102,9.878,-0.9119,-0.2149,0.4023
1940,907,832,34.53,33.924,-0.0517,-0.0191,9.833,0.5039,-0.6481,-0.3455
1945,896,834,34.453,33.896,0.0677,-0.0067,9.7682,-0.415,-0.459,0.4335
1950,893,826,34.518,33.831,-0.001,-0.0088,9.8102,-0.186,-0.7476,0.2497
1955,880,820,34.451,33.88,0.1026,-0.037,9.9282,0.106,0.6898,0.5824
1960,861,825,34.455,34.044,-0.041,0.042,9.7653,0.3934,0.2509,-0.0277
1965,854,815,34.506,33.844,0.0146,-0.0237,9.8088,-0.107,0.4212,0.1884
1970,846,809,34.524,33.894,0.0354,-0.004,9.6988,0.1564,-0.0887,-0.1348
1975,833,815,34.459,33.915,-0.0401,0.0312,9.8394,0.2093,-0.2171,0.1876
1980,836,801,34.442,33.884,0.0088,-0.1042,9.8591,0.6553,0.1708,0.2593
1985,826,803,34.503,33.884,0.1392,0.0141,9.8249,0.5461,-0.3658,0.3286
1990,817,796,34.497,33.941,0.0853,0.0076,9.7401,0.2059,0.218,-0.1684
1995,800,787,34.539,33.868,0.0266,0.1201,9.7605,0.0486,0.16,0.399
2000,800,785,34.531,33.91,-0.109,-0.0458,9.7134,-0.6409,-0.6744,0.0242
2005,792,785,34.531,33.866,0.0497,-0.0014,9.8058,0.4267,0.1948,-0.1212
2009,779,778,34.421,33.896,0.0178,-0.0361,9.7728,0.1342,-0.1958,-0.138
2015,775,767,34.537,33.924,-0.0324,-0.0275,9.8826,-0.5554,-0.2254,-0.0109
2020,771,769,34.5,33.829,-0.0724,-0.0163,9.8535,-0.2197,0.1644,-0.5468
2025,771,760,34.482,33.89,0.0568,0.007,9.7189,-0.188,1.0313,-0.3664
2029,761,748,34.551,33.924,0.1027,0.0645,9.8154,0.1873,0.3713,-0.2962
2035,754,749,34.481,33.903,0.0898,0.0677,9.804,-0.049,-0.4889,0.491
2040,747,737,34.56,33.932,-0.0586,-0.0002,9.8658,-0.3075,0.2103,-0.2063
2045,745,735,34.498,33.814,-0.0051,0.0552,9.7693,0.4155,0.061,0.6518
2050,751,727,34.516,33.89,0.0792,-0.0422,9.7553,-0.5102,0.1773,-0.8561
2055,748,719,34.5,33.964,0.0437,0.0355,9.8065,0.337,-0.2766,0.3405
2060,749,709,34.512,33.805,0.0322,0.0505,9.7881,-0.2919,-0.3863,-0.1253
2065,745,706,34.537,33.918,0.0002,-0.0756,9.8066,0.5614,-0.344,0.1146
2070,740,700,34.529,33.846,-0.0129,-0.0107,9.7818,0.6865,0.7864,-0.8838
2075,754,696,34.556,33.943,0.0232,-0.0159,9.8528,0.1152,0.5261,0.5398
2080,759,696,34.56,33.919,0.0455,0.0176,9.7896,0.2949,0.3535,-0.3967
2085,748,686,34.644,33.924,-0.08,0.0156,9.7935,-1.0232,-0.6665,0.643
2090,764,677,34.526,33.936,0.0205,-0.0143,9.8199,0.0636,-0.0625,-0.0777
2095,770,675,34.54,33.984,-0.0217,-0.0316,9.8148,-0.2918,0.0043,0.8267
2100,771,672,34.522,33.844,0.0011,-0.0206,9.675,-0.2589,-0.9989,0.1121
2105,778,661,34.455,33.847,-0.0595,-0.0272,9.8366,1.073,0.7614,0.0157
2110,790,664,34.589,33.956,0.0421,-0.0695,9.8946,0.8172,-0.1946,0.952
2115,791,658,34.402,33.884,-0.0121,-0.0503,9.7834,0.1405,0.0781,-0.8262
2120,811,652,34.63,33.849,0.0391,-0.0109,9.8041,0.3388,-0.5141,-0.3072
2125,810,652,34.523,33.876,-0.055,0.008,9.8165,0.8463,-0.4449,0.621
2130,819,652,34.515,33.901,0.0025,0.0131,9.7988,-0.1252,0.3926,0.8542
2135,834,641,34.521,33.793,0.0241,0.034,9.7843,0.9169,-0.4256,-0.3012
2140,843,638,34.572,33.816,0.0347,0.0576,9.7402,-0.9935,-0.3899,0.6469
2145,858,644,34.436,33.94,0.0323,-0.039,9.7542,-0.1773,0.9902,0.4571
2150,878,643,34.561,33.951,-0.0315,0.0605,9.7862,-0.3232,0.636,0.4834
2155,883,643,34.569,33.976,-0.0339,0.0123,9.8345,0.0521,0.092,0.4292
2160,890,643,34.531,33.843,-0.0059,0.0195,9.7975,-0.4049,0.6803,1.0453
2165,897,638,34.437,33.879,0.0047,0.0464,9.8877,0.4691,-0.5966,-0.1089
2170,911,646,34.479,33.926,-0.0633,-0.0209,9.814,0.2955,0.566,0.5086
2175,929,637,34.516,33.911,0.0213,0.0588,9.8273,0.1539,0.2081,-0.2178
2180,941,644,34.429,33.917,0.0487,-0.0093,9.8468,0.4471,-0.4783,0.0158
2185,953,640,34.577,33.832,0.0086,-0.0802,9.8423,1.037,0.2373,-0.2784
2190,962,654,34.557,33.907,-0.0145,0.0317,9.8238,-0.0679,-0.1532,0.588
2195,974,651,34.557,33.849,0.0593,0.0346,9.7536,0.9751,-0.4869,-0.0098
2200,1001,650,34.546,33.922,0.0089,0.0735,9.7513,0.1528,-0.3728,0.218
2205,1002,663,34.59,33.903,0.0006,0.0759,9.7817,0.7406,-0.3826,-0.3714
2210,1025,668,34.575,33.874,-0.0205,-0.0003,9.6976,0.1237,0.21,-0.0483
2215,1035,670,34.492,33.864,0.041,0.0234,9.804,0.1838,-0.3976,-0.539
2220,1041,672,34.544,33.845,0.0545,-0.0207,9.7883,-0.9906,0.4138,-0.8091
2225,1055,680,34.484,33.953,-0.0288,0.0627,9.7281,0.3691,0.7895,-0.438
2230,1070,682,34.578,33.926,-0.0495,0.0453,9.8232,1.2276,-0.4623,-0.3031
2235,1073,691,34.508,33.96,0.0266,0.0536,9.8361,-0.7776,-0.2479,0.4006
2240,1087,698,34.494,33.914,-0.0674,0.0574,9.7482,0.0434,-0.6471,0.2717
2245,1104,708,34.474,33.86,0.0078,0.0559,9.7671,0.0243,-0.2216,0.4658
2250,1104,707,34.439,33.898,-0.0617,-0.0824,9.8063,-0.3431,-0.7014,-1.184
2255,1112,722,34.429,33.891,0.0017,-0.1023,9.705,-0.2656,-0.158,0.0305
2260,1128,729,34.58,33.847,-0.026,0.006,9.7879,-0.0636,-0.2288,-0.1524
2265,1133,735,34.505,33.871,0.0017,-0.0832,9.8074,0.0153,0.1584,-0.3232
2270,1141,750,34.549,33.968,0.008,0.0179,9.8077,-0.4462,-0.2575,0.3191
2275,1153,748,34.494,33.89,0.06,0.0271,9.7668,0.5627,1.2815,-0.2844
2280,1158,758,34.483,33.893,-0.0769,0.0137,9.8274,-0.0559,0.7103,-0.4049
2285,1155,771,34.484,33.968,-0.0579,0.0337,9.7546,1.1996,0.5768,0.2413
2290,1162,774,34.505,33.922,-0.0307,-0.0329,9.7733,-0.2289,1.2628,0.4673
2295,1171,788,34.463,33.827,-0.0464,0.0059,9.8363,-0.006,0.2832,-0.2441
2300,1184,792,34.549,33.924,0.0215,-0.0025,9.7514,0.232,-0.2489,0.388
2305,1176,796,34.475,33.917,0.0348,0.0558,9.7691,-0.499,-0.2688,-0.5812
2310,1179,809,34.494,33.969,0.0361,-0.0564,9.7825,0.2024,0.2746,-0.3489
2315,1182,817,34.497,33.766,-0.0019,-0.0514,9.6967,0.4287,-0.3496,0.9687
2320,1188,826,34.531,33.884,-0.0276,0.0629,9.8737,-0.0004,-0.0458,-0.3053
2325,1178,832,34.514,33.845,-0.0143,0.079,9.8169,0.2582,0.5923,0.1358
2330,1182,838,34.525,33.891,0.0451,-0.0038,9.8582,-0.489,0.7569,0.0743
2335,1196,840,34.585,33.786,0.0154,0.0163,9.8117,0.0231,-0.7113,0.0725
2340,1197,855,34.512,33.914,-0.0447,0.0234,9.7928,-0.101,-0.1592,-0.7699
2345,1188,865,34.516,33.914,0.1295,-0.0038,9.7803,0.0768,0.7571,-0.2615
2350,1182,868,34.492,33.783,-0.0202,-0.0054,9.8226,0.4301,-0.6522,-0.4774
2355,1188,872,34.523,33.895,-0.0414,-0.0306,9.7836,0.4735,-0.6731,0.1336
2360,1188,882,34.494,33.88,0.1094,0.0419,9.8191,-0.7316,-0.8599,0.347
2365,1174,884,34.568,33.899,0.0175,0.0414,9.8374,-0.6317,-0.3667,-0.1384
2370,1177,887,34.486,33.912,-0.0392,-0.0526,9.7202,0.0137,-0.0227,-0.6796
2375,1182,896,34.613,33.982,0.0675,-0.0162,9.8061,-0.8492,-0.3538,-0.4628
2380,1167,898,34.415,33.952,-0.0805,0.0934,9.7508,-0.3165,0.4918,0.8965
2385,1172,901,34.529,33.997,-0.0079,0.0084,9.7539,0.7791,-0.2195,-0.3608
2390,1170,908,34.516,33.902,0.024,-0.0775,9.8077,0.26,-0.605,0.847
2395,1162,899,34.523,33.869,-0.0491,-0.0335,9.7938,0.2681,0.1307,0.7363
2400,1154,912,34.519,33.881,0.068,-0.0565,9.751,-1.2798,0.3006,-0.274
2405,1152,909,34.498,33.961,0.0431,0.036,9.8742,0.0317,-0.6295,0.1833
2410,1145,912,34.588,33.894,-0.0841,-0.01,9.7827,-0.3535,-0.2003,-0.9786
2415,1151,920,34.556,33.914,0.012,-0.0117,9.7079,0.5566,0.9292,0.5837
2420,1153,915,34.578,33.859,0.0183,0.0038,9.7687,0.7215,0.0899,-0.1771
2425,1154,915,34.468,33.903,0.0776,-0.0102,9.8278,0.1171,0.2747,0.0043
2430,1139,916,34.537,33.84,-0.0526,0.012,9.7445,-0.52,-0.1674,-0.535
2435,1133,919,34.547,33.93,0.0272,-0.0213,9.7788,0.9008,0.0446,0.1618
2440,1128,918,34.579,33.913,-0.0526,0.0247,9.8444,-0.4865,0.1331,-0.4704
2445,1127,918,34.52,33.865,0.0234,-0.0719,9.7552,-0.0497,0.7065,0.3899
2450,1130,914,34.481,33.821,-0.0079,-0.0105,9.8586,-0.1292,0.062,0.9407
2455,1125,916,34.437,33.834,-0.0391,-0.0355,9.7762,-0.6752,-0.3607,-0.3843
2460,1120,914,34.548,33.835,-0.0088,0.0198,9.8074,0.2377,0.4973,-0.0399
2465,1116,913,34.525,33.956,0.0141,0.0246,9.729,0.6867,-1.3173,0.0489
2470,1107,913,34.559,33.913,-0.0646,-0.0195,9.9017,-0.3569,-0.9421,0.1928
2475,1106,908,34.529,33.958,0.0312,0.0057,9.8295,0.7632,-0.0022,0.9821
2480,1106,910,34.584,33.917,0.064,-0.003,9.7987,0.492,-0.2663,0.1051
2485,1111,911,34.507,33.859,0.0635,0.0257,9.7644,0.9347,0.5567,-0.5328
2490,1099,908,34.511,33.906,-0.0123,-0.1123,9.9229,0.668,0.6037,-0.677
2495,1097,904,34.426,33.847,0.048,0.0351,9.7746,-0.3355,0.7403,-0.3074
2500,1110,899,34.502,33.865,0.0442,0.0261,9.7536,-0.8186,-0.4038,0.5019
2505,1099,900,34.537,33.941,0.0643,0.1073,9.8012,0.5059,0.902,0.5097
2510,1093,897,34.522,33.871,-0.074,0.0054,9.875,0.4645,0.3117,0.8195
2515,1092,894,34.54,33.858,-0.0172,0.0642,9.8422,-0.1193,-0.6195,0.3527
2520,1088,895,34.53,33.878,-0.086,-0.0202,9.7733,-0.7667,-0.1,1.5442
2525,1084,894,34.555,33.856,0.0399,0.0081,9.8287,0.1806,-0.3335,0.799
2530,1075,886,34.496,34.015,-0.0232,0.0204,9.7275,-0.0423,-1.1429,-0.1627
2535,1082,885,34.521,33.785,0.064,0.0118,9.7979,-0.422,-0.6803,-0.2014
2540,1072,883,34.493,33.895,0.0011,-0.0318,9.7813,-0.1749,0.8989,-0.8111
2545,1068,882,34.468,33.82,-0.0179,0.0712,9.7957,0.0534,0.1186,0.1078
2550,1070,875,34.515,33.866,-0.0021,0.112,9.7754,0.7415,-1.0873,-0.7708
2555,1067,875,34.471,33.864,-0.0606,0.0037,9.8677,-0.1667,0.0156,0.2501
2560,1067,873,34.518,33.927,-0.0367,0.0074,9.7833,0.2742,-0.4202,0.2862
2565,1068,875,34.55,33.867,-0.0146,0.0039,9.8034,-0.2145,-0.7171,0.2195
2570,1064,873,34.544,33.865,0.0123,0.0031,9.8478,-0.6045,-0.315,-0.521
2575,1063,868,34.562,33.956,0.0378,-0.0386,9.6877,0.2329,-0.4235,0.2987
2580,1057,871,34.543,33.915,0.0454,0.0091,9.7953,0.1336,0.2589,-0.0406
2585,1053,867,34.567,33.984,-0.0133,0.0101,9.7206,0.0169,-0.06,-0.2901
2590,1048,867,34.597,33.942,0.0018,0.0335,9.8393,-0.5259,0.1526,0.2796
2595,1039,862,34.465,33.929,0.0112,0.0154,9.8107,-0.7313,-1.2361,1.074
2600,1028,862,34.539,33.942,-0.0191,0.0414,9.8181,0.3081,0.0447,0.4192
2605,1028,865,34.514,33.868,-0.0185,-0.0252,9.789,0.003,-0.6297,-1.1169
2610,1021,861,34.535,33.98,0.0133,-0.0534,9.6736,-0.3138,-0.0898,0.0492
2615,1014,850,34.551,34.0,0.0423,-0.037,9.7936,-0.278,0.4356,-0.1047
2620,1012,852,34.433,33.905,-0.074,-0.0184,9.7318,-0.3899,-0.5737,-0.6331
2625,1004,854,34.391,33.924,0.0781,-0.0577,9.8192,-0.103,0.3629,-0.1026
2630,987,855,34.551,33.945,0.0231,-0.0622,9.764,-0.0374,0.2234,0.3366
2635,979,852,34.506,33.934,0.0077,0.0038,9.859,0.0958,0.2083,-1.1023
2640,977,847,34.528,33.894,-0.0167,0.0076,9.8922,-0.0251,-0.2356,0.5122
2645,978,845,34.558,33.881,-0.0373,-0.067,9.8079,0.6725,-0.292,-0.5055
2650,964,842,34.522,33.895,0.0227,-0.0119,9.8574,-0.4735,-0.2997,0.1944
2655,949,845,34.665,33.971,0.0661,0.0097,9.7422,-0.3139,-0.2626,-0.0573
2660,948,846,34.609,33.925,-0.064,0.024,9.7839,0.088,0.9938,-0.2901
2665,928,840,34.573,33.906,0.0073,-0.0924,9.8203,-0.1833,0.6049,-0.0813
2670,927,838,34.558,33.94,0.0197,-0.0201,9.7865,-0.1387,0.3014,-0.6176
2675,906,845,34.632,33.912,-0.0214,0.0075,9.8427,0.7936,-0.2883,-0.8783
2680,903,830,34.539,33.801,-0.0377,0.0475,9.8011,-0.3185,0.638,0.422
2685,889,833,34.581,33.87,-0.0179,-0.0784,9.8413,-0.6012,1.1504,0.3457
2690,879,831,34.579,33.873,0.0724,-0.0228,9.8364,0.6212,-0.9002,-0.4092
2695,878,823,34.513,33.892,0.0683,0.0338,9.7904,-0.0639,0.4356,-0.2324
2700,858,815,34.591,33.951,0.0352,0.0587,9.9012,0.3992,0.6101,0.1441
2705,859,813,34.508,33.898,-0.0442,-0.0617,9.8176,0.0162,-0.7437,0.2375
2710,851,817,34.511,33.886,0.0253,0.002,9.8398,0.1169,0.6719,0.0571
2715,839,808,34.561,33.831,0.0615,-0.0128,9.8561,0.448,-0.0605,-0.0155
2720,827,804,34.474,33.924,0.0232,-0.016,9.7781,0.8481,-0.3298,-0.0749
2725,816,804,34.565,33.943,-0.0317,-0.0175,9.8066,-0.3791,0.498,0.319
2730,815,797,34.544,33.922,0.0041,-0.0181,9.8534,0.1145,0.3351,1.207
2735,794,795,34.451,33.922,-0.0788,-0.0115,9.8455,0.233,0.2198,0.7785
2740,799,782,34.546,33.907,0.0281,0.0079,9.7879,0.1832,-0.1463,-0.0683
2745,784,780,34.516,33.81,-0.0218,0.027,9.7778,0.3985,-0.1343,0.4444
2750,775,774,34.537,33.838,0.0578,-0.066,9.7055,0.2234,0.1583,0.2209
2755,778,769,34.478,33.877,0.0217,0.0122,9.7753,-0.1962,0.7577,-0.5656
2760,770,761,34.514,33.886,0.0322,-0.043,9.7889,-0.6019,0.3486,1.0402
2765,753,755,34.557,33.868,0.0263,0.087,9.8145,0.0538,0.4956,0.1638
2770,760,756,34.423,33.849,0.0513,0.0042,9.8058,0.0843,0.7009,-0.5268
2775,757,749,34.445,33.909,-0.0126,0.0101,9.8385,-0.2364,-0.7164,0.0667
2780,747,738,34.545,33.951,0.0683,0.0164,9.8286,0.1892,0.4635,-0.7208
2785,741,728,34.544,33.931,-0.0538,-0.0268,9.7405,-0.6402,-0.9547,0.0324
2790,747,724,34.599,33.875,0.0566,-0.0253,9.772,0.1108,0.4512,-0.3913
2795,751,722,34.514,33.799,0.0167,-0.0345,9.8304,-0.0655,-0.4703,-0.0853
2800,748,722,34.534,33.915,0.0136,0.07,9.7968,0.7157,-1.2478,0.2136
2805,750,716,34.563,33.884,-0.0001,0.0374,9.7756,0.41,-0.9162,1.0665
2810,751,702,34.474,33.929,-0.0033,-0.0844,9.7602,1.5193,0.3343,0.0946
2815,748,699,34.489,33.957,0.0111,-0.0337,9.8316,-0.4892,0.0638,0.1625
2820,762,690,34.393,33.828,-0.0815,-0.0659,9.7512,-0.6776,-0.127,0.6417
2825,763,687,34.504,33.861,0.0579,0.0401,9.838,-0.316,0.1974,-0.7466
2830,771,681,34.515,33.938,0.0862,-0.0109,9.837,0.2588,-0.6282,-0.5868
2835,777,677,34.552,33.863,-0.0767,-0.035,9.7859,0.456,-0.2893,0.6119
2840,762,669,34.554,33.874,-0.0697,-0.0702,9.8205,-0.1296,-0.4804,-0.1693
2845,778,658,34.513,33.889,-0.0209,0.072,9.8364,-0.0571,0.2699,0.2892
2850,775,661,34.523,33.969,-0.04,0.1062,9.7455,0.4937,-0.2509,0.3773
2855,784,659,34.606,33.89,0.0249,0.0886,9.8294,-0.3697,-0.1958,-0.6401
2860,794,653,34.456,33.913,0.0253,0.0304,9.901,-0.5173,1.1458,0.1166
2865,811,651,34.47,33.823,0.056,0.0749,9.8541,0.0008,-0.1279,-0.1669
2870,818,652,34.549,33.875,0.0507,-0.0724,9.8753,1.0955,0.2435,0.0756
2875,831,650,34.635,33.833,0.0367,0.0791,9.769,0.4385,0.5736,-0.1979
2880,845,641,34.443,34.019,-0.0216,-0.0603,9.7995,0.5225,0.4399,-0.0435
2885,849,645,34.493,33.906,0.0094,-0.0636,9.7789,-0.8486,0.0225,-0.1334
2890,861,640,34.614,33.885,-0.0593,0.0422,9.8368,-0.0478,-0.045,-0.1642
2895,870,644,34.528,33.973,0.0901,0.054,9.7671,0.2268,1.0383,-0.5
2900,891,644,34.546,33.915,0.0519,0.0682,9.8189,-0.4508,0.6669,0.0798
2905,902,636,34.582,33.826,-0.0328,0.0787,9.8621,-0.1839,0.0648,-0.1259
2910,911,646,34.561,33.866,-0.0615,0.062,9.7878,0.0521,0.4519,-0.6593
2915,933,638,34.522,33.864,-0.0707,0.011,9.8652,-0.0923,-0.6633,0.2791
2920,934,641,34.66,33.869,-0.0589,-0.0894,9.8484,-0.2191,-0.0084,-0.4301
2925,951,654,34.521,33.845,0.0351,-0.0556,9.8774,-0.4304,0.2428,0.4717
2930,970,649,34.502,33.849,-0.0116,0.0306,9.819,0.3616,-2.0488,-0.2799
2935,975,649,34.612,33.957,0.0645,-0.0773,9.7541,-0.4985,0.4901,-0.1308
2940,1001,651,34.523,33.832,0.0699,0.092,9.7882,0.0707,-0.0802,-0.4969
2945,1007,656,34.538,33.916,-0.0014,0.0145,9.782,0.5962,-0.5876,-0.3246
2950,1025,666,34.536,33.913,0.0161,0.0552,9.8475,-0.1541,-0.1006,-0.7599
2955,1030,667,34.513,33.859,0.0352,0.0096,9.7877,0.4976,0.8606,-0.7846
2960,1043,674,34.489,33.875,-0.0844,-0.0071,9.844,0.1536,0.0768,-0.3022
2965,1062,680,34.508,33.917,-0.0257,-0.0449,9.8581,0.4453,0.553,0.3873
2970,1057,686,34.602,33.962,0.0225,0.0481,9.7524,-0.511,1.1181,-0.2562
2975,1078,693,34.442,33.834,0.0805,-0.0475,9.769,0.5039,-0.9027,-0.0727
2980,1095,699,34.55,33.883,0.0083,-0.0303,9.7659,-0.4304,0.1751,0.1493
2985,1099,705,34.53,33.904,-0.0116,0.0437,9.7565,0.3377,-0.0503,-0.3653
2990,1103,709,34.561,33.949,0.0134,-0.0257,9.8443,0.508,0.5192,-0.8396
2995,1113,723,34.442,33.908,-0.0704,-0.0028,9.7518,-0.2089,-0.0397,-0.4933
3000,1118,728,34.405,33.842,0.0167,-0.0323,9.729,-0.2363,-1.0328,-0.2785
3005,1137,736,34.61,33.894,0.043,0.0023,9.7608,1.8364,-0.8096,0.2204
3010,1142,746,34.601,33.848,-0.0171,-0.0301,9.756,0.6685,-0.6024,-0.0114
3015,1154,755,34.595,33.975,-0.0013,-0.0627,9.7526,0.095,0.7154,0.5233
3020,1158,762,34.595,33.811,-0.0964,-0.0292,9.9025,0.0112,-0.1148,0.853
3025,1159,770,34.546,33.936,0.001,-0.0035,9.7941,-0.4417,-0.2183,-0.0323
3030,1166,782,34.569,33.874,0.0497,-0.0093,9.7591,-0.8579,-0.0836,-1.1637
3035,1171,788,34.371,33.826,-0.0873,-0.0829,9.8362,0.0637,-0.4574,-0.0826
3040,1176,798,34.578,33.906,-0.0475,0.0581,9.9141,0.5299,-0.3007,-0.3047
3045,1175,808,34.603,33.866,0.078,-0.0475,9.8797,0.7117,-1.2278,-0.611
3050,1181,815,34.476,33.814,0.0777,-0.027,9.7323,-1.0194,-0.681,0.1807
3055,1175,824,34.521,33.969,0.0655,0.0247,9.7622,-0.0283,-0.1671,-0.372
3060,1181,827,34.471,33.831,-0.0528,0.0545,9.7786,0.3148,0.0117,-0.0974
3065,1191,831,34.426,33.882,-0.0084,0.0152,9.8062,-0.1901,-0.7929,0.5134
3070,1196,847,34.429,33.923,-0.0035,-0.0406,9.8651,-0.1111,-0.3184,0.2334
3075,1190,847,34.49,33.893,0.0078,-0.0011,9.822,-0.4956,0.4748,0.2654
3080,1189,853,34.527,33.925,-0.0425,0.0517,9.7884,-0.0421,0.6973,0.9081
3085,1185,868,34.534,33.931,-0.1081,-0.0797,9.8072,0.4051,-0.0884,-0.362
3090,1184,872,34.539,33.844,-0.0816,-0.0672,9.8104,0.1406,-0.211,-0.5322
3095,1189,872,34.529,33.89,-0.0077,0.0147,9.8021,-0.5936,-0.367,0.27
3100,1185,879,34.522,33.865,-0.0777,-0.079,9.7842,0.0902,0.0153,-0.1473
3105,1180,884,34.508,33.92,-0.0392,-0.01,9.7611,-0.877,0.4776,-0.131
3110,1180,891,34.536,33.871,-0.0179,-0.0567,9.7741,0.0376,0.2685,-0.5232
3115,1180,900,34.539,33.932,0.0237,0.0323,9.7938,0.2869,0.7822,-0.2528
3120,1174,896,34.611,33.977,0.0245,-0.0554,9.8132,0.5121,0.4571,0.2985
3125,1177,907,34.506,33.923,0.0223,-0.0378,9.8516,-0.3572,0.7403,-0.6487
3130,1166,909,34.415,33.899,-0.0671,-0.0962,9.8993,-0.4471,0.0658,-0.2474
3135,1167,910,34.569,33.894,0.0029,-0.049,9.8741,-1.2376,-0.4976,-0.6857
3140,1165,912,34.559,33.88,0.0401,-0.0048,9.8611,-0.6997,0.3299,0.7328
3145,1156,913,34.588,33.877,-0.0129,0.0017,9.8228,0.4323,-0.0446,0.0719
3150,1149,914,34.537,33.88,-0.09,-0.0228,9.9087,-1.6519,0.2774,0.8488
3155,1151,914,34.496,33.892,0.0591,-0.0392,9.8281,-1.1843,-0.3212,-0.2478
3160,1143,913,34.539,33.913,0.0557,-0.0136,9.8734,-0.2017,0.6963,0.2987
3165,1148,915,34.502,33.865,-0.0655,0.0485,9.8269,0.5091,-0.345,-0.719
3170,1145,918,34.53,33.997,-0.0193,-0.0198,9.8394,0.8721,-0.4724,-0.7477
3175,1131,918,34.475,33.906,-0.0048,0.0136,9.8181,-0.214,0.1621,0.0934
3180,1135,920,34.466,33.888,-0.0381,-0.0555,9.8692,0.8611,-1.442,0.0885
3185,1136,914,34.61,33.891,0.0504,0.0197,9.837,0.763,0.6959,0.4262
3190,1121,914,34.439,33.918,-0.0189,0.0507,9.8062,0.0033,-0.8391,-0.1054
3195,1119,915,34.575,33.849,-0.0304,-0.0375,9.8181,0.9845,-1.0077,0.149
3200,1122,914,34.573,33.933,-0.0622,0.0579,9.8901,1.0403,0.2998,-0.0015
3205,1118,916,34.545,33.941,-0.0184,0.0421,9.8753,-0.5967,0.8835,0.7306
3210,1111,917,34.488,33.939,0.0257,-0.076,9.9186,-0.5227,0.3723,0.3735
3215,1117,917,34.619,33.915,-0.098,-0.008,9.9053,0.39,-0.0042,-0.9537
3220,1110,908,34.48,33.895,0.052,0.1133,9.8116,1.1312,-0.0172,-0.496
3225,1095,913,34.513,33.924,0.0501,-0.0326,9.748,-1.2362,0.3218,0.0952
3230,1110,905,34.539,33.938,-0.001,0.0001,9.7483,0.3416,-0.2412,-0.6807
3235,1108,905,34.502,33.982,-0.0365,-0.0113,9.8387,0.0809,0.1925,-0.6886
3240,1094,898,34.581,33.927,0.0598,0.0583,9.7897,0.4528,-0.5501,-0.2261
3245,1100,900,34.495,33.911,0.0621,0.0142,9.8854,-0.3376,0.3944,-0.5358
3250,1093,898,34.429,33.926,-0.0028,0.0602,9.7047,0.383,-0.4096,-0.4145
3255,1093,893,34.601,33.925,-0.0288,-0.0329,9.8208,-0.3214,-0.2277,0.0694
3260,1094,893,34.523,33.892,0.0207,-0.0611,9.8018,-0.6269,0.8003,-0.7632
3265,1087,893,34.59,33.883,-0.0049,-0.0746,9.7808,-0.3296,0.4293,0.1469
3270,1082,888,34.531,33.828,-0.0246,0.0981,9.9064,0.2702,0.506,-0.3123
3275,1082,884,34.579,33.877,-0.0022,0.0056,9.8186,-0.2864,-0.4839,-0.6153
3280,1076,884,34.493,33.929,0.0254,0.0021,9.8178,0.8223,-1.0763,1.0956
3285,1083,885,34.603,33.909,-0.041,-0.0073,9.8487,-0.1236,0.3497,-0.7664
3290,1073,879,34.583,33.857,-0.0378,0.0273,9.7521,0.0533,-1.0251,0.2816
3295,1066,877,34.529,33.891,0.0678,0.0268,9.8309,-0.2883,0.8621,-0.0026
3300,1067,872,34.542,33.848,0.0145,0.0018,9.7577,1.2131,0.0793,-0.1994
3305,1072,871,34.499,34.015,0.0651,0.0006,9.7533,0.2611,-0.0557,0.464
3310,1056,868,34.513,33.84,0.0614,-0.0264,9.8553,0.5648,0.2039,-0.1207
3315,1059,870,34.475,33.847,0.038,0.0205,9.7489,-0.4192,-0.9991,0.4179
3320,1050,869,34.579,33.967,0.0553,0.064,9.821,0.4603,-0.171,0.1644
3325,1050,864,34.425,33.903,-0.0527,0.0505,9.8383,-0.3474,0.4637,-0.284
3330,1040,868,34.501,33.861,-0.0211,0.0023,9.8181,0.603,-0.1209,-0.0636
3335,1040,867,34.562,33.944,-0.0786,0.0124,9.7872,1.2244,-0.514,0.3167
3340,1023,860,34.577,33.841,-0.0192,-0.0666,9.7945,0.6364,-0.8119,-0.3241
3345,1026,858,34.44,33.88,0.016,0.0023,9.7731,0.2112,0.9695,0.7857
3350,1018,863,34.557,33.925,0.0084,0.1073,9.8099,-0.1718,0.1453,-0.9395
3355,1018,861,34.545,33.981,-0.021,0.0116,9.8328,0.8952,-0.7742,-1.0178
3360,1006,859,34.555,33.841,0.1039,-0.0567,9.8386,0.9115,-0.1393,-0.0459
3365,994,847,34.512,33.888,0.0101,0.0605,9.7456,0.8898,-0.2533,-0.6344
3370,994,850,34.478,33.815,-0.0294,-0.0003,9.7835,0.6411,-0.1873,0.105
3375,975,854,34.478,33.888,0.0343,-0.0383,9.8489,0.048,0.0826,0.0595
3380,974,852,34.552,33.934,-0.0578,0.0246,9.8506,0.6018,0.4105,-0.5999
3385,971,852,34.537,33.92,0.0456,-0.0261,9.7349,0.3465,0.9454,0.191
3390,960,846,34.536,33.948,0.0042,-0.0638,9.8437,0.0625,0.6601,0.7644
3395,945,841,34.542,34.046,-0.0754,-0.1202,9.8539,-0.2041,-0.1658,0.5654
3400,949,839,34.462,33.959,-0.0401,0.0982,9.8608,-0.8791,0.0116,-1.0177
3405,931,838,34.535,33.944,0.006,-0.0204,9.6889,-0.0273,0.9274,0.0327
3410,924,836,34.53,33.85,-0.0937,0.0865,9.8093,-0.6564,0.0166,-0.3833
3415,914,835,34.489,33.907,-0.0302,-0.0542,9.8994,-0.7465,0.2997,0.3937
3420,906,833,34.456,33.943,-0.0468,-0.0167,9.8066,-0.3265,0.1395,-0.2881
3425,888,835,34.563,33.884,-0.0059,0.1171,9.8885,-0.6891,1.1912,-0.8985
3430,886,828,34.503,33.862,0.0363,-0.0218,9.7792,-0.4235,0.3597,-0.0693
3435,866,827,34.465,33.934,-0.0011,-0.0195,9.7893,-0.788,0.1003,-0.3518
3440,857,822,34.534,33.901,-0.0357,0.0261,9.802,0.896,-0.1774,-0.2009
3445,861,816,34.564,33.902,0.0086,-0.0073,9.8298,1.3286,0.3632,-0.0585
3450,838,817,34.549,33.954,0.0345,-0.0233,9.7887,0.3606,-0.9217,0.4364
3455,838,809,34.594,33.942,-0.0141,-0.0052,9.7593,0.2364,-0.2919,0.3024
3460,829,803,34.536,33.896,0.0503,0.0496,9.8779,-0.2502,0.2206,-0.1111
3465,822,799,34.47,34.024,0.0106,0.0457,9.8843,0.1484,0.387,-0.021
3470,812,794,34.449,33.929,-0.0274,0.0295,9.7474,-0.205,-0.6302,0.4767
3475,798,789,34.532,33.837,-0.0513,-0.0137,9.7993,0.4363,0.1217,0.1046
3480,798,784,34.508,34.014,-0.042,-0.0415,9.8128,-0.274,0.1274,1.3292
3485,795,786,34.493,33.887,-0.0015,-0.0591,9.8617,-0.0521,0.1292,-0.2018
3490,783,775,34.514,33.908,0.0814,-0.0112,9.7807,0.8756,0.8885,-0.4052
3495,773,765,34.588,33.859,0.0183,0.0433,9.7142,-0.5446,-0.1673,-0.0713
3500,772,759,34.506,33.875,0.0377,0.0197,9.7257,-0.4442,-0.8776,0.5707
3505,765,759,34.494,33.9,-0.0289,-0.0223,9.7889,-0.2279,1.5693,-0.687
3510,765,752,34.515,33.959,-0.0484,-0.0415,9.7654,-0.1193,0.6006,-0.1832
3515,756,747,34.509,33.982,-0.0619,-0.003,9.7921,0.1988,0.795,-0.0735
3520,761,736,34.566,33.875,0.0284,-0.0363,9.8098,1.2357,-0.7201,-0.789
3525,746,733,34.532,33.888,0.0,-0.0861,9.7738,0.3825,0.4074,-0.0605
3530,747,730,34.566,33.92,0.0163,-0.0346,9.8302,0.4036,0.352,-0.7368
3535,748,721,34.468,33.899,0.0021,0.0309,9.806,-0.4946,0.3661,-0.0179
3540,749,717,34.486,33.922,0.054,-0.0125,9.7841,0.0146,-0.022,0.426
3545,751,707,34.607,33.788,0.0752,0.0333,9.7662,-0.3206,0.5459,0.4279
3550,756,698,34.523,33.869,-0.0117,0.1662,9.8044,-0.7553,-0.1139,0.5116
3555,749,694,34.477,33.931,0.0559,-0.0004,9.8695,-0.1622,0.1934,0.1492
3560,748,692,34.532,33.97,0.0112,-0.0825,9.8597,-0.0216,-0.2378,-0.6461
3565,759,686,34.524,33.891,0.0911,-0.0061,9.8,0.0163,0.2335,0.5811
3570,763,680,34.538,33.871,-0.0962,0.0594,9.8538,0.4167,0.2016,-0.27
3575,771,675,34.559,33.904,-0.0057,0.09,9.6748,0.4316,-0.227,-0.545
3580,759,670,34.564,33.922,-0.0083,-0.0319,9.8163,0.0784,0.3953,0.5324
3585,778,663,34.566,33.951,-0.044,0.0199,9.7436,-0.0479,-0.2866,-0.1552
3590,788,657,34.562,33.897,-0.0073,-0.0313,9.8109,-0.4281,-0.0762,0.2505
3595,790,659,34.522,33.948,0.0857,0.0569,9.8029,0.029,-0.0652,-0.2779
3600,803,653,34.505,33.828,0.0624,0.0082,9.7737,0.1,0.3423,-0.3854
3605,806,650,34.643,33.966,0.0089,-0.027,9.8282,0.1423,-0.8699,-0.5688
3610,818,644,34.529,33.993,0.0117,0.0371,9.834,-0.22,-1.4622,0.1517
3615,834,642,34.561,33.898,0.0832,0.0784,9.9139,0.0008,0.4094,-0.2011
3620,840,639,34.458,33.775,-0.1401,0.0298,9.8642,-0.7337,-0.2985,-0.7464
3625,855,642,34.479,33.859,-0.0389,-0.0803,9.8142,0.237,0.3653,-0.1897
3630,869,641,34.495,33.922,-0.0249,0.0408,9.8675,0.1185,-0.1918,-0.3906
3635,884,641,34.578,33.948,-0.0763,-0.0279,9.7985,-0.5593,-0.1087,0.0104
3640,885,635,34.545,33.959,-0.0436,-0.0342,9.7265,0.6803,0.0455,0.0721
3645,904,638,34.566,33.824,0.0844,-0.0251,9.771,-1.251,0.5162,-0.5526
3650,915,644,34.511,33.941,0.0072,-0.0471,9.777,1.0534,-0.3863,0.333
3655,933,640,34.571,33.91,-0.0317,-0.0541,9.8933,0.2937,0.8291,0.0524
3660,938,640,34.497,33.967,-0.0777,-0.0891,9.8158,0.1071,0.3035,-0.2652
3665,955,647,34.58,33.835,0.0144,0.0123,9.8135,-0.107,-0.0187,-0.4751
3670,963,651,34.522,33.889,0.0133,0.0431,9.8509,-0.0633,-0.3656,0.0599
3675,979,652,34.526,33.891,-0.049,0.0007,9.8616,-0.03,0.2131,0.6044
3680,996,658,34.501,33.918,-0.0608,0.0259,9.8658,0.6533,0.1168,-0.8971
3685,1005,660,34.493,33.91,0.035,-0.0212,9.928,-1.1039,0.1571,0.5017
3690,1021,663,34.546,33.878,-0.0649,-0.0763,9.842,-0.2745,-0.2858,-0.7124
3695,1032,671,34.542,33.963,0.0565,0.006,9.8356,-0.3183,-0.1569,-0.7061
3700,1038,675,34.537,33.946,0.0175,-0.0096,9.8385,-0.008,0.4436,-0.0436
3705,1059,680,34.553,33.903,-0.0765,-0.0415,9.7918,-1.2057,0.079,-0.4605
3710,1074,686,34.49,33.899,-0.0309,0.0414,9.7854,-0.965,-0.3772,-0.1743
3715,1076,692,34.53,33.902,-0.0222,-0.007,9.8322,0.2917,0.1194,0.2679
3720,1094,699,34.508,33.939,-0.0497,-0.0536,9.8423,0.7941,0.5855,0.2091
3725,1097,703,34.555,33.934,-0.0171,-0.042,9.8064,-0.2667,1.006,0.5646
3730,1107,713,34.582,33.851,-0.0408,0.0302,9.8134,0.1657,0.5512,0.4442
3735,1112,720,34.505,34.039,-0.0495,0.0415,9.7847,0.1279,0.447,-0.5037
3740,1128,734,34.513,33.832,-0.0975,0.0691,9.7981,0.3426,0.1483,0.0955
3745,1137,740,34.536,33.811,0.0753,-0.0255,9.8996,0.4865,-0.0655,-0.5965
3750,1152,745,34.443,33.923,-0.037,0.0168,9.772,-0.283,-0.6601,0.7321
3755,1150,751,34.489,33.908,0.0603,-0.088,9.7682,-0.4666,-0.2975,0.508
3760,1146,764,34.589,33.784,0.0053,-0.0685,9.8117,-0.3634,0.2824,0.3572
3765,1156,769,34.605,33.957,0.0845,-0.0387,9.6897,0.4183,-0.5411,0.1618
3770,1169,779,34.518,33.88,0.0271,0.0029,9.8004,0.4363,-0.131,0.072
3775,1172,789,34.506,33.896,-0.0276,0.0458,9.8616,0.067,0.1457,-0.2117
3780,1177,801,34.503,33.974,-0.0007,-0.0201,9.8581,-0.4817,0.6545,-0.1261
3785,1185,805,34.528,34.029,-0.11,-0.0902,9.8398,0.3641,0.3247,-0.3381
3790,1180,807,34.603,33.939,0.0085,-0.0013,9.8213,0.1716,-0.6498,-0.3044
3795,1184,819,34.569,33.938,0.0211,-0.0586,9.8054,-0.2791,0.296,-0.0026
3800,1189,819,34.537,33.85,0.0026,0.0294,9.7845,-0.3869,0.4252,0.1121
3805,1187,836,34.444,33.861,0.0613,-0.0834,9.8251,0.4446,0.4888,-0.5987
3810,1180,841,34.47,33.876,0.005,-0.0375,9.8475,-0.2189,-0.8504,-0.0391
3815,1193,850,34.531,33.92,0.0016,-0.0178,9.7377,-0.1874,0.4873,0.807
3820,1190,854,34.54,33.868,0.0247,-0.0779,9.7849,0.181,-1.071,-0.2608
3825,1192,868,34.578,33.961,0.0074,0.0108,9.7626,-0.2017,0.2916,0.7852
3830,1181,871,34.527,33.91,0.0144,-0.0442,9.8166,-0.3702,0.6827,0.0901
3835,1188,874,34.544,33.891,-0.0432,0.0591,9.8428,-0.308,0.5432,-0.1525
3840,1182,881,34.543,33.869,-0.0451,0.0297,9.8096,0.1483,-0.0341,-0.5973
3845,1187,886,34.473,34.027,0.0538,-0.0008,9.8307,0.0513,-0.6134,-0.647
3850,1176,889,34.598,33.847,-0.0446,0.0571,9.7953,-0.4855,1.1165,-0.9832
3855,1171,891,34.529,33.913,-0.0043,-0.0174,9.8636,1.0754,-0.0273,-0.415
3860,1182,893,34.505,33.923,0.0207,-0.0695,9.7741,0.0581,0.3925,-0.3279
3865,1169,905,34.49,33.936,0.0148,0.0688,9.7592,0.0946,-0.2666,0.5384
3870,1159,906,34.497,33.951,0.0734,0.0046,9.8896,0.0811,0.0745,-0.298
3875,1162,910,34.532,33.941,0.0074,0.0683,9.8443,0.4185,-0.4752,0.4822
3880,1153,907,34.389,33.932,0.084,0.0303,9.8024,0.0445,-0.0306,0.2193
3885,1150,910,34.494,33.872,-0.0497,0.0678,9.7668,0.3706,0.5678,0.3288
3890,1149,917,34.478,33.875,0.0446,0.0089,9.7694,0.4602,0.6476,0.09
3895,1139,915,34.608,34.014,0.0431,0.0087,9.8185,-0.5801,0.1301,0.0235
3900,1143,919,34.536,33.872,-0.0143,-0.0164,9.7636,0.0828,-0.2795,0.123
3905,1139,917,34.397,33.932,0.0506,-0.0148,9.7921,-0.1252,-0.2698,0.6816
3910,1135,918,34.539,33.921,0.0347,-0.0416,9.8529,-1.2637,0.1219,-0.0667
3915,1137,922,34.539,33.944,-0.0508,0.0466,9.78,-0.4294,-0.4576,0.2829
3920,1135,924,34.499,33.854,-0.0275,-0.0129,9.8006,1.0855,-0.1791,-0.3008
3925,1124,915,34.509,33.887,0.0382,0.0733,9.7123,0.1622,0.6827,-0.6851
3930,1123,921,34.513,33.867,-0.0379,-0.0396,9.8599,-0.3045,1.0387,0.1578
3935,1115,918,34.521,33.878,-0.0225,0.0451,9.8333,0.0982,-0.309,-0.1218
3940,1125,925,34.54,33.912,-0.0888,-0.0107,9.8353,-0.6476,0.3614,-0.6349
3945,1116,908,34.583,33.896,-0.0105,0.0146,9.8231,-0.3509,0.1386,-0.6589
3950,1123,919,34.536,33.915,-0.002,-0.0207,9.8214,0.1361,0.6721,0.656
3955,1110,913,34.487,33.817,0.0153,0.0199,9.7852,-0.7061,-1.1749,1.3731
3960,1109,909,34.608,33.912,0.025,0.0452,9.8912,0.1327,-0.1036,0.7153
3965,1101,909,34.533,33.946,-0.0284,-0.0167,9.7702,0.1238,-0.144,-0.0956
3970,1101,901,34.498,33.886,-0.0215,0.0157,9.7985,-0.4105,-0.1112,-0.6171
3975,1109,906,34.573,33.892,-0.0316,-0.0118,9.809,-0.26,0.5526,-1.3346
3980,1099,901,34.515,33.886,-0.0033,0.0046,9.8273,0.0195,-0.4669,0.7483
3985,1097,902,34.613,33.867,-0.0183,0.0847,9.755,-0.4257,-0.2599,0.5331
3990,1097,898,34.574,33.981,0.0266,0.0103,9.865,0.5825,-0.0962,-0.6276
3995,1099,898,34.608,33.917,0.0425,0.071,9.8745,0.5332,0.1249,-0.6526
4000,1087,892,34.49,33.884,0.0154,-0.0207,9.877,0.4213,-0.6678,-0.4598
4005,1082,891,34.546,33.924,-0.0378,-0.0115,9.8035,-0.598,-0.1211,0.0489
4010,1089,892,34.582,33.969,0.0212,0.031,9.8428,0.2307,0.2368,0.0561
4014,1092,882,34.564,33.9,-0.0192,0.118,9.8112,0.0672,-0.4963,0.0389
4019,1072,884,34.553,33.946,-0.0445,0.0094,9.9054,0.8774,-0.5652,-0.3761
4025,1074,878,34.528,33.953,0.0524,0.0355,9.8611,-0.9016,-0.227,0.4404
4030,1061,877,34.597,33.904,0.0331,-0.0146,9.8316,-1.1405,0.1571,-0.3669
4035,1062,878,34.41,33.911,0.0897,0.0411,9.7076,0.0445,0.631,-0.1083
4040,1064,875,34.513,33.957,0.1236,0.0425,9.7409,-0.5175,0.6562,0.0892
4045,1069,878,34.531,34.013,-0.0649,0.089,9.8161,0.307,0.2642,0.5865
4050,1068,872,34.604,33.978,-0.0511,-0.0002,9.8128,-0.0951,-0.3142,0.9421
4054,1059,867,34.562,33.9,0.0003,0.1799,9.7669,0.0969,0.1088,0.0101
4059,1059,870,34.538,33.948,0.0168,0.0315,9.7956,1.07,0.001,0.1238
4065,1047,864,34.523,33.938,0.1173,-0.0251,9.8548,-0.0073,0.0916,0.5336
4070,1039,863,34.533,33.928,-0.1019,0.0092,9.7656,-0.4964,-0.5498,0.21
4075,1030,870,34.5,33.94,0.0807,-0.037,9.7662,-0.3314,-0.0165,0.4004
4080,1024,862,34.592,33.92,0.0744,0.0036,9.8271,0.5652,0.2759,0.3794
4085,1027,860,34.447,33.874,0.1059,-0.0143,9.8209,0.0346,-0.1992,-0.4911
4090,1019,858,34.546,33.899,-0.0404,-0.003,9.8206,0.8602,0.8788,0.0741
4094,1005,862,34.526,33.821,-0.003,0.0678,9.7886,-0.3928,0.1462,-0.1551
4100,1007,856,34.478,33.916,-0.0395,-0.0096,9.9116,-0.5664,0.8008,0.0687
4105,1000,855,34.509,33.887,0.0047,0.0434,9.8399,0.0746,0.7604,-0.11
4110,996,854,34.48,33.974,-0.0094,-0.0251,9.8016,-0.4908,0.1705,0.1475
4115,976,853,34.44,33.949,0.0434,-0.0101,9.8019,-0.2783,0.7207,0.0084
4120,973,849,34.425,33.913,-0.0721,0.0162,9.8049,-0.4262,-0.2984,-0.0972
4125,963,846,34.5,33.836,0.034,0.0453,9.7928,1.3941,0.5775,0.054
4130,962,846,34.524,33.921,-0.0202,0.0303,9.7985,-0.3097,-0.5872,-0.4564
4135,957,845,34.513,33.975,-0.0565,0.0025,9.8469,-0.2311,0.34,-0.1293
4140,943,841,34.556,33.868,0.0603,-0.0714,9.8995,0.2036,-0.6433,-1.0186
4145,935,840,34.455,33.934,-0.0114,0.0558,9.8039,-0.3557,-0.5697,0.5775
4150,914,835,34.501,33.985,-0.0045,0.0585,9.9237,-0.0082,0.1818,-0.8336
4155,914,837,34.537,33.88,-0.0242,-0.1153,9.8061,0.0504,-0.2455,-0.8399
4160,907,833,34.509,33.933,-0.0185,0.0397,9.8765,0.6499,0.0461,-0.1966
4165,901,834,34.507,34.015,0.0616,-0.0101,9.7802,0.1097,0.0371,-0.274
4170,878,827,34.615,33.888,-0.0632,-0.0681,9.8219,0.036,-0.0095,-0.3177
4175,873,821,34.541,33.886,0.0217,-0.0392,9.8062,0.2858,-0.442,0.0395
4180,866,819,34.618,33.865,0.0035,-0.0246,9.7852,0.0457,-0.5782,1.3625
4185,862,816,34.513,33.903,-0.0002,0.0197,9.7804,0.6018,-0.1241,-0.0517
4190,844,813,34.631,33.926,-0.0516,-0.0583,9.8556,0.2154,-0.4821,0.157
4195,839,809,34.497,33.887,-0.0823,0.0387,9.717,0.3694,0.0866,-0.0215
4200,822,809,34.462,33.822,0.0427,0.0605,9.7918,0.4318,-0.0349,1.0568
4205,825,799,34.49,33.91,-0.0879,-0.0502,9.8962,0.3182,-0.1102,0.8198
4210,807,798,34.52,33.879,0.1206,-0.0363,9.7419,1.0446,0.9512,1.1161
4215,799,788,34.545,34.007,-0.0643,0.0954,9.7987,-0.3122,0.1896,-0.1294
4220,793,788,34.58,33.925,-0.0227,0.0367,9.8017,-0.2015,0.6793,-0.9074
4225,785,781,34.619,33.867,0.0649,0.0027,9.7874,-0.2076,-0.3208,0.4764
4230,786,772,34.585,33.95,-0.0517,-0.037,9.7494,0.0111,0.1327,-0.136
4235,772,772,34.517,33.936,0.1203,0.0654,9.8106,-0.1116,0.3003,-0.0992
4240,775,763,34.498,33.943,0.0207,-0.104,9.8121,0.2195,0.7493,-0.5058
4245,766,762,34.569,33.952,-0.0228,-0.0247,9.7486,0.2797,-0.1137,0.481
4250,763,747,34.535,33.93,-0.0021,0.0233,9.8822,0.7752,-0.0864,-0.3741
4255,750,746,34.519,33.9,-0.0335,0.0425,9.8249,1.9978,0.0709,-0.6066
4260,756,740,34.562,33.783,-0.0869,0.0559,9.7989,0.1405,-0.0836,0.6608
4265,744,735,34.473,33.869,-0.0308,-0.0802,9.9203,-0.2471,0.1125,0.3649
4270,749,727,34.563,33.908,-0.009,-0.0021,9.721,-0.1106,-0.2144,0.3021
4275,744,718,34.548,33.84,0.0421,0.0338,9.8179,0.5094,0.3775,0.81
4280,739,717,34.506,34.018,0.0662,-0.0128,9.7796,-0.0312,-0.1771,-0.4613
4285,751,711,34.564,33.928,-0.0542,-0.1042,9.7344,0.2135,-0.3479,-0.038
4290,750,700,34.496,34.016,-0.0433,-0.0992,9.7529,0.5774,0.019,0.4213
4295,744,701,34.545,33.923,-0.0023,-0.0503,9.8031,0.2426,0.3708,0.3112
4300,751,688,34.583,33.987,0.0384,0.016,9.8085,-0.3401,0.2617,0.911
4305,755,686,34.595,34.028,0.004,0.0174,9.8055,0.3582,-0.385,0.5747
4310,767,682,34.505,33.912,-0.061,-0.0192,9.8042,-0.2558,0.0871,0.0834
4315,763,673,34.532,33.892,0.0445,-0.0206,9.7931,-0.2699,-0.7684,-0.1406
4320,772,670,34.532,33.867,-0.027,0.0644,9.8294,0.2311,0.1035,0.1612
4325,779,665,34.536,33.874,0.0107,0.0957,9.7735,0.0367,-0.6402,0.1375
4330,785,660,34.553,33.805,0.0824,0.0271,9.8018,0.1529,-0.3702,-0.1339
4335,797,656,34.49,33.884,-0.0087,0.02,9.7615,0.9603,-0.2019,0.2021
4340,809,651,34.609,33.931,-0.0265,-0.0626,9.8272,0.7528,-0.0224,-0.2458
4345,806,652,34.533,33.92,0.0504,0.0312,9.805,0.2439,0.0318,-0.0799
4350,818,648,34.57,33.861,-0.0509,-0.0325,9.8905,-0.4567,0.4676,0.5527
4355,825,645,34.547,33.891,-0.0455,0.0391,9.8225,-0.2586,0.6692,-0.3184
4360,846,643,34.525,33.893,-0.0071,-0.0177,9.75,0.003,-0.0951,0.0283
4365,863,638,34.53,33.924,-0.0079,-0.0205,9.8264,0.1438,-0.1864,-0.0676
4370,860,640,34.528,33.93,-0.0475,-0.0722,9.7101,-0.0876,-0.0514,-0.2876
4375,874,639,34.583,33.855,0.0837,0.0371,9.7918,0.5256,-0.3125,0.083
4380,889,644,34.583,33.8,-0.0206,-0.0032,9.8136,-0.3043,-0.1738,0.0894
4385,913,635,34.541,33.971,0.0796,-0.0472,9.8166,-0.126,0.0535,0.2434
4390,910,638,34.525,33.95,0.0122,-0.0236,9.8367,-0.1551,1.0405,-0.1861
4395,936,637,34.558,33.959,0.0074,-0.0628,9.8862,-1.0007,0.5119,-0.9647
4400,941,647,34.576,33.963,0.0543,0.0216,9.7216,0.7466,-0.2726,0.3307
4405,964,650,34.576,34.034,0.0137,-0.0913,9.7479,0.3406,0.0438,-0.3106
4410,962,645,34.474,33.955,0.0329,0.0086,9.7336,-0.0999,-0.2145,-1.4429
4415,988,649,34.515,34.01,0.0035,-0.0234,9.7442,-0.2114,0.3963,-0.1117
4420,999,651,34.608,33.889,-0.0223,-0.021,9.8885,0.0636,0.1625,0.0263
4425,1000,664,34.517,33.93,0.0587,-0.0373,9.8205,0.278,-0.2816,0.3215
4430,1018,667,34.536,33.884,0.0617,0.0376,9.7618,-0.1993,0.1192,-0.4785
4435,1023,667,34.483,33.91,0.0202,0.0129,9.8944,0.063,-0.5507,0.1149
4440,1041,673,34.533,33.856,-0.0521,-0.0749,9.8257,-0.3299,0.1308,0.2966
4445,1060,679,34.499,33.873,-0.0795,-0.0335,9.8317,0.2126,-0.6655,-0.9156
4450,1070,686,34.488,33.898,-0.0364,-0.0342,9.6992,0.3217,-0.0122,0.0397
4455,1077,693,34.572,33.924,-0.0469,-0.0045,9.7806,-0.2436,0.0423,0.587
4460,1092,701,34.567,33.896,-0.0295,0.0698,9.8645,0.1733,0.3127,-0.7356
4465,1106,702,34.552,33.866,-0.0446,-0.0474,9.8029,-0.4587,-0.0671,-0.7686
4470,1109,707,34.56,33.835,-0.0213,-0.0577,9.8076,0.536,-0.9967,0.7311
4475,1119,721,34.465,33.93,0.0471,0.0595,9.7613,0.3368,-0.3865,-0.4239
4480,1131,730,34.499,33.875,0.0464,0.0261,9.7845,0.2819,0.7129,-0.6576
4485,1134,733,34.51,33.904,-0.0294,-0.0084,9.8734,0.5884,-0.8916,-0.9203
4490,1140,744,34.565,33.957,-0.0199,0.0609,9.8333,0.5784,-0.5503,0.1331
4495,1156,756,34.595,33.958,-0.0273,-0.0147,9.7887,-0.3331,0.1962,0.5801
4500,1152,756,34.548,33.893,0.0422,-0.0152,9.8142,-0.0947,-0.0882,-0.4271
4505,1164,767,34.431,33.939,0.0003,0.0597,9.8549,-0.6556,0.2068,0.6768
4510,1166,776,34.46,33.949,0.1198,-0.0381,9.8763,-0.4476,-0.2083,-0.1975
4515,1175,790,34.573,33.857,-0.0509,0.0457,9.8079,0.8951,0.0453,0.8721
4520,1174,803,34.573,33.904,-0.0574,-0.0069,9.8734,-0.4211,0.0411,0.2081
4525,1179,806,34.629,33.953,-0.0568,0.0641,9.761,0.229,0.0096,-0.2787
4530,1188,812,34.52,33.953,-0.0853,-0.0125,9.7423,0.738,-0.3133,0.7375
4535,1174,818,34.472,33.944,-0.0011,0.0074,9.8384,-0.0311,0.4267,-0.2504
4540,1184,824,34.651,33.935,0.0322,-0.0638,9.7621,0.6938,0.1786,0.1338
4545,1186,836,34.457,33.902,-0.0584,0.0181,9.796,-0.6965,1.4063,0.214
4550,1197,838,34.599,33.958,0.0688,-0.0903,9.8644,-0.0264,0.3846,0.1389
4555,1198,853,34.593,33.927,0.0565,-0.0091,9.8611,-0.7928,1.3265,-0.493
4560,1182,850,34.592,33.863,0.0167,-0.0109,9.8074,0.1887,0.2287,-0.0567
4565,1193,859,34.533,33.81,-0.0096,0.0083,9.7508,-0.0775,0.1151,-0.1377
4570,1180,867,34.505,33.897,-0.0642,-0.0749,9.8279,-0.3508,-0.5456,1.0133
4575,1196,874,34.519,33.895,0.0341,0.0074,9.7615,0.5231,-0.3235,0.0004
4580,1176,882,34.478,33.915,-0.0655,-0.0214,9.824,-0.9314,-0.5062,-0.2886
4585,1190,886,34.553,33.98,-0.0244,-0.0056,9.72,0.3512,0.5081,-0.4599
4590,1173,891,34.503,33.9,-0.0453,0.0152,9.7698,0.0043,-0.1911,0.118
4595,1176,890,34.499,34.006,-0.0002,0.0137,9.787,-0.6979,0.21,-0.3178
4600,1171,896,34.556,33.942,-0.015,0.0296,9.8041,0.279,0.6691,1.2322
4605,1168,902,34.573,33.921,-0.0044,-0.0393,9.7915,0.3952,-1.2982,-0.8781
4610,1157,904,34.56,33.926,-0.0385,-0.0086,9.8015,-0.9046,-0.2556,0.2462
4615,1167,908,34.47,33.972,0.0164,0.0435,9.8401,0.6966,-0.2362,-0.5447
4620,1153,914,34.537,33.944,0.0133,-0.1185,9.8088,-0.5147,-0.779,-0.1819
4625,1162,911,34.564,33.933,-0.0474,0.0566,9.8175,1.2029,0.3716,0.8763
4630,1149,915,34.449,33.919,-0.0621,0.0705,9.7875,0.1812,-0.54,0.068
4635,1145,916,34.579,33.931,-0.062,-0.0295,9.7521,0.4666,0.1496,-0.4371
4640,1146,913,34.626,33.896,0.0703,0.1134,9.8144,0.0581,0.4357,-0.3427
4645,1140,918,34.615,33.888,0.0074,0.1401,9.7153,-0.1461,0.2181,0.1027
4650,1140,920,34.454,33.977,0.069,0.1121,9.7662,-0.295,-0.8274,0.5823
4655,1132,915,34.557,33.916,0.0663,-0.0259,9.8413,0.1496,0.8307,0.0034
4660,1130,912,34.591,33.973,-0.0093,-0.0855,9.8108,-0.5626,-0.6937,-0.5281
4665,1123,916,34.595,33.857,0.0652,-0.0187,9.8402,0.1519,-0.2935,-0.3033
4670,1119,913,34.556,33.975,0.0641,-0.0721,9.7953,0.546,0.7884,-0.0303
4675,1120,917,34.607,33.885,0.0011,0.0897,9.7447,0.1394,-0.2808,-1.0556
4680,1117,915,34.514,33.876,-0.0328,0.0008,9.7221,-0.3136,-0.1548,0.3071
4685,1121,913,34.461,33.892,0.0335,-0.0814,9.8149,0.1274,0.7323,0.3589
4690,1107,917,34.571,33.927,-0.0429,-0.0241,9.8738,-0.5324,0.2322,-0.1389
4695,1113,918,34.581,33.992,0.0111,0.0087,9.855,-0.5272,-0.9343,1.1372
4700,1100,912,34.612,33.906,-0.0006,-0.0329,9.7713,-0.9116,-1.0247,1.3559
4705,1099,911,34.556,33.922,-0.0194,0.0538,9.7502,-0.4424,0.0969,-0.6081
4710,1106,901,34.617,33.898,-0.068,-0.0313,9.7565,-0.1286,-0.5149,-0.1006
4715,1102,898,34.513,34.005,0.0708,0.1197,9.8258,0.2756,-0.8573,0.2097
4720,1099,904,34.593,33.871,-0.045,-0.006,9.7944,-0.1674,0.4035,0.0412
4725,1090,903,34.482,33.913,0.0685,-0.0014,9.7979,0.1123,-0.0699,-0.0072
4730,1086,893,34.589,33.881,0.0216,0.0229,9.7702,-0.4877,0.2217,-0.4586
4735,1095,894,34.497,33.957,0.0108,0.0057,9.8686,0.216,0.2151,-0.3812
4740,1100,902,34.564,33.865,-0.1227,-0.0754,9.7445,-0.2789,-0.8676,0.2273
4745,1092,892,34.491,33.974,0.0631,-0.0335,9.8201,0.846,-0.5451,1.1406
4750,1085,891,34.55,33.95,0.0788,-0.0581,9.7948,-0.0627,0.4041,0.2391
4755,1082,885,34.497,33.899,0.0169,0.0376,9.8255,-1.1769,0.3244,-0.0508
4760,1081,883,34.496,33.965,-0.0686,0.0749,9.7961,0.5168,-0.7435,-0.3714
4765,1078,881,34.561,33.925,-0.0205,-0.0978,9.7528,-0.7629,0.4791,-0.154
4770,1076,879,34.555,33.987,-0.0132,-0.0992,9.7876,-1.2367,0.9074,-0.0069
4775,1065,871,34.551,33.989,-0.0608,0.0483,9.9294,-0.5262,0.7767,-0.2895
4780,1066,875,34.561,33.789,0.0518,-0.0717,9.8042,-0.4372,0.21,0.7428
4785,1070,876,34.571,33.969,0.0001,0.0474,9.7096,0.4103,-0.5004,-0.1478
4790,1056,871,34.559,33.896,-0.0548,-0.0754,9.8556,-0.476,0.2173,0.0453
4795,1062,870,34.602,33.905,0.0496,-0.0014,9.8511,0.8302,0.4405,0.1055
4800,1050,871,34.518,33.917,-0.0265,0.0146,9.7414,0.108,-0.1311,0.9661
4805,1054,868,34.5,33.852,0.0359,0.0167,9.8383,0.2078,0.2124,-1.1735
4810,1044,871,34.63,33.877,0.02,0.0403,9.8363,-0.9066,-0.2848,-0.945
4815,1033,862,34.592,33.918,-0.1141,-0.0298,9.885,-0.7388,-0.1721,0.383
4820,1031,860,34.49,33.881,-0.0599,0.0216,9.7417,-0.0919,0.2707,-0.4345
4825,1021,858,34.457,33.84,-0.0171,0.0516,9.7937,0.7072,-0.2928,0.1444
4830,1008,861,34.578,33.918,0.0054,0.0123,9.8968,-0.4204,-0.1514,-0.4676
4835,1013,857,34.566,33.91,-0.0265,0.0355,9.8589,-0.0607,-0.5285,0.3152
4840,1006,857,34.519,33.845,0.0279,0.0043,9.8327,0.1776,-0.9824,-1.2503
4845,999,857,34.526,33.893,-0.0112,0.0236,9.8202,-0.516,-0.2984,-0.0941
4850,991,849,34.485,33.962,-0.054,-0.0129,9.769,-0.5548,0.2328,0.082
4855,979,852,34.553,33.947,-0.0108,-0.0364,9.7984,0.0273,-0.1162,-0.3719
4860,972,848,34.543,33.91,-0.0183,0.0008,9.7713,-0.8787,0.7847,0.2009
4865,964,850,34.586,33.868,-0.0076,0.1346,9.8088,0.6864,0.2622,-0.2842
4870,953,850,34.498,33.913,-0.0565,-0.0385,9.8127,0.6808,0.8178,0.095
4875,944,848,34.542,33.787,0.0464,0.0389,9.839,-0.1041,0.7421,0.3274
4880,944,835,34.58,33.841,0.0123,-0.1119,9.7582,0.2352,-0.0561,-0.0565
4885,927,845,34.556,33.932,0.0463,0.0179,9.9483,-0.3761,0.1224,-1.011
4890,918,840,34.52,33.892,0.0348,-0.0215,9.8148,0.8277,-0.0806,0.2721
4895,913,834,34.596,33.958,-0.0078,-0.0383,9.7312,0.2609,0.334,-0.5221
4900,912,828,34.465,33.838,0.0023,-0.0561,9.8249,0.1161,-0.3593,0.2228
4905,899,829,34.547,33.901,-0.0387,-0.0271,9.7712,-1.0144,-0.2711,-0.8779
4910,882,828,34.442,33.963,0.0208,-0.037,9.8475,0.324,-0.1588,0.0114
4915,880,825,34.525,33.934,0.0114,0.059,9.7958,-0.2566,-0.3024,0.0235
4920,866,816,34.468,33.921,-0.0139,-0.0027,9.8232,-1.0936,0.2935,-0.6886
4925,854,820,34.595,33.843,-0.0628,0.0078,9.7812,-0.2267,1.2298,-0.6444
4930,853,810,34.543,33.886,0.0787,0.0009,9.8958,0.8435,-0.6147,-0.0123
4935,834,810,34.499,33.965,0.0047,0.0614,9.7539,-0.1385,0.1477,0.741
4940,824,807,34.488,33.895,-0.0006,0.0323,9.7512,0.8938,-0.2714,-0.4716
4945,814,805,34.543,33.869,0.1217,-0.0034,9.8018,-0.0308,0.1987,-0.6546
4950,806,790,34.54,33.927,0.0195,0.0193,9.7801,-0.0219,-0.6591,0.1114
4955,801,788,34.533,34.003,0.0045,0.0492,9.8,0.2835,0.5161,-0.5848
4960,791,788,34.492,33.864,-0.0222,-0.0541,9.7623,0.5395,-0.0126,0.4171
4965,794,778,34.536,33.947,0.0716,0.0417,9.7381,0.6404,0.3159,-0.4426
4970,776,774,34.521,33.989,-0.037,-0.0117,9.8233,-0.4385,-1.0578,0.0705
4975,783,769,34.587,33.896,-0.0601,-0.0771,9.7318,0.1646,-0.0466,0.0033
4980,770,765,34.57,33.966,-0.0941,-0.0151,9.8344,0.1648,-0.3008,-1.1954
4985,764,761,34.545,33.982,-0.0141,-0.0083,9.858,-1.1668,0.1534,0.2541
4990,761,753,34.542,33.858,-0.0421,0.0543,9.8249,0.5252,0.1673,0.6014
4995,754,744,34.651,33.928,0.0097,-0.0859,9.8709,-0.5731,-0.6247,0.3535
5000,752,742,34.546,33.943,-0.0487,0.0518,9.839,0.246,0.0508,1.0064
5005,750,737,34.402,33.919,-0.061,-0.0287,9.8113,1.058,-0.5269,0.2933
5010,749,731,34.485,33.924,-0.0288,-0.0286,9.7943,0.067,-0.9528,0.0217
5015,745,716,34.55,33.996,0.0562,0.0594,9.8401,-0.499,0.255,1.169
5020,738,714,34.567,33.844,-0.0411,-0.068,9.8548,0.0887,-0.9594,-0.2099
5025,747,710,34.554,33.906,-0.021,-0.0421,9.8838,0.1238,0.1751,-0.167
5030,750,704,34.457,33.87,-0.0096,-0.0339,9.7303,-0.8912,-1.4681,0.2218
5035,750,696,34.597,33.971,-0.0273,-0.0853,9.7772,0.2722,-0.224,-0.1176
5040,753,691,34.578,33.846,-0.0067,0.0123,9.6926,-0.3068,0.1167,-0.307
5045,755,687,34.566,33.916,0.0691,-0.0096,9.8126,-0.7014,-0.4251,0.7012
5050,758,679,34.599,33.793,-0.0601,0.0294,9.7914,0.368,0.6272,0.0941
5055,770,684,34.53,33.838,0.0675,0.0022,9.8563,0.0309,0.611,-0.6341
5060,767,667,34.547,33.903,-0.0276,0.0448,9.7855,-0.3962,0.2131,0.361
5065,780,666,34.586,33.894,0.0738,0.0905,9.7822,-0.7448,0.0197,-0.9088
5070,784,667,34.593,33.955,-0.0059,0.0283,9.7624,-0.1978,0.2576,-0.2511
5075,796,663,34.637,33.922,-0.0333,-0.0493,9.8739,0.1024,0.4494,0.1924
5080,805,657,34.582,33.876,-0.0309,-0.0236,9.8333,0.2121,-0.1174,-0.4882
5085,812,651,34.496,33.88,-0.0785,0.0074,9.7997,1.0082,0.3471,-0.4799
5090,822,647,34.57,33.883,-0.0012,0.0383,9.83,0.4083,-0.6966,0.0833
5095,829,638,34.544,33.921,-0.0911,0.0524,9.8622,0.0055,-0.0804,0.444
5100,846,638,34.526,34.003,-0.0125,-0.0109,9.7731,-1.2598,-0.3363,-0.0622
5105,852,641,34.635,33.945,0.0427,0.0205,9.7941,-0.4092,0.4248,-0.9919
5110,868,638,34.63,33.858,0.0235,0.0273,9.8306,1.0832,0.0248,1.4078
5115,868,639,34.625,33.898,0.0188,-0.017,9.8212,0.6363,0.7838,0.2854
5120,892,641,34.593,33.892,0.0191,-0.016,9.7997,-0.3972,-0.4042,0.0737
5125,905,641,34.479,33.801,-0.0218,-0.0687,9.8577,0.4485,0.2712,0.3083
5130,912,640,34.576,33.897,0.006,0.0163,9.788,-0.2199,0.0496,0.4282
5135,933,636,34.612,33.922,0.0408,-0.013,9.8175,0.8039,-0.3516,0.5172
5140,945,648,34.529,33.891,-0.0197,0.0977,9.8071,-0.1565,0.4751,-0.2281
5145,954,643,34.552,33.935,0.0728,0.0137,9.7563,-0.2306,-0.5745,-1.1458
5150,975,652,34.552,33.879,-0.0993,-0.0744,9.8769,0.8137,0.0219,-0.3529
5155,979,656,34.571,33.94,0.0004,0.009,9.7685,0.2283,0.5762,-0.5173
5160,986,654,34.39,33.936,0.0277,0.0122,9.8336,0.1005,-1.1395,-0.0165
5165,1006,660,34.563,34.003,-0.024,0.0038,9.8036,0.2144,0.2163,0.1287
5170,1022,661,34.569,33.822,0.0328,-0.0051,9.7463,-0.3121,0.1313,0.0534
5175,1031,665,34.504,33.977,0.0855,-0.0177,9.852,0.1922,0.306,0.7946
5180,1043,675,34.61,33.965,-0.0716,-0.0049,9.8075,0.0976,0.3177,0.4078
5185,1066,682,34.543,33.873,-0.0596,0.0316,9.8026,0.0614,0.3246,0.0537
5190,1057,685,34.458,33.921,0.0217,-0.0034,9.7742,-0.2338,-0.0201,0.0678
5195,1083,693,34.471,33.952,0.0208,-0.0551,9.7631,-0.5263,-0.9191,-0.4878
5200,1088,700,34.572,33.843,0.0112,0.0542,9.8547,-0.0365,0.3282,-0.378
5205,1104,701,34.484,33.922,-0.0562,0.0437,9.8834,0.917,-0.7595,0.3067
5210,1111,711,34.526,33.83,0.0294,-0.0332,9.7469,0.3556,-0.1,-0.2684
5215,1120,722,34.522,33.943,0.022,0.0599,9.8341,0.4133,-0.5696,-0.7662
5220,1119,733,34.574,33.932,-0.04,-0.005,9.8059,0.1266,0.0192,0.0404
5225,1130,737,34.502,33.876,-0.06,0.023,9.7762,0.1632,0.6101,0.2516
5230,1141,743,34.534,33.914,0.0004,0.0604,9.7413,-0.1499,-0.4238,0.7295
5235,1145,751,34.594,34.015,-0.0258,0.0657,9.7929,0.4591,-0.1869,0.0085
5240,1155,759,34.613,33.991,0.0333,-0.0619,9.8575,0.3222,-0.6156,-0.5633
5245,1158,772,34.541,33.88,-0.0162,-0.0567,9.7713,-0.7693,0.2169,-0.3191
5250,1166,778,34.488,33.964,0.0308,0.0037,9.8004,-0.113,0.7845,0.5315
5255,1176,784,34.533,33.926,-0.0315,-0.003,9.8631,-0.0114,-0.1264,0.0432
5260,1174,795,34.564,33.941,-0.0344,0.1124,9.7791,0.1461,0.1803,-0.0333
5265,1171,803,34.517,33.857,-0.0496,-0.0123,9.736,-0.3104,0.4345,0.2305
5270,1182,813,34.555,33.98,0.0058,-0.0244,9.7553,-0.6239,-0.1449,-0.3521
5275,1190,818,34.511,33.959,0.0015,-0.047,9.8416,-0.5929,-0.7883,-0.2752
5280,1186,824,34.515,33.915,-0.0728,-0.0842,9.7999,-0.0495,-0.6719,-0.0877
5285,1182,838,34.55,33.866,0.0458,0.0305,9.7693,-0.6489,-0.4628,0.0683
5290,1185,840,34.649,33.896,-0.0423,-0.0275,9.8088,-0.4523,1.0734,0.0519
5295,1187,848,34.57,33.922,-0.024,0.0495,9.7989,0.3565,-0.4205,0.5624
5300,1185,852,34.544,33.968,0.0673,0.1216,9.9378,0.0909,0.1468,0.1524
5305,1192,857,34.543,33.92,0.0099,-0.0469,9.7772,-0.0905,-0.1643,0.3305
5310,1195,875,34.494,34.027,0.0243,-0.0107,9.7675,-0.3914,-0.3581,0.0654
5315,1185,876,34.568,33.869,0.0035,0.0325,9.7805,1.383,0.1792,-0.1262
5320,1176,879,34.494,33.874,0.0243,-0.0702,9.8573,-0.8032,0.2922,-0.1366
5325,1188,882,34.579,33.833,0.0698,0.042,9.7738,-0.0417,0.4165,0.3482
5330,1185,893,34.608,33.846,0.0009,-0.0021,9.7753,0.1473,-0.3235,0.141
5335,1184,898,34.516,33.933,0.0162,0.05,9.8681,0.5685,-0.0495,0.9169
5340,1176,899,34.591,33.945,0.0209,0.0474,9.796,0.1035,0.2126,-0.5506
5345,1178,906,34.533,33.819,-0.113,0.1039,9.7799,0.48,0.7983,-0.3128
5350,1170,909,34.523,33.919,0.0311,0.0932,9.7819,-0.9806,0.2818,0.1051
5355,1158,906,34.484,33.803,0.0817,-0.063,9.7078,-0.7495,-0.0097,0.4395
5360,1164,912,34.555,33.855,-0.0823,0.0111,9.7033,-0.6342,-0.3203,-0.5688
5365,1161,913,34.518,33.899,0.0231,-0.0174,9.7005,-0.8645,0.2897,-0.4037
5370,1148,916,34.456,33.927,-0.0067,-0.0056,9.7994,-0.4185,-0.0349,0.0732
5375,1153,915,34.534,33.928,0.0505,0.0326,9.8065,0.6774,-0.3242,-0.5309
5380,1147,922,34.494,33.862,0.0669,0.0138,9.8307,0.0798,-1.0613,-0.2506
5385,1141,916,34.505,33.879,0.0168,-0.1319,9.7841,-0.081,0.1686,-0.2709
5390,1140,918,34.483,33.914,-0.0504,-0.0368,9.7784,0.8702,-0.942,-0.2715
5395,1139,920,34.515,33.935,-0.0408,0.0471,9.7104,0.3792,-0.4748,0.1428
5400,1127,917,34.609,33.934,0.0203,-0.016,9.8648,-0.1086,0.9125,-0.0736
5405,1133,918,34.609,33.928,0.045,-0.0339,9.8382,-0.1277,-0.2364,-0.5943
5410,1125,918,34.546,33.91,0.0239,0.0518,9.7937,-0.3022,0.5685,-0.3718
5415,1118,912,34.606,33.899,0.0608,0.0027,9.7213,-0.206,-0.3537,0.1453
5420,1126,915,34.509,33.871,-0.0064,0.0065,9.7219,0.4186,0.3875,-0.0292
5425,1125,920,34.561,33.95,0.0368,0.0048,9.8822,-0.1507,-0.6433,0.1588
5430,1116,912,34.538,33.981,0.0499,-0.0221,9.8188,-0.337,0.2531,-0.7385
5435,1107,913,34.513,33.952,0.0538,-0.0705,9.9021,-0.305,0.0852,-0.1568
5440,1109,905,34.557,33.888,0.0123,0.1422,9.8985,-0.7106,-0.1512,-0.3587
5445,1101,907,34.525,33.98,-0.026,-0.0644,9.8669,-0.6537,0.3507,0.0098
5450,1101,911,34.49,33.909,-0.0328,0.014,9.8411,0.1925,-0.1288,0.0039
5455,1102,904,34.545,33.963,0.0349,-0.0409,9.8983,-1.0808,-0.3363,0.8617
5460,1102,897,34.656,33.984,-0.0615,-0.0753,9.7896,-0.5772,0.3232,0.4314
5465,1096,900,34.554,33.873,0.0295,0.0384,9.7563,0.4057,-0.7092,0.4943
5470,1096,892,34.662,33.903,-0.0252,0.0688,9.7319,0.1818,-0.7175,-0.3572
5475,1088,895,34.46,33.942,0.008,0.0393,9.8098,-0.383,0.3364,0.8446
5480,1093,897,34.56,33.84,-0.0258,-0.004,9.7502,0.6828,0.0276,-0.241
5485,1089,890,34.472,33.942,-0.1402,-0.1777,9.7817,-0.2037,0.6354,0.3085
5490,1073,885,34.418,33.926,-0.029,0.0397,9.8767,-0.7258,-0.4899,0.1512
5495,1083,882,34.554,33.993,0.0812,-0.0023,9.7164,0.5486,-1.1227,-0.0213
5500,1078,887,34.579,33.927,0.0578,-0.0037,9.8464,-0.7636,0.4604,-0.1922
5505,1076,879,34.557,33.925,0.0261,0.0445,9.7406,-0.4858,-0.3633,0.3452
5510,1087,878,34.554,33.954,0.1331,-0.0847,9.7398,-0.3807,0.1937,-0.114
5515,1070,876,34.45,33.915,0.0044,0.0991,9.8274,0.5946,0.1397,-0.9794
5520,1062,871,34.589,33.962,-0.0398,-0.1124,9.822,0.7823,-0.1866,-0.3277
5525,1066,873,34.572,33.92,0.0505,-0.0036,9.8028,0.0373,0.1038,-0.1168
5530,1066,869,34.606,33.918,-0.0159,0.0313,9.8241,-0.4479,0.224,-0.1147
5535,1050,868,34.547,34.006,-0.036,-0.0463,9.8488,0.292,-0.5143,0.1981
5540,1056,870,34.581,33.953,-0.0678,0.0662,9.6967,0.151,0.3093,-0.008
5545,1047,866,34.549,33.846,-0.1055,0.0154,9.7148,0.1991,-0.0915,-0.0065
5550,1037,862,34.582,33.9,-0.0661,0.0213,9.7358,0.0599,-0.0,0.3579
5555,1035,861,34.586,33.822,-0.0708,0.0597,9.7923,-0.09,1.0835,-0.0353
5560,1024,859,34.541,33.88,0.03,-0.0172,9.8415,-0.0017,-0.2745,0.7786
5565,1027,866,34.615,33.881,-0.0099,-0.0951,9.8559,-0.755,0.7848,-0.2217
5570,1025,860,34.503,33.942,0.0571,-0.0414,9.8489,0.7948,-0.3842,0.0702
5575,1024,857,34.552,33.9,-0.0297,-0.016,9.8693,-0.3302,-0.53,0.5927
5580,1003,855,34.51,33.909,-0.0141,-0.0242,9.7689,-0.0449,0.0535,-0.8758
5585,1000,853,34.493,33.921,-0.0113,0.0018,9.8774,0.1522,0.2552,-0.2069
5590,997,855,34.541,33.907,0.0173,-0.0119,9.8131,-0.0628,-0.4091,0.7531
5595,981,857,34.562,33.924,0.0109,-0.006,9.7664,-0.3259,0.7649,0.2665
5600,975,849,34.56,33.902,0.0385,0.0518,9.8159,0.3991,0.2902,0.7738
5605,970,850,34.568,33.932,-0.0016,0.0044,9.7402,-0.4603,0.2996,-0.1941
5610,950,848,34.549,33.899,-0.0438,-0.0392,9.8765,-0.2554,0.1839,-0.0391
5615,949,845,34.583,33.942,-0.0483,-0.0011,9.753,0.3116,0.2659,-0.0444
5620,937,838,34.6,33.934,0.1047,-0.0088,9.8125,0.2142,-0.4092,1.2713
5625,923,836,34.507,33.922,-0.0735,-0.0094,9.7659,-0.0345,0.3573,-0.1317
5630,920,836,34.549,33.933,-0.0357,0.0863,9.8891,0.1717,-0.354,0.1505
5635,911,829,34.554,33.927,-0.0053,0.0741,9.9059,-0.2932,0.1815,0.0096
5640,903,838,34.594,33.899,-0.0472,0.0377,9.8135,-0.793,0.2475,-0.104
5645,892,832,34.566,33.946,-0.0232,-0.0385,9.8687,0.6601,0.2085,-0.6981
5650,885,828,34.467,33.917,0.0243,0.0135,9.7792,-0.2175,-1.3828,-0.5438
5655,882,820,34.602,33.924,0.0596,-0.0098,9.8054,0.5323,-0.214,0.1994
5660,872,814,34.543,33.976,-0.0674,0.0879,9.8347,-0.0171,0.3369,1.0769
5665,856,818,34.591,33.84,0.054,0.1134,9.8991,-0.7134,-1.0943,0.6728
5670,844,819,34.46,33.877,-0.012,0.0498,9.889,-1.0071,-0.083,0.4378
5675,845,809,34.566,33.915,-0.0453,0.0599,9.8658,-0.278,0.0032,0.6575
5680,826,809,34.48,33.934,-0.0188,0.0877,9.8529,0.4968,0.1474,-0.1987
5685,817,798,34.574,33.98,-0.0083,-0.0568,9.883,0.1947,0.7308,-0.1936
5690,824,791,34.454,33.863,0.0411,0.0277,9.8325,-0.7144,0.0451,-0.4717
5695,802,788,34.484,33.867,0.0402,0.0135,9.7405,0.198,-0.7519,0.11
5700,790,792,34.552,33.993,-0.0308,0.0155,9.8037,-0.3054,-0.0313,-0.4299
5705,781,780,34.559,33.911,-0.0554,0.0447,9.7135,-0.0757,-0.4477,-0.0253
5710,781,772,34.597,33.925,-0.0764,-0.0551,9.8562,-0.3504,0.9524,0.058
5715,779,771,34.618,33.978,-0.0267,0.0017,9.7694,-0.3614,0.5909,0.3864
5720,763,759,34.528,33.996,-0.042,-0.0244,9.7482,-0.0589,0.1288,0.5648
5725,762,762,34.57,33.946,-0.0574,-0.097,9.8242,-0.1121,0.5204,-0.1385
5730,751,753,34.546,33.909,0.1268,-0.0107,9.8733,0.6786,0.1259,-0.3769
5735,749,743,34.523,34.038,-0.0769,-0.0753,9.8939,-0.0687,-0.2232,0.103
5740,754,735,34.594,33.875,-0.0661,0.103,9.8313,0.2922,-0.244,-0.0579
5745,750,733,34.54,33.998,-0.0391,-0.0014,9.787,-0.1165,0.4952,0.0122
5750,760,728,34.538,33.999,-0.015,0.0279,9.8634,0.404,-0.2582,-0.1086
5755,745,720,34.523,33.924,0.0627,0.0787,9.7773,-0.6106,0.2446,-0.8753
5760,752,719,34.574,33.872,0.0136,-0.0756,9.8283,-0.1904,0.5468,0.6192
5765,752,710,34.609,33.938,0.1372,0.0649,9.8405,0.2061,-0.8037,-0.1925
5770,746,697,34.564,33.963,-0.0145,-0.0669,9.7881,0.3073,-0.5675,-0.5467
5775,752,704,34.589,33.985,0.0798,-0.0438,9.7875,-0.224,0.432,-0.0344
5780,749,692,34.569,33.908,0.0714,-0.0006,9.7763,0.0752,-1.0227,0.7567
5785,765,686,34.549,33.867,0.0007,0.0069,9.8149,-0.0003,-0.0582,0.5647
5790,756,681,34.602,33.901,0.0111,0.0305,9.7653,0.1288,-0.3073,-0.2358
5795,763,675,34.485,33.912,-0.0191,-0.0072,9.8047,-0.0525,0.5702,0.1064
5800,768,668,34.559,33.877,0.0372,-0.0767,9.7889,-0.3433,0.2592,0.3715
5805,780,662,34.525,33.985,0.0644,0.1198,9.7764,0.1227,-0.0699,-0.2798
5810,785,659,34.493,33.916,-0.0109,-0.0707,9.8499,0.0744,-0.4602,-0.1426
5815,795,653,34.597,33.988,-0.0143,0.0315,9.8688,-0.5886,0.0618,-0.3388
5820,803,657,34.52,33.913,-0.0456,-0.0229,9.791,0.5305,0.5455,0.4186
5825,811,649,34.548,34.013,-0.0429,-0.0533,9.795,-0.2002,0.0858,0.0326
5830,823,650,34.594,33.94,0.0393,0.0851,9.7336,0.3089,0.1694,-1.5094
5835,830,640,34.498,33.967,-0.0014,0.0038,9.8388,0.1649,-0.5099,-0.0107
5840,839,640,34.649,33.891,0.0036,-0.0145,9.8024,-0.3772,0.1268,0.2797
5845,853,638,34.557,33.873,0.0491,0.0105,9.856,0.4155,-0.282,0.4396
5850,863,641,34.517,33.96,0.0569,0.0365,9.7659,-0.5515,0.1044,-0.5686
5855,882,640,34.566,33.914,0.0218,-0.023,9.7314,0.223,0.4464,-0.1141
5860,884,640,34.454,33.928,0.0081,0.0342,9.7251,-0.053,0.5456,-0.1125
5865,898,638,34.589,33.934,-0.0413,-0.0687,9.8503,-0.7046,-0.1675,0.6447
5870,913,640,34.438,33.856,-0.0565,-0.011,9.7965,-0.7871,-0.6362,-0.6466
5875,935,644,34.529,33.879,0.0292,-0.0078,9.8072,-0.2918,0.3971,0.014
5880,940,641,34.599,33.906,0.0578,-0.0078,9.7344,0.069,-1.0251,0.2132
5885,953,647,34.552,33.966,-0.0324,0.0389,9.8474,0.0354,-0.1238,0.3864
5890,959,650,34.644,33.988,-0.0335,0.0566,9.8372,0.3708,0.4547,-0.5412
5895,985,653,34.533,33.962,0.0655,-0.0401,9.8829,-0.0611,0.072,-0.1857
5900,986,655,34.566,33.915,-0.0211,-0.0097,9.7834,0.1317,1.0936,0.0132
5905,1013,659,34.578,33.976,0.0608,-0.0742,9.8431,-0.3761,-0.3649,0.415
5910,1013,659,34.581,34.0,-0.02,0.0497,9.8058,-0.8092,-0.9723,-0.7064
5915,1038,672,34.507,33.851,-0.0128,-0.0685,9.8457,-0.0774,0.2082,-0.9208
5920,1042,677,34.507,33.874,-0.0062,-0.0216,9.7449,0.7834,0.338,0.1967
5925,1056,682,34.475,33.956,-0.0435,-0.0465,9.865,-1.0537,0.0071,-0.8816
5930,1064,689,34.615,33.983,0.0454,-0.0314,9.8138,0.4038,0.0742,-0.4153
5935,1077,695,34.521,33.946,-0.01,-0.0028,9.8574,-0.0902,-0.571,1.2825
5940,1083,700,34.538,33.878,0.0219,-0.0887,9.8407,-1.2373,0.5707,-0.3681
5945,1106,707,34.561,34.029,0.0256,-0.072,9.7782,-0.5762,-0.1156,-0.1454
5950,1108,717,34.487,33.965,-0.0879,0.0125,9.8166,0.5143,-0.0575,-0.0577
5955,1121,718,34.545,33.914,-0.0011,-0.0304,9.8083,-0.1347,-0.1655,0.2855
5960,1121,731,34.528,33.919,-0.0751,-0.0379,9.8336,-0.3778,0.2517,-0.258
5965,1138,735,34.468,33.964,0.0139,-0.0513,9.813,0.0852,-0.817,-0.5362
5970,1139,745,34.554,33.946,-0.0192,-0.133,9.7756,-0.1185,0.5597,0.6183
5975,1153,759,34.468,33.882,-0.083,-0.0254,9.7742,-1.1862,0.2898,0.6573
5980,1154,766,34.547,33.973,0.0991,0.0397,9.8966,-0.338,0.2185,-0.4625
5985,1168,771,34.474,34.027,0.0052,0.0159,9.8237,0.0535,0.0602,0.0591
5990,1165,775,34.506,33.946,0.05,-0.0497,9.8391,0.9046,-0.0952,-1.1311
5995,1178,787,34.533,33.915,0.0199,-0.0693,9.814,0.0524,0.7075,-0.3388
6000,1182,800,34.562,33.931,0.0627,0.0421,9.8606,0.0899,0.5829,-0.6491
6005,1179,799,34.521,33.942,0.015,0.0397,9.7767,-0.2141,0.477,1.2697
6010,1185,810,34.567,33.931,0.0366,0.0534,9.834,-0.0524,-0.3231,-0.4201
6015,1181,813,34.578,33.86,0.0618,-0.071,9.7919,0.4689,0.6261,-0.2552
6020,1177,823,34.529,33.884,0.0195,0.0115,9.9364,-0.7457,-0.0866,-1.0994
6025,1173,832,34.62,33.932,-0.0279,0.0396,9.7569,0.1978,-0.3317,-0.3057
6030,1183,844,34.476,33.988,0.002,-0.0072,9.8363,0.5032,0.8217,-0.4456
6035,1192,848,34.541,33.954,0.044,-0.0149,9.7698,-0.5927,-0.047,-0.463
6040,1190,854,34.518,33.897,0.0121,-0.0351,9.8069,0.4051,-1.1633,-1.1285
6045,1188,858,34.595,33.941,-0.0516,-0.0393,9.7593,-1.0324,0.2397,-0.0827
6050,1183,867,34.553,33.842,0.016,0.0165,9.8037,-0.7681,0.0047,0.511
6055,1178,866,34.489,33.939,0.0577,0.0847,9.8492,-0.2429,0.4464,0.3632
6060,1179,877,34.497,34.024,-0.0237,-0.0209,9.7902,0.7614,-0.3997,-0.1366
6065,1179,881,34.606,33.948,-0.0024,-0.0428,9.8312,-0.1819,-0.227,0.2329
6070,1184,890,34.535,33.879,-0.0068,0.0778,9.8525,0.3022,0.552,-0.8705
6075,1179,895,34.586,33.967,0.0146,0.0511,9.9149,0.1492,-0.2041,-0.2894
6080,1175,901,34.535,33.904,0.1103,0.015,9.834,-0.4537,-0.3467,-0.4687
6085,1164,901,34.485,33.938,-0.0712,0.0064,9.8149,0.3427,-0.262,-0.2613
6090,1157,909,34.505,33.914,0.0243,0.0634,9.8221,-0.3974,-0.1542,0.8444
6095,1170,915,34.521,33.864,0.1113,0.0634,9.8927,-0.0479,-0.0662,-0.1653
6100,1154,910,34.47,33.979,0.0628,-0.0305,9.6848,0.9823,-0.7435,-0.457
6105,1161,920,34.643,34.017,0.0555,0.0239,9.8499,0.135,-0.1381,0.0101
6110,1147,912,34.653,33.91,0.0324,-0.0438,9.818,-0.0555,0.0975,0.5383
6115,1147,916,34.525,33.991,0.014,-0.0533,9.8185,0.3141,-0.641,0.1555
6120,1148,920,34.484,33.922,-0.0172,-0.1339,9.8031,-0.5482,0.3628,-0.7953
6125,1135,914,34.557,33.902,-0.0916,0.0256,9.6881,-0.0039,0.1122,-0.9394
6130,1136,918,34.57,33.929,0.0462,-0.0469,9.8234,0.1146,-0.3266,0.3529
6135,1137,921,34.657,33.917,0.0004,-0.0306,9.7979,-0.0977,-1.1469,-0.7157
6140,1136,920,34.567,33.968,0.0088,0.0348,9.8035,-0.5929,-0.03,0.1058
6145,1126,918,34.648,33.982,0.0806,-0.1144,9.7644,0.2082,0.0664,-0.5823
6150,1120,914,34.535,33.91,-0.0176,-0.0836,9.7231,-1.3206,0.484,0.1992
6155,1121,919,34.614,33.894,-0.0188,-0.0275,9.7489,-0.2851,0.8364,-0.0679
6160,1118,915,34.54,33.922,-0.0294,0.1059,9.8436,-0.4487,0.5297,0.2108
6165,1119,914,34.5,33.89,-0.0296,0.0689,9.8061,0.0902,-0.79,0.071
6170,1117,913,34.494,33.891,-0.045,0.0147,9.8162,0.1059,0.1369,-0.2344
6175,1109,912,34.597,33.908,0.0703,-0.0405,9.8721,-0.1238,0.5069,-0.3627
6180,1100,912,34.479,33.885,-0.0349,0.0294,9.7853,-1.1602,-1.0121,-0.8408
6185,1111,906,34.553,33.9,-0.0119,0.0107,9.8059,0.0055,-0.1859,0.5425
6190,1105,908,34.486,33.967,-0.0397,-0.0187,9.8465,-0.4842,0.7306,0.1186
6195,1104,902,34.483,33.891,-0.0184,0.0554,9.7125,0.8234,-0.2597,-0.5747
6200,1085,903,34.543,33.886,0.0503,0.1557,9.7725,0.382,-0.2799,-0.1703
6205,1094,904,34.514,33.92,0.0312,0.0404,9.7157,0.1841,-0.0411,-0.4375
6210,1104,893,34.541,33.853,-0.0217,-0.0362,9.803,-0.238,-0.132,0.0393
6215,1091,902,34.581,33.965,0.0112,-0.0052,9.8482,-0.5018,0.094,-0.4942
6220,1098,898,34.514,33.891,-0.0541,-0.0109,9.8093,-0.8902,-0.2773,0.7249
6225,1085,888,34.57,33.949,-0.0524,0.0616,9.8687,0.8128,-0.8803,1.2504
6230,1081,886,34.532,33.865,0.0528,-0.0308,9.8323,-0.032,0.3935,0.539
6235,1069,886,34.471,33.881,0.0621,-0.0484,9.6983,0.4391,0.4317,-0.3106
6240,1075,882,34.526,33.939,0.1082,-0.0903,9.8129,-0.0203,0.1264,-0.1807
6245,1076,886,34.528,33.886,0.0405,0.0389,9.843,-0.5287,-0.079,-0.6041
6250,1071,879,34.529,34.013,0.0692,-0.1045,9.8044,-0.626,0.3985,-0.3025
6255,1073,878,34.504,33.956,-0.0562,0.0391,9.8357,-0.5353,0.4525,0.2616
6260,1072,873,34.542,33.955,0.0366,0.0062,9.8071,1.0012,0.0791,-0.0259
6265,1059,865,34.57,33.884,0.0023,0.0069,9.6312,-0.4014,-0.4997,-0.6301
6270,1059,874,34.618,33.924,0.0478,0.009,9.7993,-0.3762,0.4157,-0.234
6275,1059,870,34.554,33.985,0.0712,0.0289,9.777,-0.1378,-0.1863,-0.606
6280,1055,870,34.485,33.855,0.0249,0.001,9.6931,0.436,0.6082,1.2157
6285,1043,865,34.507,34.024,-0.0801,-0.0864,9.7685,-0.2591,-0.3233,-0.5437
6290,1039,866,34.506,33.887,-0.0822,-0.0422,9.9135,-0.8743,0.2734,0.5499
6295,1045,861,34.58,33.997,0.0415,-0.0097,9.7935,0.6332,-0.1623,0.0419
6300,1028,866,34.508,33.971,-0.0076,0.0653,9.7513,-0.1212,0.3582,-0.4637
6305,1018,864,34.643,33.972,0.047,-0.0169,9.8623,0.3829,0.1784,0.2481
6310,1015,855,34.519,33.91,0.0559,0.0355,9.8665,0.2561,-0.5515,-0.2836
6315,1007,856,34.652,33.904,0.0155,0.0914,9.7713,0.2193,0.3394,-0.3655
6320,1000,854,34.538,33.964,-0.0047,-0.0704,9.7732,0.1949,-0.4204,-0.2987
6325,1000,857,34.604,33.968,0.0716,-0.0399,9.7836,-0.2093,-0.5401,0.1976
6330,993,855,34.494,33.926,0.098,-0.0296,9.7814,0.051,-0.552,-0.102
6335,984,852,34.573,33.886,0.0632,-0.0259,9.7918,0.1573,-0.2071,0.7672
6340,978,850,34.542,33.931,-0.0599,0.0355,9.8311,0.0604,0.5644,0.1286
6345,966,851,34.536,33.897,0.0409,-0.0185,9.7896,-0.2882,0.0709,0.3546
6350,962,847,34.439,33.927,0.0488,0.0373,9.8775,0.5342,-0.6422,-0.2913
6355,947,844,34.498,33.862,-0.0725,0.0245,9.7883,-0.398,-0.0363,0.4586
6360,944,846,34.611,33.904,0.047,0.0991,9.7855,-0.0671,0.2002,0.6542
6365,936,843,34.608,33.933,0.0045,-0.0062,9.8362,-0.1645,-0.044,-0.1327
6370,924,843,34.579,33.832,-0.0495,-0.037,9.767,-0.3487,-0.673,-0.3865
6375,918,837,34.53,33.885,-0.1086,-0.0092,9.8342,0.2223,-0.1277,0.11
6380,904,835,34.531,34.021,0.0177,0.0827,9.8539,0.2754,0.0123,-0.0521
6385,900,832,34.464,33.959,-0.038,0.0143,9.8177,1.3511,-0.3409,-0.0894
6390,879,826,34.649,33.908,0.026,0.0636,9.7279,0.0773,0.4445,-0.247
6395,876,821,34.523,33.901,0.0432,-0.0242,9.7879,-0.7156,-0.6117,-0.3133
6400,862,821,34.539,33.937,0.0061,0.0237,9.8726,-0.0282,-0.752,0.3119
6405,859,819,34.535,33.97,-0.1028,-0.037,9.8496,-0.143,-0.4514,-0.2352
6410,842,813,34.554,33.965,0.0127,-0.0208,9.8134,0.0521,-0.8926,-0.0248
6415,845,811,34.572,33.862,0.0607,0.0305,9.8592,0.622,0.6474,0.2283
6420,827,801,34.559,33.868,0.0144,-0.0516,9.853,0.4347,-0.8306,-0.8511
6425,819,803,34.6,33.91,-0.0137,-0.0147,9.8271,-0.4398,-1.2506,0.5214
6430,806,796,34.54,33.938,0.0082,0.1016,9.8286,0.8517,0.327,0.0195
6435,801,790,34.556,33.936,0.1449,-0.0717,9.7116,-0.5671,-0.2028,0.4046
6440,795,787,34.564,33.757,-0.0001,-0.0234,9.7626,-0.6151,0.4761,-0.0587
6445,792,781,34.605,33.935,0.034,-0.0007,9.8571,-0.3551,-0.3472,0.1049
6450,772,777,34.637,33.946,0.0219,-0.007,9.8049,-0.8282,-0.5122,-0.6922
6455,770,767,34.49,33.948,-0.0065,-0.0008,9.8747,-0.1074,0.2331,-0.065
6460,763,763,34.452,33.981,0.0713,-0.0446,9.7879,-0.3754,-0.89,0.932
6465,756,756,34.546,33.957,-0.039,0.0358,9.7994,-0.1471,0.169,-0.2668
6470,764,751,34.562,33.959,0.0068,-0.0166,9.8913,-0.1053,0.4172,0.4152
6475,753,742,34.586,33.924,-0.0303,0.0202,9.7674,-0.6591,0.2237,0.1136
6480,763,744,34.556,33.884,-0.0406,-0.0177,9.8321,-0.2257,-0.2742,-0.3417
6485,754,732,34.598,33.929,0.0425,0.097,9.7904,0.1213,-0.233,-0.379
6490,751,725,34.508,33.902,-0.023,0.0784,9.926,0.2827,0.2746,-0.1234
6495,746,722,34.507,33.923,0.0228,-0.0223,9.804,-0.3498,-0.0971,0.975
6500,747,718,34.624,33.858,0.0186,0.0132,9.7864,-0.6953,0.4659,-0.2977
6505,752,709,34.616,33.943,-0.0429,-0.0693,9.8061,-0.1247,0.4448,-0.6064
6510,750,697,34.511,33.974,-0.044,-0.0265,9.7402,-0.7826,-0.7848,-0.2274
6515,755,701,34.53,33.936,0.024,-0.0359,9.7811,0.803,-0.149,0.2169
6520,747,692,34.519,33.921,-0.0407,-0.0167,9.7551,-0.3583,-0.4713,0.6466
6525,757,684,34.613,33.832,-0.0559,0.044,9.8344,0.8112,0.0583,0.2886
6530,763,679,34.628,33.962,-0.006,-0.0007,9.9258,-0.3413,-0.3736,-0.2942
6535,771,673,34.533,33.951,-0.0501,-0.0523,9.7881,1.0601,-0.2595,0.3852
6540,767,673,34.405,33.964,-0.0302,-0.0537,9.7702,-0.7952,-0.5346,-0.0941
6545,774,664,34.491,33.965,0.0963,0.0069,9.8408,-0.2293,0.2414,-0.0704
6550,781,662,34.497,33.962,-0.1177,-0.0016,9.9216,-0.1706,-0.6391,-0.3649
6555,795,655,34.6,33.993,-0.1026,0.0404,9.8249,0.2453,0.3669,-0.676
6560,798,647,34.552,33.955,-0.0412,-0.0856,9.7826,-0.2016,-0.174,1.2505
6565,808,652,34.471,33.908,0.0219,0.1213,9.849,-0.271,-0.9297,0.4453
6570,822,648,34.665,33.907,0.0301,-0.0177,9.7913,-0.6376,0.3825,-0.1694
6575,833,645,34.603,34.026,0.0377,-0.0818,9.8365,-0.0965,0.269,0.1838
6580,850,640,34.506,33.881,-0.02,-0.0421,9.8053,0.0874,0.1546,-0.0428
6585,854,644,34.507,34.013,0.0328,-0.0819,9.7822,0.9697,-0.5534,0.0641
6590,866,641,34.502,33.862,-0.001,0.0254,9.8039,-0.4558,-0.0545,0.4468
6595,879,642,34.598,33.922,-0.0139,-0.044,9.7583,0.294,1.7183,-0.4357
6600,889,635,34.579,33.941,-0.0043,-0.0214,9.8434,0.5069,0.6846,0.3579
6605,896,637,34.534,33.92,0.0231,-0.0819,9.8266,-0.8163,0.3662,-0.5905
6610,919,640,34.624,33.944,0.0374,-0.0443,9.8949,-0.4173,-0.273,-0.4315
6615,928,644,34.594,33.988,0.1101,-0.0007,9.798,0.2147,-0.2797,-1.2151
6620,942,638,34.461,33.844,-0.0014,0.0576,9.7823,-0.212,-0.7682,-0.1952
6625,955,641,34.64,33.91,0.0454,-0.0652,9.8106,-0.1976,-0.506,-0.8929
6630,969,653,34.535,33.948,-0.0602,-0.0781,9.8552,-0.3341,0.1143,0.2385
6635,981,658,34.552,33.926,0.0543,0.0245,9.7907,0.102,0.6155,-0.1387
6640,993,661,34.539,33.881,-0.0725,0.0117,9.7889,0.9505,0.7631,-0.3239
6645,1004,664,34.627,34.013,-0.093,0.0866,9.7772,0.0979,0.93,-0.4968
6650,1018,664,34.544,33.899,0.0515,-0.0034,9.7724,0.0966,-0.6676,-1.0725
6655,1031,670,34.568,33.878,0.0044,-0.0147,9.7596,0.5144,0.4357,0.7234
6660,1044,668,34.66,33.945,-0.1104,0.1006,9.8502,-0.4484,-0.548,0.232
6665,1061,685,34.559,33.882,0.0213,0.0966,9.8062,0.9962,0.0878,-0.7217
6670,1069,686,34.598,33.879,0.0005,0.0492,9.7193,-0.4346,0.6871,0.2573
6675,1079,693,34.613,33.906,-0.0552,-0.0439,9.8299,0.2546,-0.1697,-0.7896
6680,1087,696,34.537,33.885,-0.0573,0.0552,9.8836,-0.0908,-0.8116,0.8386
6685,1107,706,34.497,33.872,-0.0798,-0.0504,9.9226,-0.058,-0.5223,0.6661
6690,1113,710,34.549,33.907,-0.0732,-0.0377,9.8129,0.837,0.3097,-0.1056
6695,1124,728,34.597,33.971,0.012,-0.1114,9.8071,0.2693,-0.2522,-0.0494
6700,1127,736,34.552,33.925,-0.0403,0.038,9.8099,-0.4648,-0.4369,0.3057
6705,1133,734,34.563,34.011,-0.0907,-0.0343,9.8212,-0.0419,0.1629,0.0331
6710,1141,748,34.517,33.919,0.1492,0.0379,9.8112,0.6444,0.2637,0.5496
6715,1156,746,34.554,33.98,-0.0186,0.0076,9.7297,0.4236,0.5057,-0.0242
6720,1161,770,34.546,33.942,0.0648,-0.037,9.9206,1.2815,-0.2385,0.786
6725,1169,771,34.513,33.919,-0.0507,0.0153,9.7456,-0.1179,0.2952,-0.1943
6730,1175,778,34.549,33.926,-0.003,-0.0856,9.818,0.3028,-0.2707,0.5386
6735,1171,784,34.554,33.894,-0.0165,-0.0864,9.8427,0.0116,-0.0457,0.9858
6740,1179,794,34.568,33.999,-0.0186,0.0025,9.7357,-0.0761,0.4443,0.4398
6745,1184,803,34.546,33.985,-0.0098,0.0008,9.8594,-1.4176,0.1711,-0.7478
6750,1180,813,34.513,33.892,-0.0202,0.0093,9.8472,0.0497,-0.4874,1.2885
6755,1179,818,34.614,33.96,0.0132,-0.0437,9.8265,-0.3268,-0.1419,0.1941
6760,1182,830,34.616,33.964,-0.0448,0.0341,9.8664,-0.2686,0.0079,0.5321
6765,1187,833,34.539,33.933,-0.0891,-0.013,9.7613,-0.4655,-0.0178,-0.5485
6770,1188,844,34.741,34.008,-0.0274,0.0276,9.8511,-0.4946,0.4736,0.5079
6775,1187,841,34.622,33.865,-0.0384,-0.0273,9.8351,-0.6244,0.1859,0.2486
6780,1189,857,34.547,34.056,-0.0147,0.0111,9.7269,-0.1467,-0.069,0.084
6785,1185,861,34.475,33.957,0.0535,-0.0739,9.7864,-0.8228,-0.1002,-0.4262
6790,1188,868,34.546,33.912,0.0544,-0.0328,9.7991,-0.4816,1.2322,0.0551
6795,1189,875,34.608,33.978,-0.0468,-0.0143,9.7352,-0.2763,-0.4512,0.6094
6800,1182,877,34.583,33.932,0.0299,0.0359,9.7943,0.6584,-1.2102,0.178
6805,1172,880,34.528,33.927,-0.0322,0.0348,9.8375,-0.2454,1.1372,-0.966
6810,1178,889,34.58,34.003,-0.019,0.0155,9.8481,-0.4004,-0.6381,-0.5206
6815,1175,894,34.636,33.962,-0.0042,0.0447,9.8711,-0.7911,-0.5456,-0.0854
6820,1178,895,34.476,33.874,-0.0045,-0.0555,9.7244,-0.3967,-0.3666,0.1413
6825,1166,902,34.509,33.972,0.0047,-0.0855,9.81,-0.1231,-0.1986,-0.4546
6830,1175,904,34.57,33.959,0.0152,-0.0147,9.8404,-0.331,-0.0466,-0.1079
6835,1164,912,34.579,33.999,-0.0049,-0.0274,9.7243,0.3469,0.289,-0.1577
6840,1158,911,34.587,33.954,-0.0095,-0.0051,9.9257,0.4743,-0.4994,-0.7054
6845,1157,916,34.449,33.953,0.1075,-0.0642,9.7073,-0.1414,0.8718,0.0597
6850,1157,918,34.477,33.899,-0.0639,-0.0682,9.8641,-0.4362,-0.2128,0.14
6855,1152,914,34.562,33.882,0.0516,-0.0025,9.7846,0.4714,-0.0415,0.0026
6860,1137,922,34.63,33.835,0.009,0.0702,9.7972,0.387,0.3824,-0.1441
6865,1138,920,34.488,33.92,-0.0282,-0.0012,9.8023,-0.0698,0.5588,0.0327
6870,1142,917,34.586,33.899,0.0057,0.0731,9.8668,0.3608,0.5761,-0.862
6875,1129,917,34.581,33.945,-0.0335,0.0038,9.7935,0.7077,-0.7195,-0.3416
6880,1138,918,34.54,33.979,0.0234,0.0226,9.8738,0.4345,-0.2949,0.2905
6885,1126,913,34.548,33.997,0.0683,-0.0582,9.8217,-0.4302,-0.2791,-0.1312
6890,1125,920,34.645,33.964,0.065,0.0099,9.8041,0.1426,-0.5452,0.1124
6895,1127,919,34.613,33.952,0.0116,0.0374,9.7795,0.3444,0.1228,0.249
6900,1117,915,34.58,33.922,0.0988,0.0968,9.8155,-0.0766,0.1381,0.2954
6905,1116,912,34.665,33.928,0.038,-0.0042,9.7662,0.4504,0.6624,0.036
6910,1116,906,34.566,33.854,0.0209,0.0672,9.76,0.225,0.8422,0.0365
6915,1107,913,34.62,33.854,0.0067,0.0024,9.8749,0.08,-0.3837,-0.0186
6920,1115,906,34.514,33.954,0.043,-0.041,9.8178,0.1852,0.2305,0.3572
6925,1105,908,34.495,33.882,0.0769,-0.0407,9.7771,0.5047,-0.5223,0.2904
6930,1100,910,34.517,33.904,-0.0384,-0.0054,9.8936,-0.3798,0.2274,-0.1912
6935,1102,899,34.59,34.025,-0.0462,0.0874,9.797,-0.1785,-0.092,0.5695
6940,1098,902,34.553,33.967,0.0059,0.075,9.7938,-0.0372,0.5486,0.7147
6945,1091,899,34.594,33.961,-0.0018,-0.0062,9.8213,0.1758,0.0781,-0.2338
6950,1094,895,34.603,34.027,0.0639,-0.1164,9.8938,-0.1251,-0.9075,-0.8252
6955,1078,896,34.644,33.985,0.0668,-0.0456,9.857,-0.3175,0.8021,-0.071
6960,1087,887,34.573,33.932,0.0264,0.0339,9.7173,-0.3331,-0.4175,0.8903
6965,1095,892,34.516,33.96,0.0034,-0.0186,9.7801,0.2022,0.5858,-0.1948
6970,1084,890,34.575,33.958,0.0534,0.0012,9.8002,0.6287,-0.432,-0.6377
6975,1085,888,34.544,34.022,-0.0704,0.0536,9.7936,1.0507,0.793,0.6392
6980,1077,887,34.489,33.896,-0.0149,-0.0255,9.8737,-0.7701,0.3311,-0.625
6985,1087,880,34.502,33.975,-0.036,0.0653,9.7664,0.1505,-0.1188,-0.4042
6990,1070,873,34.635,33.908,-0.065,-0.0528,9.8129,0.9919,-0.246,0.118
6995,1074,876,34.594,33.98,0.0461,0.1004,9.7884,-0.5645,-0.8449,-0.2825
7000,1062,876,34.551,33.929,0.0672,0.0143,9.7815,0.731,0.5174,-0.5393
7005,1070,875,34.58,33.906,0.0029,-0.0226,9.7915,-0.4706,0.4893,1.0033
7010,1064,876,34.658,33.977,0.0504,-0.0271,9.7946,-0.8678,0.1702,-0.4398
7015,1056,869,34.606,33.983,0.039,0.069,9.7477,-0.9498,0.067,0.065
7020,1054,868,34.525,33.968,-0.0267,0.0323,9.7863,-0.4142,0.4562,-0.4018
7025,1043,869,34.582,33.98,0.033,-0.0568,9.7522,0.168,0.9001,-0.5641
7030,1043,864,34.691,33.999,0.016,0.016,9.8039,-0.2301,1.3155,0.7025
7035,1038,859,34.558,33.9,-0.0333,0.0882,9.8223,-0.5538,-0.0221,-0.4826
7040,1029,858,34.468,33.92,-0.0122,0.0087,9.8711,0.1244,-1.1153,0.25
7045,1028,865,34.621,33.938,0.0774,0.0006,9.8036,-1.1821,0.7831,0.5406
7050,1016,857,34.59,33.951,0.0001,0.0123,9.8695,-0.5732,0.7737,-0.2767
7055,1014,856,34.594,33.972,-0.0312,0.0082,9.7949,-0.4418,-0.6106,0.6269
7060,1013,859,34.581,33.936,-0.0582,-0.0368,9.808,-0.1709,0.2522,0.1758
7065,992,856,34.555,33.97,0.0595,0.0164,9.7737,-0.0479,-0.26,-0.2565
7070,992,856,34.562,33.912,-0.0104,0.0759,9.7509,-0.0494,1.0761,-0.0853
7075,978,849,34.534,33.984,-0.0222,-0.0512,9.7359,-0.0792,-0.4446,0.4862
7080,981,850,34.572,33.895,-0.0182,0.0492,9.83,-1.0658,1.2979,0.2559
7085,968,855,34.57,33.945,-0.0837,0.0174,9.7944,0.1094,-0.5515,0.7428
7090,968,848,34.563,33.974,-0.047,-0.0506,9.7554,-0.5788,0.6585,-0.3341
7095,948,840,34.557,33.921,0.0101,0.0383,9.8151,0.7533,0.6849,0.2892
7100,935,845,34.575,33.96,0.0693,0.068,9.7889,0.6989,0.6048,-0.0414
7105,936,836,34.554,33.888,-0.0014,-0.0166,9.773,0.9173,0.3458,-0.9171
7110,921,841,34.646,33.87,0.0764,0.001,9.8358,0.2106,-0.3318,0.5983
7115,916,837,34.572,33.898,0.007,0.001,9.877,0.5738,0.7404,-0.6977
7120,907,828,34.438,33.94,-0.0047,0.0274,9.8152,0.4452,-0.5123,-0.2543
7125,896,828,34.647,33.845,-0.0115,0.0405,9.7818,-0.3166,0.3765,-0.1859
7130,898,823,34.509,33.879,-0.0355,-0.0187,9.8097,-0.2559,0.4919,0.6703
7135,881,822,34.571,33.974,0.1101,-0.0136,9.7671,-0.1757,-0.328,-0.1687
7140,864,822,34.51,33.968,-0.0302,-0.0511,9.8361,0.6566,0.4606,0.6485
7145,852,820,34.535,33.947,-0.047,-0.0311,9.6355,-0.1265,-0.0243,-0.7263
7150,840,813,34.639,33.915,-0.0152,-0.0596,9.8087,0.6529,-0.0761,0.1772
7155,836,810,34.501,33.905,0.0641,0.0225,9.8198,-0.323,0.4243,-0.3456
7160,825,803,34.656,33.967,0.0022,-0.0609,9.8523,-0.5334,0.822,0.1791
7165,829,800,34.57,33.952,0.0538,-0.0429,9.9428,-0.2193,0.3585,-0.0745
7170,811,795,34.563,33.892,0.0709,0.0641,9.7575,-0.5647,0.3225,0.072
7175,799,788,34.489,33.967,0.0507,-0.1031,9.8197,-0.1397,-0.5214,0.0913
7180,798,785,34.615,33.932,0.0305,-0.0156,9.8345,-0.1303,1.0503,-0.9022
7185,787,779,34.579,33.938,0.0524,-0.0012,9.7779,-0.0666,0.7041,0.7737
7190,787,780,34.609,33.948,0.0058,0.0403,9.7287,-0.1914,-0.4122,0.2252
7195,773,769,34.635,33.993,-0.0253,0.0343,9.7542,-0.2615,0.0521,-0.3947
7200,765,765,34.487,33.9,0.0705,-0.018,9.8281,0.2889,0.5456,-0.1136
7205,756,757,34.605,33.966,0.0367,-0.0083,9.7341,0.1336,0.3601,0.4083
7210,761,748,34.552,33.907,0.0319,0.0829,9.9648,0.8666,-0.3289,0.0066
7215,760,747,34.571,33.939,-0.0099,0.0492,9.7809,0.0377,0.0092,0.3146
7220,750,737,34.587,33.988,-0.026,0.0503,9.762,-0.7571,-0.193,-0.2174
7225,753,737,34.575,33.903,-0.1197,0.0564,9.7726,-0.4809,-0.0951,0.0999
7230,742,728,34.498,33.934,-0.0246,-0.0574,9.7463,0.1836,-0.6061,-1.174
7235,750,725,34.622,34.001,-0.0354,-0.0731,9.8146,0.3581,-0.4554,-0.4731
7240,739,715,34.631,33.973,-0.0718,-0.0342,9.7633,0.1684,-0.7696,0.3508
7245,754,711,34.634,34.038,-0.0775,-0.0057,9.8919,-0.1814,-0.4855,-0.5292
7250,753,698,34.533,34.003,0.0258,-0.0561,9.8139,-0.7533,0.3408,0.5178
7255,756,701,34.539,33.972,-0.0321,-0.0036,9.9074,-0.3555,0.4827,-0.3157
7260,761,694,34.532,33.974,-0.1305,-0.0371,9.8149,-0.345,-0.1454,1.0708
7265,756,686,34.574,34.008,-0.0418,-0.0361,9.778,0.5327,0.4155,0.6569
7270,757,681,34.498,33.904,0.0091,-0.1116,9.7774,0.1224,0.1559,0.1638
7275,772,680,34.592,33.974,-0.122,0.0613,9.7278,-0.1672,-0.2641,-0.4291
7280,771,671,34.493,33.89,0.0629,0.0521,9.8793,-0.3934,-0.2638,0.0014
7285,768,666,34.469,33.928,-0.0048,-0.0428,9.8642,0.8015,0.174,0.5102
7290,788,661,34.595,33.909,-0.048,-0.0056,9.7728,0.3213,-0.0853,-0.161
7295,799,657,34.503,33.972,-0.0121,0.1332,9.8169,-0.2511,-0.3869,0.6776
7300,800,659,34.571,33.98,-0.0029,-0.0422,9.8889,-0.3769,0.345,-0.6638
7305,808,658,34.558,33.981,0.0159,-0.0058,9.9144,0.2639,0.2937,0.8208
7310,827,646,34.519,33.953,-0.0243,0.0147,9.7327,-0.3343,0.1637,0.0902
7315,832,641,34.58,33.988,0.046,-0.0351,9.8035,-0.0739,-0.0396,0.9201
7320,844,645,34.513,34.044,0.0608,-0.0099,9.8283,-1.5995,-0.6549,0.5757
7325,852,647,34.569,33.949,0.0079,0.0633,9.8002,-0.1489,0.9027,-0.1394
7330,864,640,34.528,33.901,-0.078,0.0623,9.7998,0.6602,-0.1783,0.0811
7335,887,642,34.523,34.013,-0.0102,-0.0924,9.8628,0.035,-0.3491,0.0553
7340,893,636,34.589,33.816,-0.0173,0.0017,9.8064,0.3428,0.3298,0.3847
7345,903,637,34.447,33.926,0.0222,0.0407,9.7841,-0.1613,0.0241,0.117
7350,919,637,34.525,33.99,-0.0121,-0.0454,9.8681,-0.5529,0.0397,-0.9113
7355,928,644,34.618,33.995,-0.0027,0.1046,9.8402,-0.5103,-0.8181,0.2092
7360,946,641,34.521,33.917,-0.0474,0.038,9.7873,-0.2686,0.3916,-0.5079
7365,956,646,34.54,33.987,-0.1022,0.0194,9.7928,0.1681,-0.1603,0.3561
7370,967,647,34.631,33.93,-0.0283,0.0647,9.8773,-0.3186,0.7122,0.9743
7375,985,657,34.516,33.94,-0.0098,-0.0258,9.8062,1.0488,0.4823,0.4405
7380,1000,654,34.568,33.929,0.0199,-0.0354,9.771,0.5018,0.383,-0.7961
7385,1006,657,34.565,33.931,0.0588,-0.0597,9.8468,0.3321,-0.4575,-1.0598
7390,1012,663,34.526,33.902,0.0193,-0.0375,9.8146,-0.2601,0.2121,0.8122
7395,1030,670,34.533,33.988,-0.0669,0.0396,9.7691,0.6477,0.1502,0.2757
7400,1035,673,34.558,33.938,0.0436,0.0241,9.7383,0.358,-0.228,-0.2357
7405,1053,684,34.532,33.942,0.0145,-0.0024,9.7624,0.1902,0.7599,0.5272
7410,1062,681,34.52,33.933,0.0111,0.0742,9.8783,-0.1877,0.6723,-0.336
7415,1075,698,34.516,33.948,0.0349,-0.0318,9.8495,-0.0921,-0.1228,0.4892
7420,1084,695,34.534,33.964,-0.0484,-0.031,9.7113,0.5166,-0.9077,0.0072
7425,1102,709,34.508,33.986,0.0005,-0.0008,9.8022,0.4735,-0.71,-0.4651
7430,1111,714,34.537,33.899,0.0183,0.0517,9.8037,-0.3189,0.3998,-0.6573
7435,1114,716,34.527,33.924,0.0667,-0.1201,9.7784,0.2062,0.0555,-0.2362
7440,1129,732,34.59,33.998,0.0557,-0.0631,9.7291,-0.3069,0.1657,1.1246
7445,1133,739,34.626,34.029,0.0724,-0.0164,9.7897,0.0057,-0.6793,0.5565
7450,1144,749,34.583,33.932,0.0124,-0.0146,9.7632,0.4068,-0.1907,-0.2649
7455,1158,757,34.557,33.881,0.0351,0.0268,9.8386,0.5434,0.6754,-0.4036
7460,1155,765,34.513,33.881,0.038,0.0594,9.8558,-0.3532,-0.8005,-0.4057
7465,1171,773,34.542,33.985,0.025,-0.0496,9.7944,0.3167,0.0132,0.107
7470,1158,782,34.563,33.918,-0.0433,-0.0285,9.8347,-0.4981,0.4042,0.2615
7475,1166,789,34.549,33.99,-0.0033,0.072,9.8407,0.4823,-0.2649,0.7324
7480,1177,791,34.59,33.94,0.0458,-0.0254,9.8351,0.5979,0.0537,0.6956
7485,1180,804,34.595,34.019,0.0335,-0.0352,9.8679,-0.4094,-0.0649,0.1437
7490,1187,811,34.625,34.014,0.0226,-0.0248,9.8404,-0.7451,0.1041,-0.1892
7495,1177,820,34.561,34.036,0.1147,-0.0237,9.7918,0.5307,0.5599,0.3301
7500,1180,829,34.584,33.961,0.0689,-0.0227,9.8626,0.6135,0.0234,-0.446
7505,1196,839,34.479,33.853,-0.075,-0.0368,9.7625,-0.268,0.7552,-0.3577
7510,1180,846,34.606,33.912,0.0896,0.0503,9.7351,-0.0874,-0.0548,0.2039
7515,1188,846,34.553,34.061,0.001,0.0219,9.8317,0.8593,0.4229,-0.042
7520,1183,858,34.608,33.884,0.0395,0.0448,9.7057,-1.1921,0.1183,-0.7622
7525,1188,864,34.535,33.963,-0.0023,-0.0057,9.7741,-0.0042,0.3397,0.3479
7530,1181,873,34.51,33.926,-0.0234,0.0209,9.819,-0.1651,0.4185,-0.0127
7535,1188,875,34.575,33.932,0.0073,0.0007,9.832,-0.0679,0.7087,0.0038
7540,1178,882,34.641,33.924,0.0437,0.0438,9.7937,0.3776,-0.2943,-0.7124
7545,1178,882,34.51,33.931,-0.0618,0.0705,9.8253,0.273,0.965,0.1259
7550,1176,888,34.641,34.001,-0.0284,0.0928,9.7796,0.006,0.339,1.1859
7555,1173,896,34.517,33.83,-0.0218,0.0827,9.7993,0.7623,-0.2195,0.8648
7560,1177,907,34.534,33.818,-0.0553,-0.0372,9.7704,-0.1635,-0.6034,-1.549
7565,1174,895,34.545,33.955,0.068,-0.0021,9.7969,-0.139,1.1596,0.4081
7570,1160,904,34.563,33.924,0.0357,-0.0301,9.8277,0.1022,0.6812,0.066
7575,1167,907,34.526,34.013,-0.073,-0.0563,9.7404,-0.0178,-0.4292,0.2403
7580,1166,908,34.511,33.954,-0.1191,-0.0681,9.8067,-0.3104,-0.4579,-0.1625
7585,1157,918,34.576,33.957,-0.1039,0.0216,9.816,0.3797,0.6338,0.6854
7590,1153,916,34.543,33.972,-0.053,0.0114,9.7738,-0.2788,1.1762,-0.1621
7595,1150,914,34.656,33.948,-0.0537,-0.0525,9.7863,0.0286,-0.7647,-0.1188
7600,1142,915,34.585,33.944,0.0126,0.0044,9.8792,-0.0896,0.0232,0.4512
7605,1144,916,34.624,33.948,0.0108,0.0161,9.8377,-0.1893,-1.2912,-0.7717
7610,1136,917,34.569,33.924,-0.0197,-0.0282,9.9146,0.2914,-0.5,-0.242
7615,1136,918,34.589,33.983,-0.0003,-0.0733,9.7478,-0.499,-0.2426,0.5435
7620,1129,917,34.623,33.877,-0.0169,0.0304,9.8123,-0.4685,-0.2257,0.2199
7625,1134,921,34.602,34.01,0.0888,-0.0622,9.8052,0.1218,1.0521,1.3525
7630,1127,921,34.597,33.904,-0.0427,-0.0859,9.8296,-0.1686,-0.9405,0.5536
7635,1129,915,34.602,33.997,-0.0265,-0.0253,9.8418,0.1672,-0.5019,-0.1088
7640,1124,919,34.584,34.007,-0.0611,0.0454,9.8548,0.2442,-0.1559,-0.4939
7645,1124,916,34.564,33.861,-0.0294,-0.0559,9.8071,-0.4618,0.689,0.0999
7650,1114,917,34.592,33.879,-0.0494,0.0195,9.8326,-0.2903,-0.0659,0.2895
7655,1115,910,34.599,34.019,-0.0911,0.0291,9.789,0.2392,-0.4483,0.2338
7660,1099,908,34.579,33.926,-0.0716,0.0097,9.7606,-0.1087,-0.0944,-0.5867
7665,1107,914,34.59,34.028,-0.0024,-0.0353,9.7945,0.0815,0.7588,-0.4265
7670,1094,908,34.619,33.924,-0.0527,-0.0215,9.8669,0.2461,0.1172,0.0627
7675,1101,901,34.511,33.908,-0.0285,0.0252,9.8474,-0.1761,-0.3661,-0.2847
7680,1109,902,34.646,33.97,0.0154,-0.049,9.8236,-0.8654,-0.0554,-0.575
7685,1097,903,34.595,33.879,-0.001,0.0829,9.8232,0.4948,-0.3349,0.3131
7690,1102,896,34.585,33.892,-0.0591,-0.0161,9.847,0.9756,-0.1198,0.6428
7695,1082,896,34.488,33.886,0.032,0.0321,9.9048,0.2336,0.1168,0.6076
7700,1084,892,34.664,33.953,0.0992,0.0497,9.8512,0.2221,0.4571,0.0817
7705,1090,892,34.554,33.918,0.0003,0.0201,9.7561,0.1732,-0.0403,-0.5318
7710,1083,891,34.575,33.968,-0.0083,-0.0481,9.772,-0.082,-0.5035,0.5621
7715,1077,884,34.526,33.969,-0.0716,-0.005,9.7796,0.4446,0.1643,-0.1331
7720,1077,880,34.586,34.0,0.0238,-0.0149,9.8067,0.4854,-0.0765,1.7751
7725,1078,880,34.567,33.821,0.0526,-0.0129,9.7863,0.0886,-0.1673,0.7966
7730,1068,879,34.478,33.993,0.0145,-0.0886,9.7867,-0.1016,-0.1398,0.1668
7735,1069,877,34.573,34.024,-0.0653,-0.0295,9.8753,0.2568,0.649,0.5195
7740,1063,873,34.475,33.945,-0.0583,-0.0016,9.7369,-0.697,0.4501,0.724
7745,1059,873,34.536,33.933,0.001,-0.0635,9.74,0.2411,0.6585,0.0014
7750,1058,874,34.513,33.997,0.0529,0.0064,9.8449,-0.1476,-0.1867,0.0894
7755,1051,866,34.605,33.953,-0.0618,0.0441,9.7448,0.6611,0.4015,-0.301
7760,1052,869,34.535,33.936,0.0009,-0.0395,9.863,-0.0116,-0.5726,-0.0689
7765,1049,862,34.634,33.906,0.0134,-0.0349,9.7991,-0.013,0.284,0.4821
7770,1044,863,34.574,33.856,-0.053,0.0183,9.7578,-0.3669,0.2957,0.2999
7775,1044,857,34.571,33.959,0.0177,-0.0489,9.8045,0.0167,0.5595,-0.0991
7780,1026,867,34.597,33.968,-0.0089,-0.0815,9.7243,-0.5705,-0.112,-0.0473
7785,1038,858,34.498,33.878,0.0504,-0.0672,9.8287,-0.0432,-0.9466,0.2394
7790,1024,858,34.513,33.92,-0.0078,0.0333,9.7378,0.5917,0.111,0.6589
7795,1019,858,34.564,33.957,0.0643,-0.0043,9.8422,-0.2578,-0.1412,0.2803
7800,1008,859,34.589,33.963,-0.1481,-0.003,9.8374,-0.7729,-0.0314,0.0081
7805,1005,855,34.535,33.977,0.0491,-0.0282,9.723,0.4132,0.3622,-0.6218
7810,1001,855,34.627,34.003,0.0059,-0.0273,9.8095,-0.0051,0.7846,1.2905
7815,979,850,34.633,33.904,0.0868,-0.0585,9.8904,-1.0119,-0.0402,0.3367
7820,981,849,34.606,33.858,0.0094,-0.0328,9.8294,0.2173,-0.1232,0.2433
7825,963,848,34.646,33.874,-0.038,0.0181,9.8809,0.4978,0.4462,0.3601
7830,973,848,34.505,33.939,-0.0085,-0.0108,9.8237,0.2214,0.1678,-0.1431
7835,950,842,34.567,33.973,-0.1234,0.0136,9.758,-0.0174,0.5259,0.0628
7840,936,842,34.532,33.957,0.0032,0.04,9.79,0.2176,-0.1485,0.1954
7845,934,843,34.57,33.902,0.0204,0.0055,9.8151,-0.0096,1.1326,0.5465
7850,918,845,34.473,33.912,-0.006,0.1014,9.7002,-0.1119,1.1224,-0.1423
7855,913,837,34.571,33.927,-0.0591,0.051,9.8621,-0.3635,-0.2048,0.7074
7860,906,833,34.594,33.895,-0.0033,-0.0318,9.7378,0.2476,0.282,0.0625
7865,884,833,34.544,33.891,-0.0021,0.0622,9.8703,-0.3581,-0.3227,1.2554
7870,880,826,34.551,33.845,0.1045,-0.0094,9.8684,0.1788,1.2391,0.3356
7875,874,825,34.614,33.927,-0.0026,0.1009,9.8131,-0.7156,0.3484,0.8391
7880,865,822,34.601,33.882,0.0277,-0.1148,9.7217,0.0345,-0.1491,-0.2484
7885,849,817,34.455,33.91,0.0428,-0.0418,9.8475,0.6462,0.1953,-0.0023
7890,846,816,34.554,33.924,0.0158,-0.0517,9.8296,0.1483,-0.5004,-0.2088
7895,828,808,34.599,33.979,0.0197,-0.0435,9.7816,-0.272,0.2763,-0.7915
7900,838,804,34.484,33.913,0.08,0.0507,9.8776,0.9205,0.2282,0.1387
7905,821,794,34.59,34.002,-0.0213,-0.0212,9.9017,0.2432,-0.7834,-0.1276
7910,815,797,34.645,33.947,-0.0068,0.0719,9.7805,-0.8396,-0.7847,-0.1113
7915,797,792,34.581,34.074,0.044,0.0051,9.7474,-0.4773,-0.1074,0.8162
7920,805,785,34.518,33.896,-0.0081,0.0429,9.9519,0.5509,-0.2232,-0.1491
7925,782,781,34.668,33.99,-0.0014,-0.0299,9.7024,-0.3136,0.1345,-0.5677
7930,781,777,34.631,33.994,0.0291,-0.0402,9.7481,-0.7882,-1.0585,-0.0843
7935,777,769,34.577,33.869,-0.0192,0.0313,9.8505,0.2414,-0.2431,-0.7646
7940,768,764,34.569,33.954,-0.0271,-0.0215,9.7537,-0.451,0.2955,0.0081
7945,767,759,34.701,33.875,-0.0346,0.046,9.8042,0.0581,0.1041,0.0286
7950,763,754,34.579,33.907,0.033,0.0622,9.7334,0.1071,0.2773,-0.2245
7955,755,748,34.587,33.919,0.0584,0.0312,9.8649,-0.0791,-0.5867,-0.4773
7960,753,741,34.496,33.989,-0.0743,-0.0221,9.8487,0.4954,0.2506,0.0481
7965,744,734,34.642,33.942,-0.0495,0.0137,9.8945,0.0007,1.423,0.4073
7970,747,729,34.583,34.064,0.0654,-0.0426,9.8897,0.3949,-0.495,-0.1742
7975,753,723,34.606,33.925,-0.0755,-0.0374,9.784,0.0059,0.1772,-0.5753
7980,747,716,34.56,34.026,-0.0894,0.0125,9.8429,0.0403,-0.2721,-0.7289
7985,738,709,34.496,33.959,-0.0298,0.073,9.788,0.4859,0.5066,-0.3171
7990,751,707,34.571,33.951,0.0353,-0.0386,9.8649,0.2132,0.2324,-0.3798
7995,754,701,34.56,33.957,0.0036,-0.1039,9.9117,-0.4542,0.3222,-0.1219
8000,754,691,34.633,33.983,0.0344,0.017,9.8064,-0.1873,-0.1091,0.3266
8005,768,689,34.59,33.909,0.0413,0.0087,9.8969,0.3024,-0.5909,-0.0614
8010,766,683,34.652,33.971,0.0082,0.001,9.7933,-0.5055,-0.5223,0.4576
8015,769,674,34.576,33.932,0.0657,0.0461,9.8736,-0.1846,0.5049,0.2466
8020,774,670,34.553,33.948,-0.0934,0.0481,9.7699,-0.5138,0.8657,-0.1379
8025,787,660,34.629,33.917,-0.0512,0.0105,9.8013,0.6853,0.6419,0.1111
8029,789,662,34.573,33.932,-0.0384,-0.0693,9.7841,-0.3386,-0.7659,-0.8315
8035,791,662,34.632,33.896,0.0276,-0.0213,9.797,-0.4128,-0.491,0.9698
8039,807,654,34.621,33.995,-0.0627,-0.0283,9.8108,0.7682,-0.4615,-0.1638
8045,814,652,34.61,33.936,0.0462,-0.026,9.7544,0.1315,0.8572,0.5485
8050,823,647,34.54,34.024,-0.0619,-0.0593,9.8042,-0.8133,0.1057,0.7914
8055,823,647,34.669,34.017,-0.0369,-0.0836,9.7069,0.0862,0.1985,0.274
8060,848,643,34.506,33.834,0.0571,-0.0515,9.846,-0.6593,-0.5575,0.6472
8064,860,641,34.601,33.942,0.0431,-0.0348,9.7294,-0.3739,0.3378,0.3993
8070,868,644,34.531,33.937,0.0658,0.0147,9.781,0.3091,-0.0385,-0.2123
8074,879,637,34.469,33.799,0.0491,0.0953,9.8335,0.4848,0.0726,0.3512
8080,884,638,34.551,33.967,0.0401,-0.0563,9.7706,-0.2249,-0.1056,-0.259
8085,898,642,34.58,33.923,-0.0098,-0.0313,9.7906,0.1923,0.1754,0.0419
8090,918,636,34.557,33.977,0.0201,-0.0748,9.795,0.0274,-1.0306,0.0421
8095,930,644,34.589,33.96,-0.0354,-0.0105,9.8247,-0.3226,0.4776,-0.5624
8100,937,644,34.657,34.027,0.0229,0.0883,9.9087,0.7529,-0.5669,-0.2685
8105,953,646,34.504,33.942,0.0144,0.0449,9.8825,-0.8024,0.8203,-0.0916
8109,966,645,34.548,33.947,0.0167,0.0134,9.837,0.3057,-0.0948,0.0821
8115,984,655,34.612,33.851,0.0318,-0.0106,9.8089,0.6006,0.2865,0.3764
8119,991,660,34.605,33.983,0.0134,0.0538,9.8017,-0.3445,0.6665,-0.2659
8125,997,658,34.691,34.017,0.0154,0.0111,9.7756,0.1708,-0.5396,0.1329
8130,1010,665,34.603,33.945,0.092,-0.0296,9.8124,0.4742,0.1586,-0.3348
8135,1043,678,34.555,33.955,-0.0115,-0.0526,9.8309,0.0841,0.1513,-0.1304
8140,1052,672,34.599,34.019,-0.0373,-0.0814,9.7793,-0.3303,-0.2563,-0.5727
8145,1056,682,34.576,33.927,-0.0602,0.0417,9.6066,-0.2609,0.1788,1.346
8150,1062,684,34.636,33.923,-0.0091,0.0164,9.7886,-0.3276,0.1661,0.2571
8154,1081,691,34.531,33.936,0.0156,0.0346,9.8388,-0.6486,-0.3481,-0.1371
8160,1089,706,34.553,33.983,0.0171,0.0116,9.7478,0.0189,-0.6725,-0.5111
8164,1106,709,34.57,33.916,-0.0341,0.0651,9.7758,-0.2701,0.5453,0.3594
8170,1110,714,34.598,33.938,-0.0813,0.037,9.7049,0.0803,-0.325,-0.1508
8175,1123,721,34.622,33.975,0.042,0.0463,9.8131,0.2538,0.8513,-0.4139
8180,1137,727,34.515,33.986,-0.0354,0.0379,9.7644,0.564,-0.1797,0.5828
8185,1148,735,34.586,33.916,-0.0078,-0.0228,9.9028,1.3177,-0.0096,-0.8647
8189,1139,744,34.545,33.892,0.0819,-0.0303,9.8203,-0.6069,0.4464,0.5208
8195,1155,754,34.616,33.851,-0.0153,-0.1127,9.8699,0.8807,-0.6142,0.3096
8200,1165,766,34.624,33.92,-0.0913,-0.006,9.8067,-0.0648,0.3465,0.7511
8205,1160,769,34.633,34.044,-0.0017,-0.0974,9.8143,-0.3001,0.1466,-0.1222
8210,1162,774,34.56,34.003,-0.0998,0.1016,9.8642,0.5895,0.2475,-0.169
8215,1168,788,34.637,33.967,-0.0417,0.0192,9.8401,-0.205,-0.2911,0.3463
8220,1174,790,34.622,33.932,0.0044,0.0218,9.8022,-0.392,0.4551,-0.3338
8225,1188,803,34.582,33.904,0.0661,0.014,9.9016,0.401,1.017,0.1287
8230,1182,813,34.574,33.854,0.0353,-0.0561,9.8232,-0.0243,0.0679,-0.1638
8235,1188,814,34.591,33.953,-0.0348,0.0437,9.72,-0.1009,1.3935,-0.1415
8240,1182,829,34.606,33.924,0.0198,0.1015,9.8263,0.7057,-0.1731,0.8507
8245,1189,833,34.623,33.96,0.0389,-0.0638,9.8145,0.5089,0.4848,-0.3292
8250,1186,842,34.516,33.922,0.0438,-0.053,9.8625,-0.0796,0.0531,-0.7666
8255,1199,847,34.5,33.868,0.0252,0.0242,9.8421,0.5545,0.0856,-0.3067
8260,1186,856,34.588,33.958,0.1493,-0.0995,9.9014,-0.2457,0.5355,0.2668
8265,1190,859,34.543,33.901,-0.0229,-0.0058,9.737,-0.0887,0.5115,-0.4296
8270,1190,866,34.585,33.958,-0.017,0.0104,9.875,0.6433,-0.7743,-0.444
8275,1181,872,34.582,33.883,0.0118,-0.0509,9.8661,-0.0922,0.8241,-0.1044
8280,1178,878,34.611,33.955,-0.0741,-0.0083,9.7946,-0.5261,0.4576,0.0091
8285,1182,886,34.523,33.889,0.0052,0.0701,9.8105,0.7088,-0.049,0.0048
8290,1171,884,34.62,33.925,0.0685,0.0215,9.8906,0.8511,-0.4825,0.6588
8295,1176,893,34.592,33.987,0.0636,0.0347,9.9043,0.2699,0.1115,-0.1847
8300,1170,901,34.567,33.967,-0.0352,-0.0309,9.8021,0.0318,0.0302,-0.1592
8305,1168,901,34.55,33.939,-0.034,-0.0071,9.8564,1.6894,1.1552,0.2625
8310,1164,906,34.621,33.933,0.017,-0.0187,9.7756,-0.9152,-0.5913,-0.4871
8315,1161,908,34.651,33.891,0.0453,0.0303,9.8282,-0.8837,0.4826,-0.7672
8320,1171,911,34.643,33.963,-0.0677,0.0778,9.7465,-0.0484,-0.5331,0.386
8325,1153,916,34.629,33.97,0.0791,0.0101,9.7475,-0.0111,0.1771,0.1858
8330,1160,917,34.524,33.983,-0.001,0.0452,9.8472,-0.8141,-0.3749,0.901
8335,1146,915,34.562,33.955,0.0006,0.0296,9.8331,0.4036,0.1949,0.2414
8340,1150,917,34.655,33.958,-0.002,-0.0342,9.8825,0.2433,0.0419,0.2619
8345,1147,924,34.576,33.925,-0.0707,-0.0838,9.7512,0.5702,-0.0275,0.2319
8350,1136,924,34.586,33.891,0.0216,0.0513,9.8681,-0.5112,0.0257,0.0864
8355,1124,922,34.486,33.932,0.023,0.031,9.7821,-0.0353,0.01,-0.3219
8360,1132,921,34.524,33.916,0.0334,0.0787,9.8647,-0.2089,0.7038,0.1719
8365,1118,921,34.551,33.956,0.0176,0.0141,9.8527,-0.6076,-0.9943,-0.0727
8370,1114,920,34.549,34.045,0.0202,-0.0144,9.7976,-0.8242,0.2231,-0.6275
8375,1123,922,34.552,33.92,0.0603,-0.0186,9.7457,-0.0786,-0.5862,0.7383
8380,1126,916,34.561,33.971,0.0008,0.066,9.8676,-0.2274,-0.0257,0.3002
8385,1109,918,34.517,33.95,0.0615,0.0057,9.7646,0.3564,-0.099,-1.1761
8390,1107,914,34.554,33.977,0.0278,0.0769,9.9357,-0.4151,-0.0251,-0.4516
8395,1111,911,34.539,33.935,-0.0489,0.005,9.8344,0.4954,-0.0266,0.4224
8400,1105,914,34.59,33.97,0.0821,0.0349,9.8363,0.6468,-0.5308,0.3731
8405,1110,910,34.536,33.935,-0.0093,-0.0509,9.8146,0.2044,0.1254,0.0114
8410,1101,903,34.523,33.962,0.096,-0.0689,9.7792,0.2304,-0.0197,-0.5219
8415,1102,903,34.53,33.953,0.0501,0.0161,9.8013,0.3461,0.0313,-0.1849
8420,1096,896,34.542,33.927,0.039,0.0271,9.8197,-0.1113,0.1143,0.9985
8425,1079,900,34.574,33.948,0.073,-0.0467,9.7619,-0.7447,-0.4224,-0.6506
8430,1092,900,34.551,33.926,0.1341,0.0056,9.7549,-0.0606,0.2862,-0.3656
