timestamp_ms,ir_finger,ir_toe,temp_finger,temp_toe,ax,ay,az,gx,gy,gz
0,1045,634,34.841,33.548,-0.0252,0.0726,9.859,-0.9234,-0.0184,-0.8827
5,1049,640,34.829,33.577,-0.0663,-0.0569,9.8416,-0.2854,-0.589,-0.4573
10,1067,647,34.877,33.531,-0.0023,0.0506,9.7394,0.0362,-0.1207,0.2104
15,1070,653,34.881,33.569,0.0821,-0.0229,9.8014,-0.361,-0.3083,0.204
20,1074,657,34.796,33.518,-0.0224,-0.0207,9.768,-0.3261,-0.6562,0.2162
25,1091,659,34.854,33.531,-0.0709,-0.0068,9.8462,0.6657,0.0181,-0.5419
30,1100,664,34.738,33.579,0.0041,-0.048,9.8373,0.1611,0.073,-0.0386
35,1115,671,34.858,33.575,-0.0598,-0.0629,9.7519,-0.9661,-0.0187,-0.4512
40,1109,673,34.759,33.421,-0.0512,0.0048,9.8248,0.3363,-0.225,0.6427
45,1128,683,34.747,33.582,0.0946,0.0429,9.8463,-0.0224,0.3495,-0.3781
50,1130,693,34.887,33.546,0.047,0.0347,9.7553,0.7843,0.4705,0.9578
55,1138,693,34.84,33.503,-0.0185,-0.0756,9.8294,0.3547,-0.6589,-0.4868
60,1148,706,34.875,33.566,-0.0458,-0.0759,9.857,-0.8176,0.3894,0.1321
65,1153,711,34.779,33.56,0.0072,-0.0035,9.8011,0.6888,0.1543,-0.6252
70,1166,716,34.804,33.541,-0.0315,0.0282,9.817,0.3776,0.3365,-0.015
75,1164,730,34.806,33.64,-0.0331,-0.0216,9.8123,-0.4408,0.1165,-0.9282
80,1173,730,34.771,33.553,0.022,0.0597,9.7579,0.1003,1.2614,-0.0091
85,1169,741,34.828,33.51,0.1668,-0.0319,9.7728,0.1152,0.0603,-0.1257
90,1179,749,34.801,33.555,0.0574,-0.0661,9.8041,-0.8364,0.2056,0.2647
95,1184,755,34.814,33.409,0.038,0.0554,9.7869,0.4435,-0.3597,-0.6103
100,1178,760,34.822,33.526,0.0014,0.0014,9.892,-0.0393,0.1012,-0.0181
105,1185,770,34.849,33.476,-0.0215,0.0144,9.8014,0.4507,-0.1629,0.233
110,1186,783,34.924,33.515,-0.0281,-0.0449,9.9209,-0.8254,0.6891,-0.3048
115,1194,783,34.78,33.535,0.0181,0.0912,9.7148,0.2531,0.0102,0.1878
120,1189,802,34.773,33.629,0.0517,-0.0145,9.7531,-0.4,-0.748,-0.4631
125,1195,802,34.776,33.531,-0.0145,-0.0204,9.9054,-0.023,-0.0404,-0.7279
130,1191,809,34.811,33.629,-0.0523,0.0248,9.8103,-0.6246,-0.2476,-0.1152
135,1196,819,34.795,33.447,-0.073,-0.0962,9.8354,-0.477,-0.3514,-0.068
140,1192,825,34.872,33.571,0.0254,0.0066,9.7808,0.1005,-0.1709,0.4356
145,1189,830,34.958,33.547,0.0251,-0.0038,9.8815,-0.8309,-0.1967,-0.4721
150,1187,833,34.821,33.584,0.0478,-0.0206,9.7989,0.1717,-0.311,0.3064
155,1183,852,34.786,33.552,-0.0409,-0.025,9.8812,0.6332,-0.2235,0.2075
160,1189,851,34.803,33.62,-0.0073,0.0746,9.8809,-0.541,-0.4993,-0.5912
165,1172,864,34.716,33.532,0.0108,-0.0529,9.7084,-0.0037,-0.2042,-0.1106
170,1177,864,34.758,33.458,-0.0633,0.0943,9.7767,-0.2219,-0.3024,-0.5358
175,1178,872,34.757,33.559,-0.0149,0.0395,9.8502,-0.3293,-0.3937,-0.2511
180,1167,880,34.809,33.599,-0.0421,0.0006,9.8224,0.1334,-0.1106,-0.2846
185,1169,881,34.714,33.492,-0.0461,-0.0349,9.8252,0.0176,0.1323,0.787
190,1172,890,34.874,33.585,0.0652,0.0412,9.8339,0.1049,0.7074,-0.3128
195,1169,898,34.858,33.459,-0.1073,-0.0095,9.7466,-0.4219,-0.5303,-0.3815
200,1164,901,34.764,33.496,-0.0166,0.0441,9.9547,-0.1831,0.1119,0.4594
205,1157,908,34.776,33.517,0.0118,0.0087,9.8031,-0.0183,-0.108,0.4127
210,1155,908,34.689,33.545,0.0385,-0.0325,9.8257,1.1719,0.102,-0.0269
215,1148,912,34.809,33.53,0.0659,-0.0094,9.8564,-0.3164,-0.4194,0.3401
220,1149,918,34.753,33.535,0.054,0.1669,9.8559,-0.1431,0.1663,-0.2564
225,1149,917,34.871,33.602,-0.0376,0.0262,9.8104,0.1936,-0.0705,0.3548
230,1141,921,34.811,33.496,-0.026,-0.092,9.7494,0.302,0.4628,0.4734
235,1142,924,34.775,33.542,-0.0161,0.1068,9.8095,-0.5766,0.539,0.4056
240,1134,923,34.881,33.443,-0.0319,0.0037,9.8598,0.4095,-0.8017,0.3843
245,1137,920,34.723,33.584,0.0404,0.0045,9.8756,-0.0054,0.4949,-0.0895
250,1129,927,34.837,33.575,-0.0146,-0.0118,9.7581,-0.0932,0.1158,0.5202
255,1131,931,34.788,33.481,-0.0108,0.0024,9.7949,-0.1315,-0.055,-0.1586
260,1127,931,34.864,33.508,0.0051,0.0251,9.7697,-0.1244,-0.4929,0.2333
265,1118,928,34.803,33.506,0.0724,-0.0642,9.7891,0.0382,-0.159,-0.0512
270,1121,936,34.815,33.535,-0.0514,-0.0242,9.773,0.2353,-0.0026,-0.4651
275,1112,924,34.83,33.576,-0.0468,-0.0093,9.8091,0.3477,-0.1175,0.1884
280,1115,932,34.822,33.571,-0.0996,0.0329,9.8338,-0.2435,-0.9043,0.1309
285,1114,928,34.838,33.602,-0.0031,0.0305,9.8257,0.2294,-0.1289,0.7243
290,1106,929,34.813,33.55,0.0153,0.0125,9.9089,-0.4133,0.4126,-0.3207
295,1110,926,34.816,33.497,-0.0497,0.0115,9.8232,-0.4207,0.7106,0.3431
300,1094,923,34.808,33.589,0.051,-0.0329,9.789,-0.2387,0.9427,0.3134
305,1105,926,34.756,33.609,0.0101,0.0136,9.7767,-0.0114,-0.2095,0.8279
310,1103,925,34.826,33.606,-0.0059,0.1126,9.8064,0.4478,-0.3299,0.6312
315,1097,923,34.812,33.495,-0.0003,-0.0207,9.7847,-0.2724,0.4772,0.8754
320,1094,924,34.776,33.538,0.0632,0.0539,9.8839,0.311,0.6774,0.4335
325,1097,913,34.816,33.564,0.0867,-0.0558,9.8423,-0.1182,-0.0328,-0.7385
330,1094,917,34.798,33.506,-0.0161,0.0283,9.7416,-1.1082,1.1277,-0.4436
335,1092,916,34.859,33.541,0.0166,0.0993,9.849,-0.261,0.3526,0.4423
340,1096,912,34.805,33.601,-0.0141,-0.0963,9.7723,-0.2413,-0.4717,-0.1334
345,1094,907,34.779,33.591,-0.0213,-0.0438,9.7724,0.8033,-0.7564,0.264
350,1085,903,34.753,33.595,0.0196,-0.0562,9.758,-0.3475,0.2956,0.1668
355,1085,911,34.889,33.585,-0.0709,0.0188,9.7816,-1.1357,0.5932,0.7312
360,1067,900,34.909,33.493,-0.0001,-0.0082,9.8461,0.7653,0.199,0.2203
365,1086,904,34.72,33.588,-0.0218,0.0082,9.8117,-0.0787,-0.6108,-0.7944
370,1063,900,34.833,33.533,0.0076,0.0595,9.9066,0.1269,0.849,-0.3346
375,1071,896,34.794,33.55,-0.0269,-0.0136,9.7369,0.2962,-0.0947,-0.5024
380,1066,888,34.808,33.52,-0.0205,0.0313,9.8347,0.1315,0.5982,0.4048
385,1054,896,34.791,33.536,-0.0217,-0.0113,9.8574,0.5381,0.8051,0.5699
390,1061,889,34.794,33.611,0.1114,0.0028,9.739,0.0231,-0.0435,-0.7224
395,1062,888,34.754,33.529,0.0079,0.078,9.78,0.7917,-0.4538,-0.0467
400,1061,881,34.752,33.676,0.0102,-0.0019,9.8576,-0.2058,0.5568,-0.0954
405,1041,882,34.791,33.59,0.0976,0.0739,9.8191,0.1426,0.4975,0.1282
410,1036,885,34.803,33.555,-0.0832,-0.0022,9.7204,0.7125,0.5517,0.2269
415,1052,877,34.825,33.522,0.0102,0.0288,9.8573,0.4867,-0.5669,0.1335
420,1036,878,34.73,33.554,0.0191,-0.0413,9.797,1.1419,-0.2012,0.4917
425,1033,877,34.871,33.593,-0.0623,-0.0023,9.8298,-0.4486,0.4963,-0.2556
430,1025,877,34.821,33.616,-0.0743,-0.0506,9.8417,1.2276,-0.1445,0.7947
435,1033,873,34.814,33.608,-0.0043,-0.0275,9.8066,0.2417,-0.6897,0.299
440,1013,871,34.796,33.543,0.0545,-0.0843,9.7355,-0.3778,0.164,-0.372
445,1020,865,34.825,33.437,-0.0346,0.0387,9.7847,-0.261,0.2007,-0.3616
450,1009,868,34.814,33.556,0.0261,0.0972,9.8936,0.1602,0.7246,-1.1641
455,1002,870,34.788,33.505,-0.0432,0.0489,9.7557,-0.3268,0.0488,0.3383
460,988,866,34.829,33.613,-0.0398,-0.0716,9.8107,0.2947,-0.7646,0.1927
465,986,866,34.826,33.521,-0.0338,0.0357,9.7516,-0.361,-0.2227,-0.5081
470,975,861,34.891,33.561,0.0025,0.0557,9.7693,0.454,-0.2496,-0.2266
475,970,864,34.798,33.521,0.1152,-0.0104,9.7536,0.3721,0.1356,0.2946
480,967,855,34.795,33.565,-0.0227,-0.0261,9.848,0.3989,0.3654,-0.4174
485,952,860,34.914,33.656,0.0194,-0.0203,9.818,-0.1205,-0.7791,-0.4208
490,948,855,34.865,33.527,0.1448,0.0913,9.8104,0.2783,-0.388,0.0113
495,947,855,34.85,33.625,0.0296,-0.0335,9.8767,0.2506,-0.2694,-0.0119
500,926,858,34.786,33.557,-0.0232,0.0422,9.76,0.5612,-0.4606,0.981
505,921,857,34.828,33.529,-0.0274,-0.0118,9.8869,1.1274,-0.0812,-0.1249
510,920,852,34.879,33.508,0.0737,0.0011,9.8754,0.7832,-0.325,1.0054
515,910,850,34.723,33.556,-0.1045,-0.0859,9.8968,-0.4353,0.366,0.1976
520,890,850,34.758,33.612,0.0008,0.0225,9.7405,-0.4173,-0.1134,-0.1925
525,888,843,34.842,33.568,-0.0521,0.0131,9.89,-0.7018,-0.0757,0.4846
530,887,842,34.83,33.55,0.0158,0.0273,9.7716,0.286,-0.0255,-0.5012
535,864,840,34.846,33.616,0.0684,-0.0079,9.8716,0.8464,-0.0924,0.3204
540,863,837,34.851,33.551,-0.0455,0.0136,9.8386,0.6111,0.025,-0.1643
545,852,835,34.826,33.533,-0.0029,-0.042,9.8324,0.324,-0.1522,0.0137
550,843,831,34.763,33.501,0.0054,0.0299,9.7521,-1.0022,-0.4005,-0.3997
555,843,828,34.846,33.553,-0.107,-0.0372,9.7318,-0.4796,0.2158,0.0011
560,830,825,34.87,33.484,0.0417,-0.0164,9.8039,-0.2852,0.5093,-0.4801
565,820,824,34.825,33.49,-0.0466,-0.0471,9.8271,0.6342,0.8808,-0.0843
570,818,821,34.839,33.479,0.0168,-0.0781,9.7521,0.3517,0.0437,-0.1482
575,807,819,34.789,33.509,0.089,-0.0614,9.8039,0.375,-0.0852,-0.8756
580,806,816,34.805,33.544,0.0581,0.0536,9.7949,0.2922,0.1965,0.8034
585,798,813,34.887,33.522,0.0484,-0.0872,9.7693,0.5473,-0.4589,0.5295
590,780,809,34.824,33.515,0.1047,-0.0231,9.8581,0.1316,0.088,-0.3771
595,790,800,34.923,33.581,-0.0067,0.0485,9.8051,-0.1885,0.2123,-0.3267
600,784,802,34.821,33.536,0.0736,0.0345,9.8018,0.5047,0.2657,0.3735
605,776,795,34.765,33.604,0.0056,-0.0314,9.8381,-1.0667,-0.4173,-0.4305
610,764,787,34.874,33.49,-0.0197,-0.0188,9.7796,-0.9245,-0.3436,-0.0454
615,762,783,34.86,33.607,0.0115,-0.0167,9.7813,-0.6304,0.5547,-0.187
620,761,778,34.726,33.593,0.0123,0.0002,9.7923,0.746,0.2422,-0.762
625,761,773,34.912,33.569,0.022,-0.0343,9.7637,-0.3673,0.3625,0.3694
630,742,764,34.766,33.541,0.0077,-0.027,9.7614,-0.2931,-0.5528,0.1213
635,749,765,34.746,33.526,-0.0301,-0.076,9.8334,-0.2423,-0.8355,-0.1787
640,752,758,34.784,33.53,-0.0243,-0.057,9.7318,0.1163,-0.1099,0.1979
645,758,753,34.894,33.547,0.0132,0.0537,9.7777,-0.9628,-0.6864,0.273
650,743,745,34.825,33.56,0.0197,0.0399,9.8417,-0.0682,-0.4354,0.6433
655,747,741,34.837,33.546,0.0412,-0.0331,9.8204,0.3901,0.409,-0.7192
660,749,736,34.775,33.605,-0.0211,-0.0176,9.7275,-0.4539,1.1669,0.652
665,749,725,34.816,33.502,0.013,-0.0106,9.8276,0.6171,0.6135,-0.9626
670,749,726,34.833,33.606,-0.0125,-0.0054,9.874,-0.552,0.5426,-0.3454
675,759,723,34.822,33.62,0.0649,0.0633,9.7947,0.0351,-0.8597,-0.4086
680,755,704,34.797,33.553,-0.0097,-0.0631,9.8428,-0.2689,0.8823,1.1791
685,757,701,34.778,33.595,0.0705,0.023,9.7609,0.52,0.3531,-0.364
690,752,700,34.703,33.518,-0.0141,0.0675,9.8168,0.1801,-0.5577,0.2881
695,767,688,34.797,33.501,-0.0743,-0.0058,9.8794,-0.2473,1.1547,0.9443
700,777,687,34.802,33.527,0.0594,-0.0882,9.8066,-0.8598,0.1341,0.8468
705,786,682,34.753,33.586,-0.0091,0.0055,9.8335,0.066,-0.9118,-0.2403
710,789,677,34.744,33.657,0.1178,-0.0179,9.781,-0.6318,-0.6758,-0.0922
715,799,671,34.816,33.476,0.0138,-0.0058,9.7782,-0.2804,-0.6257,-0.077
720,803,662,34.859,33.558,0.0345,0.039,9.8139,0.3212,-0.5265,-1.0539
725,822,667,34.9,33.531,-0.0233,0.062,9.8089,0.1718,0.4019,-0.5228
730,825,660,34.827,33.546,0.0883,-0.003,9.7824,-0.6281,-0.7294,-0.1092
735,838,650,34.797,33.637,-0.0248,0.0366,9.8657,0.835,0.3681,0.2356
740,849,650,34.862,33.681,-0.0663,0.0103,9.8524,-0.3459,0.7234,-0.106
745,839,647,34.765,33.602,0.0504,-0.0451,9.7381,-0.4663,0.7184,-0.1249
750,859,643,34.818,33.614,0.082,-0.0515,9.7564,1.0825,0.7697,0.8587
755,869,634,34.784,33.577,0.0246,-0.0326,9.7982,-0.5363,0.3001,0.2524
760,887,633,34.744,33.512,-0.0195,-0.0007,9.8828,0.2248,-0.4973,-0.3738
765,894,636,34.83,33.609,0.0216,0.0556,9.7723,0.3814,-0.3567,0.1131
770,902,633,34.868,33.622,0.0597,-0.0168,9.7776,-0.1572,0.2407,-0.2883
775,914,620,34.773,33.502,0.0109,-0.0354,9.8382,0.2411,-0.4047,-0.1058
780,928,630,34.864,33.539,0.0012,-0.0142,9.7572,-0.4701,-0.1188,0.655
785,937,627,34.796,33.469,0.0083,0.0344,9.7895,-0.8841,0.1038,0.355
790,951,625,34.79,33.538,0.041,-0.1556,9.7386,-0.5164,-0.6825,0.3406
795,963,626,34.8,33.505,0.0059,-0.0399,9.8078,-0.4655,0.312,0.2984
800,978,623,34.824,33.616,0.0869,-0.0325,9.7026,0.6905,-0.5107,-0.8124
805,987,635,34.755,33.537,-0.033,0.0563,9.8593,0.3376,0.1315,0.0097
810,993,627,34.837,33.585,-0.0111,0.0392,9.8342,-1.5598,0.2639,0.5883
815,1000,629,34.847,33.621,-0.0425,-0.0533,9.859,-0.4787,-0.1306,-0.6996
820,1013,631,34.869,33.464,0.006,0.0157,9.8306,-0.3985,-0.3414,-0.6146
825,1036,638,34.776,33.558,0.1131,-0.0254,9.8563,-0.1017,0.2496,0.9608
830,1039,638,34.786,33.551,-0.0565,-0.017,9.8456,-0.6024,0.5118,-0.5363
835,1054,650,34.805,33.478,0.0178,0.0455,9.7935,0.8582,0.219,-0.0115
840,1069,648,34.829,33.637,0.0236,0.0576,9.7713,0.0371,0.4065,-0.1781
845,1078,651,34.782,33.592,0.0363,0.0568,9.918,0.7324,0.3678,-0.865
850,1086,650,34.799,33.53,0.0318,-0.0062,9.8328,-0.489,0.3523,-0.159
855,1095,662,34.82,33.557,0.0397,-0.0576,9.725,-0.2761,0.4541,-0.3261
860,1095,663,34.748,33.492,-0.0566,-0.0324,9.7607,-0.6539,-0.5313,0.8821
865,1106,670,34.809,33.524,-0.0409,-0.0193,9.8442,-0.4897,0.8536,-0.498
870,1119,676,34.864,33.609,0.0551,-0.044,9.7749,0.6149,-0.6303,0.6578
875,1127,681,34.855,33.528,-0.0458,0.0222,9.8323,0.2055,0.3072,1.4467
880,1139,686,34.871,33.657,-0.0675,0.0515,9.779,-0.2403,-0.264,0.5281
885,1145,698,34.786,33.616,-0.0326,0.0482,9.8036,-0.5914,0.1078,-0.1256
890,1150,700,34.872,33.485,0.0019,-0.0206,9.8407,0.527,0.7713,0.5519
895,1158,710,34.804,33.599,-0.0597,0.0371,9.9063,0.3517,-0.391,0.4184
900,1165,712,34.882,33.521,0.0382,0.0101,9.7907,0.2735,-0.0181,0.1282
905,1160,728,34.875,33.501,0.0476,-0.0377,9.7965,0.4855,-1.455,0.2674
910,1169,732,34.876,33.463,0.0523,0.0678,9.7533,-0.7876,-0.1596,-0.59
915,1169,736,34.776,33.637,-0.0158,0.0971,9.8549,-0.4072,0.6725,-0.8349
920,1174,753,34.847,33.578,0.0049,0.0238,9.8725,0.1224,-0.7659,-0.2941
925,1186,753,34.786,33.453,0.029,0.0216,9.7318,0.1691,-0.7803,-0.2204
930,1184,761,34.933,33.541,0.0926,0.0557,9.7894,-0.1426,0.4567,-1.2482
935,1188,772,34.899,33.616,-0.0508,-0.0321,9.7932,-0.2593,0.4643,-0.3321
940,1180,771,34.836,33.579,0.0486,0.0023,9.7927,-0.1142,-0.1189,-0.0263
945,1198,784,34.798,33.495,0.0125,-0.0388,9.8421,-0.2099,0.1498,0.2981
950,1183,799,34.808,33.638,-0.0503,0.0419,9.7368,-0.0884,-0.6225,-0.4161
955,1187,805,34.799,33.579,0.0628,-0.0633,9.7959,0.2445,-0.9473,-0.4611
960,1181,810,34.828,33.689,0.0521,-0.0017,9.8635,0.0356,0.6207,1.3859
965,1190,814,34.86,33.545,-0.0678,0.0799,9.8058,0.0064,-0.9599,-0.51
970,1188,824,34.87,33.482,-0.022,-0.0135,9.8693,-0.0638,0.2665,0.5525
975,1189,833,34.756,33.594,0.0351,0.0023,9.8421,0.4612,-0.3408,-0.0424
980,1186,840,34.84,33.513,0.0051,0.0816,9.8121,-0.1109,0.0971,0.3892
985,1184,848,34.795,33.601,-0.0007,-0.0532,9.7757,-0.0417,-0.2706,-0.24
990,1183,848,34.824,33.632,0.0476,-0.0111,9.8612,-1.0865,0.4006,0.502
995,1183,860,34.85,33.462,-0.0505,-0.0763,9.7479,0.6057,-0.2251,-0.2621
1000,1174,874,34.791,33.515,0.0354,-0.095,9.6893,0.038,0.0794,-0.1836
1004,1178,871,34.874,33.65,0.0641,0.0373,9.852,0.0354,0.1506,0.5623
1010,1173,876,34.794,33.512,-0.0267,0.0265,9.8049,-1.0267,0.4414,-0.1798
1014,1169,886,34.843,33.596,0.0482,0.0691,9.825,-0.551,-0.0009,0.0463
1020,1175,890,34.866,33.603,-0.0097,0.022,9.7479,-0.2672,-0.0513,-0.3937
1025,1158,893,34.779,33.535,0.0398,-0.0603,9.7873,0.334,0.3052,0.0676
1030,1164,897,34.796,33.578,0.0255,0.0529,9.7389,-0.2829,-0.8355,-0.1171
1035,1157,902,34.791,33.528,-0.0786,-0.027,9.8082,0.486,-0.6345,-0.4697
1040,1161,911,34.855,33.648,-0.002,0.0514,9.8411,-0.3815,-0.2238,-0.179
1045,1147,906,34.85,33.614,0.1132,-0.0516,9.8324,0.3768,0.1823,-0.9505
1050,1148,918,34.823,33.592,-0.0345,0.0321,9.8937,-0.7631,-0.3022,-0.6061
1055,1142,916,34.729,33.567,0.0283,-0.031,9.8287,0.4907,0.2676,0.2342
1060,1140,920,34.796,33.558,0.0397,0.007,9.8326,-0.7109,0.7765,0.6029
1065,1134,922,34.8,33.629,-0.0239,0.0361,9.8068,-0.5993,0.1029,-0.0854
1070,1124,923,34.816,33.508,0.0734,-0.0121,9.7877,0.0264,-0.2189,0.2362
1075,1135,926,34.845,33.598,-0.02,0.0515,9.8509,0.2688,0.7148,0.141
1080,1136,924,34.78,33.602,0.0157,-0.0526,9.7884,-0.1561,-0.9384,0.2643
1085,1125,925,34.824,33.456,0.068,-0.0448,9.7481,0.6001,-0.0906,-0.3768
1090,1129,931,34.819,33.56,-0.0187,0.0251,9.8242,0.3064,-0.0208,0.3395
1095,1126,930,34.728,33.571,0.0162,0.0083,9.8431,0.2674,0.0715,0.0132
1100,1117,929,34.751,33.531,0.0111,-0.1111,9.7296,0.3543,0.5549,-1.0919
1105,1116,922,34.921,33.541,-0.0361,-0.0098,9.7625,-0.6269,0.1666,0.2468
1110,1112,930,34.873,33.547,0.0496,0.0008,9.7803,0.2156,-0.7009,0.2995
1115,1107,931,34.768,33.556,0.0589,0.0318,9.7864,0.6608,0.1706,0.3307
1120,1112,925,34.774,33.564,-0.039,0.0005,9.8908,-0.1239,-0.4848,-0.4454
1125,1109,922,34.822,33.582,-0.059,0.0075,9.7721,0.2434,-0.1221,0.1322
1130,1109,927,34.846,33.541,0.0096,-0.0562,9.841,0.5302,1.1484,-0.2931
1135,1109,929,34.796,33.473,-0.0763,0.0301,9.6875,-0.3412,-0.9774,-0.7716
1140,1100,920,34.775,33.566,0.0003,-0.0664,9.7622,0.0632,-0.046,-0.1226
1145,1096,922,34.797,33.589,0.0944,0.013,9.8338,-0.542,-0.7944,-0.4721
1150,1095,918,34.912,33.581,0.0021,-0.0284,9.8766,1.1168,-0.3096,-0.6882
1155,1092,918,34.918,33.525,-0.0397,-0.0226,9.8557,-0.5544,-0.292,-0.4986
1160,1085,912,34.883,33.506,0.0941,-0.0277,9.7685,-0.2376,0.2673,0.8914
1165,1088,920,34.821,33.545,-0.064,-0.0716,9.8828,0.1378,-0.0167,0.403
1170,1086,907,34.885,33.479,-0.0264,-0.002,9.6203,-0.0432,1.3075,-0.286
1175,1086,903,34.84,33.563,-0.0054,-0.0688,9.8765,-0.5453,-0.0605,-0.1405
1180,1080,909,34.886,33.62,0.0353,-0.0242,9.7803,0.2011,-0.0428,-0.3958
1185,1086,908,34.901,33.536,-0.0373,0.0186,9.8034,0.3648,-0.4598,-0.2107
1190,1073,901,34.726,33.646,-0.0638,-0.0201,9.8216,-0.3513,-0.0903,-0.1652
1195,1074,903,34.764,33.601,-0.0343,0.069,9.858,0.1328,0.885,-0.4575
1200,1076,901,34.769,33.571,-0.0369,0.0423,9.7347,0.4845,-0.4716,0.061
1205,1076,890,34.91,33.546,-0.0808,0.0313,9.7705,-0.4743,-0.4646,0.0527
1210,1077,893,34.836,33.524,-0.0889,-0.043,9.7732,-0.6835,0.1909,0.1407
1215,1065,894,34.841,33.507,0.0122,-0.0329,9.8637,-0.7181,-0.0561,-0.2273
1220,1063,892,34.789,33.599,-0.0385,-0.0337,9.8038,0.6716,0.2328,-0.7269
1225,1051,887,34.858,33.498,-0.0339,-0.0959,9.8112,0.0963,-0.1635,-0.4212
1230,1056,883,34.836,33.615,0.0347,0.0016,9.7171,0.3434,-0.6951,-0.9697
1235,1043,877,34.785,33.561,-0.0259,0.0354,9.8316,0.5299,-0.5404,-0.4404
1240,1048,884,34.809,33.43,-0.0335,0.0672,9.8078,0.3909,0.3066,-0.3265
1245,1050,883,34.899,33.602,0.0421,0.0513,9.8597,-0.4249,-0.5563,-0.4564
1250,1040,877,34.808,33.584,-0.0304,0.0339,9.8584,0.0243,-0.4852,0.5927
1255,1038,876,34.92,33.596,0.037,-0.0259,9.8144,0.0163,0.5822,0.1705
1260,1037,870,34.813,33.566,0.0066,-0.0047,9.7941,-0.7261,0.846,-0.3484
1265,1018,877,34.807,33.578,0.0104,0.0042,9.937,-0.4957,0.1064,0.4586
1270,1017,877,34.819,33.55,-0.0319,0.0032,9.8421,-0.2884,-0.1129,-1.0041
1275,1016,872,34.789,33.616,-0.0438,-0.0421,9.808,0.5384,-0.2015,0.6237
1280,999,865,34.811,33.522,-0.0081,0.0341,9.7897,-0.0434,-0.1586,0.4234
1285,996,869,34.884,33.515,-0.0077,-0.0377,9.7699,-0.111,0.0622,-0.1425
1290,988,865,34.824,33.555,-0.008,0.0334,9.7026,-0.4468,-0.1956,-0.0146
1295,999,866,34.845,33.566,-0.0326,-0.0022,9.8181,-0.5711,1.0616,0.4708
1300,986,863,34.816,33.476,0.0389,0.0441,9.8708,0.5266,-0.5488,-0.3033
1305,978,861,34.776,33.63,0.0101,-0.0031,9.8682,-0.5752,-0.1992,-0.1884
1310,953,869,34.796,33.511,0.0001,0.0156,9.8168,-0.1483,-0.6243,0.182
1315,954,862,34.858,33.531,-0.0032,0.0352,9.821,-0.1112,-0.3945,0.3803
1320,950,854,34.813,33.556,-0.013,-0.037,9.7775,0.1867,0.5446,-0.2588
1325,943,855,34.833,33.588,0.0623,-0.0107,9.8365,-0.507,-0.569,0.1004
1330,935,851,34.853,33.553,0.0276,0.0959,9.7692,0.1016,0.1807,0.2918
1335,915,853,34.81,33.666,0.1067,0.0631,9.8388,-0.0266,0.1093,-0.0827
1340,920,850,34.718,33.573,-0.0087,0.0434,9.9007,0.2221,0.4483,0.1121
1345,905,851,34.871,33.531,-0.0402,0.0291,9.7693,-0.6469,-0.1576,0.4837
1350,903,846,34.828,33.616,-0.0274,-0.0086,9.7684,1.0663,-0.1859,-0.9127
1355,896,843,34.905,33.45,0.0186,0.0931,9.8461,0.9429,-0.2238,-0.1008
1360,882,845,34.858,33.62,0.0708,0.011,9.8245,-0.2615,0.1341,-0.0953
1365,878,844,34.864,33.562,0.0371,-0.0113,9.7439,-0.089,0.683,-0.7656
1370,857,840,34.847,33.531,-0.02,-0.051,9.8928,-0.1509,-0.0122,-0.149
1375,847,841,34.897,33.631,0.0716,0.0336,9.8033,0.0502,-0.4424,-0.6475
1380,851,832,34.79,33.572,0.089,0.1473,9.7646,-0.1225,-0.2809,-0.2955
1385,841,831,34.755,33.486,-0.0075,-0.0674,9.7903,0.1004,-0.0965,-0.1044
1390,835,829,34.81,33.522,0.0241,0.0152,9.8508,0.0886,0.4978,-0.4129
1395,828,828,34.854,33.561,-0.0235,0.0463,9.8314,-0.2005,0.1479,-0.0437
1400,815,820,34.813,33.593,-0.0001,-0.0661,9.9117,0.3382,-0.4418,-0.1111
1405,812,817,34.777,33.588,-0.0329,-0.017,9.9222,-0.7085,0.8053,1.5217
1410,809,815,34.809,33.599,-0.0099,-0.0588,9.6995,-0.3958,0.6575,0.6668
1415,788,807,34.833,33.468,0.0159,-0.0207,9.8547,0.6509,1.0769,-0.523
1420,793,803,34.896,33.562,0.001,0.0761,9.7737,-0.2888,-0.5134,-0.3497
1425,782,802,34.972,33.529,-0.0136,-0.0918,9.8638,-0.4365,-0.7155,0.8801
1430,777,798,34.841,33.569,0.0369,0.0919,9.7525,0.2441,-0.2919,-0.5583
1435,778,796,34.796,33.599,0.0624,-0.0832,9.769,-0.2614,0.7943,-0.2525
1440,772,789,34.764,33.497,-0.0392,-0.0568,9.7554,-0.7368,0.2227,0.1389
1445,763,782,34.824,33.607,0.0563,0.0204,9.8282,0.0301,0.1693,0.4423
1450,758,775,34.888,33.551,0.0423,0.0042,9.813,0.1122,0.0444,0.1093
1455,760,774,34.889,33.585,0.0129,-0.0286,9.8327,-0.6642,0.1356,0.18
1460,761,767,34.852,33.477,0.013,-0.0018,9.7665,0.3348,-0.5203,-1.1564
1465,746,764,34.817,33.521,0.0203,-0.0596,9.7746,-0.8792,-0.1478,0.4021
1470,758,756,34.818,33.578,-0.0345,-0.0686,9.8707,-0.1913,0.0953,-0.0224
1475,751,751,34.849,33.533,-0.0511,-0.0357,9.7943,-0.0174,-0.1987,-0.614
1480,751,743,34.893,33.511,-0.0414,-0.0392,9.7561,0.6064,0.7569,-0.4187
1485,751,740,34.829,33.519,-0.0222,-0.1542,9.8432,-0.7816,-0.747,-0.4902
1490,747,737,34.86,33.588,0.0109,0.0402,9.86,-0.5619,1.1685,-0.2146
1495,749,727,34.828,33.625,0.0525,0.0621,9.8385,0.3395,0.2405,0.3254
1500,752,721,34.808,33.543,-0.0213,-0.0239,9.8144,-0.5355,-0.6057,0.1236
1505,758,718,34.844,33.571,-0.0236,0.0339,9.8934,0.7808,-0.0825,0.102
1510,752,708,34.81,33.517,-0.1212,0.0434,9.8167,0.4419,-0.2829,0.2203
1515,763,705,34.798,33.531,-0.059,0.0117,9.844,-0.936,-0.4677,-1.1947
1520,764,700,34.938,33.506,-0.0168,-0.0604,9.9068,-0.3508,-0.2808,0.077
1525,775,692,34.814,33.617,0.0271,0.0497,9.8359,-0.7884,-0.1439,-0.1324
1530,783,689,34.829,33.564,-0.0683,-0.009,9.8278,-0.182,0.2624,-0.529
1535,779,683,34.808,33.531,0.018,0.0106,9.7916,0.6312,-0.5222,0.0789
1540,789,680,34.84,33.604,0.1275,-0.0096,9.8454,-0.2349,-0.7886,-0.4466
1545,798,668,34.923,33.557,0.0138,-0.0083,9.8333,-0.247,-0.0411,-0.4554
1550,806,665,34.887,33.603,-0.0609,-0.0597,9.8308,-0.5162,0.1695,-0.2015
1555,811,662,34.802,33.546,0.0045,-0.0334,9.8044,-0.1872,-0.5502,-0.3345
1560,818,658,34.866,33.557,-0.0391,-0.0484,9.8101,0.0741,-0.3178,0.7652
1565,817,656,34.776,33.548,-0.0098,-0.0009,9.8715,-0.5714,0.3558,-0.4882
1570,837,655,34.819,33.626,0.0118,0.0293,9.8059,-0.6407,-0.4884,-0.1043
1575,846,645,34.842,33.548,0.021,0.0307,9.7768,0.0993,0.5141,-0.1662
1580,864,637,34.894,33.578,0.0685,0.0025,9.7796,-0.1724,0.6285,0.4166
1585,868,634,34.761,33.574,-0.0476,-0.0445,9.9007,0.615,0.2252,0.3849
1590,876,639,34.785,33.539,-0.0289,-0.056,9.7503,0.1628,0.0402,0.4687
1595,891,634,34.804,33.538,-0.0678,0.0221,9.8868,0.2228,0.706,-0.7113
1600,908,633,34.781,33.589,-0.1408,-0.0231,9.7527,0.0587,0.54,0.6766
1605,914,630,34.909,33.587,-0.0559,0.0154,9.8229,-0.8748,-1.0141,-0.3194
1610,923,625,34.838,33.524,0.0267,-0.0019,9.7865,0.1903,0.0034,0.5556
1615,931,630,34.808,33.469,-0.0307,-0.0285,9.816,0.4305,0.1703,-0.4726
1620,949,626,34.842,33.615,0.0296,-0.0732,9.8424,-0.4582,0.4802,-0.3455
1625,958,628,34.757,33.542,0.0459,0.0679,9.8487,0.1517,0.0691,0.3729
1630,970,633,34.829,33.676,0.0163,-0.0189,9.7824,0.0159,0.0917,-0.5271
1635,985,629,34.777,33.493,-0.0849,-0.0318,9.8851,-0.1019,0.3226,-0.3947
1640,997,630,34.851,33.631,-0.0022,0.0261,9.8607,-0.0727,0.6027,0.0398
1645,1005,633,34.802,33.641,-0.1336,0.0118,9.8758,-0.181,-0.3473,-0.2207
1650,1017,633,34.867,33.51,-0.0593,-0.002,9.7983,0.4533,0.0429,-0.5655
1655,1027,631,34.836,33.533,-0.0745,0.0259,9.7651,0.3903,0.3179,0.1601
1660,1029,634,34.805,33.67,0.0721,-0.0168,9.742,-0.1,-0.1291,0.2188
1665,1050,639,34.905,33.593,0.152,-0.1586,9.7651,-1.4085,-0.7799,-0.5894
1670,1065,644,34.793,33.608,-0.0101,0.0404,9.7652,0.7422,0.7658,-1.4033
1675,1074,644,34.898,33.493,0.114,0.0055,9.7409,0.0885,0.0632,-0.3336
1680,1080,651,34.839,33.559,-0.0331,-0.0092,9.7602,-0.0864,-0.6789,1.1291
1685,1093,660,34.795,33.469,-0.0408,0.0031,9.8015,-0.4075,-0.6686,-0.8085
1690,1098,667,34.837,33.628,0.0772,-0.1032,9.782,-0.7807,0.6125,0.2165
1695,1096,669,34.836,33.63,-0.0672,0.0978,9.7562,0.2086,-0.8627,0.0065
1700,1114,670,34.796,33.567,0.0339,0.0144,9.7838,-0.0595,-0.0406,0.6354
1705,1124,679,34.816,33.538,0.0266,0.0899,9.7346,0.1193,-0.6872,-0.6536
1710,1136,686,34.827,33.662,-0.0114,-0.0925,9.7842,0.542,0.4159,0.1349
1715,1138,695,34.811,33.516,-0.0043,-0.0024,9.7467,0.4866,-0.9032,0.0247
1720,1147,701,34.859,33.575,0.0221,-0.0637,9.7756,-0.2952,0.3124,0.2481
1725,1148,703,34.777,33.589,-0.0313,-0.0718,9.7791,0.102,-0.0963,-0.1929
1730,1148,709,34.804,33.558,0.0494,0.0334,9.7636,0.1806,-0.2916,0.2169
1735,1161,720,34.774,33.637,0.0512,-0.0248,9.871,-0.6804,0.7484,-0.1632
1740,1164,729,34.81,33.47,0.0401,0.1033,9.7829,0.0315,-0.5266,0.4078
1745,1163,738,34.826,33.686,-0.0701,0.0342,9.8007,0.4024,-0.5829,0.0661
1750,1172,740,34.84,33.523,0.0484,0.0683,9.7373,0.4328,-0.249,0.1081
1755,1170,756,34.805,33.556,0.0471,-0.0993,9.927,0.4387,0.6588,-0.2765
1760,1186,758,34.818,33.598,0.0058,-0.0291,9.7956,0.2813,0.5786,0.319
1765,1183,768,34.852,33.635,0.0045,0.0171,9.7916,0.2909,0.5789,-0.2203
1770,1192,776,34.881,33.557,-0.0086,-0.0768,9.8429,0.2393,0.5266,-0.1672
1775,1185,786,34.87,33.477,-0.0793,0.0239,9.7633,0.3023,-0.0601,-0.3552
1780,1183,796,34.769,33.53,0.004,0.0495,9.8298,-0.6871,0.2786,-0.5214
1785,1184,799,34.829,33.569,-0.0791,-0.0969,9.8188,-0.0794,0.3289,0.1058
1790,1185,805,34.892,33.645,0.0552,-0.0602,9.8364,-1.0908,-0.4163,0.275
1795,1191,819,34.817,33.516,-0.0728,-0.0722,9.7593,-0.1643,-0.368,-0.8359
1800,1187,825,34.746,33.59,0.0014,-0.0037,9.7704,-0.325,-0.5741,-0.4032
1805,1188,834,34.919,33.578,0.0188,0.0306,9.783,0.385,0.1817,-0.0636
1810,1190,843,34.835,33.572,-0.0105,0.0138,9.8559,0.1014,-0.3028,0.4624
1815,1181,839,34.805,33.605,0.0196,0.0044,9.7361,0.5512,-0.4791,0.2848
1820,1184,853,34.819,33.638,-0.0702,0.0058,9.8348,-0.4828,1.1803,0.3506
1825,1182,857,34.744,33.562,0.0267,0.0171,9.7512,-0.3455,-0.4584,-0.5522
1830,1176,866,34.863,33.493,-0.0367,-0.0857,9.8395,0.3221,0.5301,0.0068
1835,1176,867,34.852,33.581,0.0308,-0.0118,9.7861,0.4696,0.4046,0.2339
1840,1178,877,34.871,33.55,-0.0341,-0.0317,9.9085,0.773,0.2106,-0.4976
1845,1168,881,34.885,33.568,-0.0076,0.0076,9.7546,-0.135,0.6067,0.068
1850,1166,889,34.851,33.574,-0.021,0.0143,9.7628,0.373,0.6602,-0.0417
1855,1156,887,34.845,33.563,-0.0553,-0.0124,9.8008,-0.2051,0.334,-0.3668
1860,1158,894,34.794,33.575,-0.0657,0.0487,9.813,-0.1476,0.5743,-0.3896
1865,1154,903,34.825,33.52,0.0347,-0.0001,9.7998,0.2341,0.4144,0.2042
1870,1154,902,34.864,33.583,-0.0536,0.0053,9.9433,-0.1255,-0.6163,-0.2691
1875,1150,915,34.872,33.598,0.0083,0.0731,9.9187,0.3157,-0.2877,-0.2277
1880,1151,915,34.842,33.619,0.0308,0.0761,9.7498,0.376,-0.2936,-0.0718
1885,1147,920,34.826,33.535,0.007,-0.012,9.7724,-0.3793,0.0444,-0.0134
1890,1142,917,34.808,33.585,0.0445,0.0164,9.7746,-0.3956,0.5878,0.8778
1895,1139,923,34.863,33.712,0.0166,-0.0133,9.7908,-0.8594,0.3772,-0.3777
1900,1142,916,34.82,33.551,-0.0549,0.0179,9.7777,-0.2919,-0.1404,0.5328
1905,1130,925,34.856,33.563,0.1299,-0.0504,9.7757,-0.0348,-0.9058,-0.2826
1910,1128,928,34.963,33.628,-0.1168,0.008,9.7466,-0.0847,-0.3489,0.2587
1915,1127,926,34.818,33.591,0.1165,0.0422,9.8411,0.5687,0.1306,0.2818
1920,1120,929,34.882,33.654,-0.0024,-0.0292,9.7802,-0.7353,0.6343,0.4897
1925,1116,928,34.848,33.582,0.0388,0.0598,9.7867,-0.4759,-0.3981,0.6169
1930,1122,934,34.75,33.606,-0.0034,-0.0377,9.7359,0.9716,0.5816,0.0494
1935,1112,930,34.81,33.603,0.0065,-0.0183,9.7758,0.5131,0.2257,-0.3276
1940,1111,927,34.855,33.583,-0.033,-0.0257,9.7992,-0.1968,-0.0773,0.2454
1945,1114,928,34.851,33.594,0.0022,-0.0299,9.8618,-0.5767,-0.9862,0.5478
1950,1109,923,34.816,33.606,-0.062,0.0105,9.7517,0.634,0.2493,-0.3854
1955,1100,929,34.84,33.549,-0.0079,-0.0155,9.7686,-0.714,-1.3064,-0.1229
1960,1106,926,34.918,33.585,-0.0056,0.0226,9.7992,0.12,-0.2214,-0.2072
1965,1103,924,34.853,33.52,0.0293,-0.0278,9.8176,-0.2354,-0.3872,-0.0612
1970,1098,924,34.841,33.595,-0.0416,-0.0247,9.7851,0.273,-0.3945,0.144
1975,1100,919,34.84,33.557,-0.064,-0.0565,9.908,-0.234,0.7706,-0.3597
1980,1097,919,34.825,33.61,0.0176,0.027,9.8697,0.261,0.584,-0.1691
1985,1095,913,34.773,33.568,-0.0938,-0.1065,9.7987,-0.539,-0.7531,-0.1529
1990,1095,917,34.839,33.572,-0.0479,-0.0834,9.9076,0.3059,0.1646,0.0197
1995,1087,913,34.806,33.568,-0.007,-0.0465,9.8538,0.5896,0.5778,0.6211
2000,1086,911,34.898,33.498,0.1042,-0.0257,9.7604,-0.5704,0.4845,0.1466
2005,1087,910,34.919,33.573,-0.0961,-0.0419,9.8312,-0.1375,-0.7497,-0.4129
2009,1090,908,34.881,33.539,0.0368,0.0167,9.8248,0.3187,0.4219,0.754
2015,1084,907,34.803,33.575,-0.0426,0.0249,9.7969,1.773,-0.2189,-0.2697
2020,1074,907,34.873,33.592,0.0365,-0.0453,9.7486,-0.4821,0.0774,-0.8907
2025,1081,899,34.756,33.649,-0.013,-0.0948,9.8539,0.5999,-0.0277,-0.1953
2029,1078,899,34.871,33.567,0.0702,-0.0603,9.866,-0.1786,0.4456,0.2063
2035,1076,896,34.871,33.61,0.0493,-0.0535,9.8204,-0.5301,-0.1428,0.731
2040,1070,897,34.742,33.58,0.0468,0.0273,9.8509,0.2258,0.6742,-1.4494
2045,1068,892,34.902,33.595,-0.0374,-0.0014,9.8343,-0.2341,-1.318,0.2459
2050,1078,893,34.838,33.607,-0.0204,0.0683,9.7253,-0.1621,0.3068,0.7727
2055,1061,884,34.827,33.521,0.0221,0.0116,9.8546,0.2075,-0.0803,-0.7407
2060,1052,891,34.825,33.562,0.0048,-0.0477,9.718,0.6305,-0.1177,-1.0196
2065,1059,882,34.857,33.512,0.0151,0.0484,9.7567,0.227,-0.5213,0.0078
2070,1054,879,34.854,33.676,-0.0339,-0.0921,9.7725,0.1319,-0.3546,0.2759
2075,1048,877,34.863,33.481,-0.0682,-0.1036,9.8119,-0.9166,0.1945,0.3562
2080,1034,872,34.853,33.528,-0.0618,0.0453,9.6826,-0.3649,0.4938,-0.0769
2085,1035,884,34.88,33.589,0.0458,0.0493,9.8466,0.7251,-0.4025,0.1138
2090,1022,873,34.944,33.544,-0.0301,0.0157,9.7829,0.3843,0.2456,0.038
2095,1029,875,34.836,33.574,-0.0617,0.0132,9.853,0.3426,-0.7949,0.1338
2100,1022,870,34.839,33.577,0.0338,0.036,9.8123,0.3684,1.098,0.6159
2105,1018,871,34.853,33.538,-0.0435,0.0353,9.893,-0.2272,0.105,-0.4011
2110,1012,865,34.837,33.567,0.0835,-0.0376,9.7836,1.0227,-0.0672,0.7565
2115,1007,871,34.815,33.541,-0.1252,-0.1066,9.7644,-0.1248,-0.307,0.0952
2120,992,871,34.832,33.531,-0.0306,-0.0542,9.794,0.1458,0.0974,0.6613
2125,984,861,34.854,33.667,0.0617,0.0216,9.8458,0.1386,0.1334,0.1757
2130,981,868,34.811,33.587,-0.0081,0.072,9.8207,0.4195,-0.2248,0.1946
2135,974,860,34.867,33.518,-0.0292,0.0361,9.9104,0.6852,0.2458,0.4681
2140,964,854,34.874,33.613,0.02,-0.0028,9.9027,-0.4143,-0.5664,0.0944
2145,954,860,34.778,33.537,0.0136,-0.0342,9.845,-0.4705,0.5763,-0.3428
2150,951,858,34.888,33.542,-0.0569,0.057,9.8692,0.7744,0.2238,0.0973
2155,941,854,34.738,33.554,-0.0109,0.0349,9.7166,-0.1231,-0.5113,-0.609
2160,936,856,34.857,33.595,0.0152,-0.0337,9.7839,0.3006,0.0575,-0.6578
2165,919,859,34.779,33.587,-0.0044,0.0531,9.7426,-0.2196,-1.2892,-0.1559
2170,919,855,34.814,33.639,0.0094,-0.136,9.8137,0.825,0.3153,0.5076
2175,911,852,34.797,33.622,0.0026,0.0509,9.7999,0.6962,-0.3834,-0.1626
2180,908,848,34.86,33.613,-0.0564,-0.0233,9.802,0.5657,0.2987,0.4567
2185,889,849,34.771,33.576,-0.0161,-0.0215,9.7024,0.6534,0.4274,0.1036
2190,879,842,34.83,33.591,0.0767,-0.0393,9.7803,0.1987,-0.9848,-0.4478
2195,872,842,34.821,33.627,0.0003,0.0661,9.791,-0.29,0.5384,0.6582
2200,861,844,34.731,33.533,0.1253,-0.0237,9.907,-0.015,0.5343,-0.2002
2205,857,839,34.832,33.573,-0.0484,-0.004,9.7499,0.5497,-0.2864,-0.1606
2210,850,830,34.906,33.606,-0.0059,-0.0715,9.7525,-0.3594,0.0474,-0.312
2215,846,831,34.882,33.564,0.0665,0.0043,9.8083,0.0107,-0.7978,-0.2571
2220,830,829,34.821,33.592,0.0614,0.0305,9.797,-0.3044,-0.5326,-0.3889
2225,829,820,34.866,33.616,-0.0806,0.0115,9.7565,0.0861,0.7167,-0.3174
2230,818,821,34.831,33.569,-0.0155,0.0994,9.8948,0.0436,-0.5997,0.4066
2235,812,822,34.795,33.607,0.0182,0.0105,9.7418,-0.4019,0.5016,0.3151
2240,801,811,34.796,33.64,0.0919,-0.0119,9.8173,0.2774,-0.5109,-1.0387
2245,798,814,34.826,33.583,0.0593,-0.0321,9.7274,0.2931,0.94,1.0372
2250,787,807,34.893,33.641,0.0047,-0.0568,9.8353,-0.1248,-0.3386,-0.5883
2255,771,803,34.73,33.617,0.0794,-0.0014,9.8942,-0.7823,0.0789,-1.0908
2260,789,797,34.806,33.584,-0.0549,-0.0123,9.766,-0.0758,1.1837,-0.1432
2265,783,794,34.797,33.552,0.0072,-0.0587,9.8341,-0.2399,0.3389,-0.8174
2270,777,791,34.821,33.585,-0.0915,-0.0018,9.832,-0.1087,0.1354,0.3887
2275,766,778,34.882,33.62,-0.0428,0.0237,9.8845,0.5837,0.0673,0.6946
2280,757,780,34.824,33.646,-0.0087,0.0818,9.8671,-0.1015,-0.5139,-0.0248
2285,758,776,34.864,33.536,0.0445,-0.0073,9.7985,0.5978,-0.4301,0.7271
2290,759,770,34.84,33.571,-0.0363,-0.0166,9.8156,0.1483,-0.0106,0.3495
2295,755,758,34.788,33.637,0.0085,-0.0255,9.8266,0.3731,-0.1797,-0.2186
2300,751,760,34.855,33.519,0.0804,0.041,9.7955,-0.4499,-0.6675,-0.0922
2305,748,748,34.862,33.693,-0.0414,0.0742,9.7752,-0.164,-0.2438,-0.4679
2310,746,751,34.9,33.578,-0.0762,-0.068,9.8415,-0.2602,0.437,-0.8971
2315,758,742,34.778,33.595,0.0802,-0.1008,9.8473,-0.9929,0.6193,0.2168
2320,754,735,34.867,33.618,0.0311,-0.0086,9.838,-0.5221,-0.4945,-0.5594
2325,753,726,34.841,33.616,0.0312,0.0212,9.7357,0.8745,0.6586,-0.1007
2330,759,729,34.838,33.58,-0.0208,0.0685,9.874,-0.2518,-0.4162,0.7578
2335,760,718,34.921,33.662,0.0422,0.0199,9.7355,-0.5672,-0.5739,0.1928
2340,751,713,34.809,33.558,0.0408,-0.1063,9.8699,0.5346,-0.4343,0.0119
2345,766,703,34.816,33.643,0.0027,-0.0233,9.8221,0.2596,0.0066,-1.0113
2350,762,698,34.803,33.652,-0.1019,-0.0519,9.8437,-0.2302,-0.1329,0.5941
2355,775,695,34.882,33.505,-0.0287,-0.1003,9.8166,-1.0877,-1.0181,0.1239
2360,773,686,34.833,33.646,0.0481,0.0483,9.8418,-0.8487,0.4099,0.4439
2365,772,683,34.903,33.616,0.057,-0.0832,9.7966,0.0139,-0.9563,0.9421
2370,788,679,34.775,33.636,-0.0253,-0.0056,9.8075,-0.2014,-0.1748,-0.5867
2375,798,679,34.753,33.64,-0.0778,0.0684,9.8227,-0.1061,-0.5176,0.089
2380,808,665,34.91,33.534,-0.0186,-0.022,9.8007,-0.1777,-0.9867,-0.9432
2385,813,664,34.866,33.561,-0.0176,-0.0588,9.8258,-1.0936,0.2991,0.2088
2390,823,662,34.9,33.554,-0.0902,-0.0839,9.8496,0.6828,-0.5626,-0.7648
2395,826,663,34.87,33.582,0.0077,-0.0502,9.7922,-0.2954,1.1056,-0.2764
2400,830,649,34.816,33.615,-0.0049,-0.0205,9.8477,0.6924,-0.5148,0.2596
2405,852,645,34.886,33.628,0.0,0.0346,9.9524,0.5759,-0.2473,-0.4293
2410,854,644,34.808,33.668,0.0453,0.0487,9.8165,0.0773,-0.0692,0.3034
2415,873,638,34.805,33.532,-0.0208,-0.0253,9.8404,-0.7317,-0.2886,0.3679
2420,872,638,34.786,33.607,-0.0432,-0.0631,9.7705,0.005,0.9608,0.4279
2425,881,630,34.791,33.552,-0.036,-0.085,9.8144,-0.3805,0.6573,-1.5299
2430,905,632,34.899,33.53,-0.0222,0.0055,9.6868,-0.3543,-0.4957,0.3169
2435,907,633,34.884,33.544,-0.0276,0.0266,9.8263,-0.1916,0.0518,0.5327
2440,920,629,34.857,33.6,0.027,-0.0249,9.7405,0.9127,-0.6661,0.0494
2445,940,631,34.772,33.546,-0.0335,-0.0309,9.7502,0.3152,0.4701,0.7598
2450,932,631,34.841,33.569,-0.0097,0.0195,9.7599,-0.7102,-0.5336,-0.6923
2455,951,628,34.87,33.681,0.0423,0.0227,9.8291,-0.1234,0.131,0.1459
2460,968,621,34.847,33.615,0.0804,-0.0089,9.773,-0.065,0.531,-0.4491
2465,988,631,34.842,33.559,0.0131,0.0392,9.7971,0.5288,-1.0109,-0.2751
2470,987,627,34.77,33.599,-0.0297,0.1247,9.7674,0.0889,0.3054,-0.6636
2475,999,627,34.885,33.659,-0.0247,-0.0449,9.7084,-0.1208,-0.0823,0.483
2480,1013,628,34.854,33.538,-0.0243,0.0341,9.765,-0.6534,0.3572,1.0577
2485,1037,637,34.911,33.561,-0.0263,-0.1166,9.8017,-0.3813,-0.2,-0.3959
2490,1032,638,34.821,33.573,-0.0895,0.0562,9.8355,0.5653,0.1561,0.9026
2495,1040,647,34.846,33.669,-0.0724,0.0694,9.8879,0.3678,-0.2074,-0.2052
2500,1052,646,34.844,33.531,0.0702,-0.003,9.8631,-0.2912,-0.3823,0.397
2505,1064,647,34.777,33.562,0.0012,0.0449,9.874,-0.1806,-0.8071,0.1167
2510,1083,650,34.973,33.568,0.0005,-0.0794,9.8425,-0.7011,-0.0541,-0.6873
2515,1085,661,34.818,33.549,-0.0496,0.0258,9.949,0.4182,0.3771,-0.5442
2520,1087,663,34.839,33.561,0.0393,0.0256,9.8199,0.187,0.888,-0.0838
2525,1106,665,34.807,33.529,0.0548,0.0058,9.8857,-0.4553,-0.7575,-0.265
2530,1106,679,34.852,33.556,-0.0136,0.0392,9.7252,0.0981,-0.328,0.1416
2535,1120,680,34.805,33.606,0.0669,0.0098,9.9615,0.2381,0.3367,-0.545
2540,1125,680,34.83,33.644,0.0716,0.0105,9.8351,0.4682,0.5029,-0.4113
2545,1143,691,34.867,33.526,0.0363,-0.0089,9.844,0.7225,-0.7122,0.5351
2550,1150,698,34.875,33.487,-0.0064,-0.0177,9.8663,-0.4746,-0.074,1.0975
2555,1150,715,34.845,33.632,0.1139,0.0143,9.8051,-0.4649,-0.3178,1.2101
2560,1161,711,34.688,33.677,-0.0275,0.0646,9.8672,-0.2958,0.6362,-0.2896
2565,1160,722,34.803,33.578,-0.0523,-0.0506,9.8723,0.7179,0.1227,0.1863
2570,1175,723,34.828,33.578,0.0692,0.0272,9.8563,-0.5873,0.0651,1.3035
2575,1167,736,34.849,33.672,-0.0868,0.0299,9.8461,1.0222,-0.5609,-0.2097
2580,1168,740,34.92,33.655,0.0295,-0.0033,9.8946,-0.1616,0.2757,0.3496
2585,1179,751,34.791,33.686,-0.0468,0.0638,9.7756,0.9185,0.5966,0.8941
2590,1182,765,34.813,33.586,-0.0405,0.0553,9.7773,0.3645,-0.2962,1.1162
2595,1179,770,34.896,33.582,-0.1591,-0.0046,9.8598,-0.2795,1.0563,0.3904
2600,1179,775,34.853,33.587,-0.0968,-0.0377,9.8661,-0.4566,0.1298,0.2354
2605,1191,782,34.806,33.592,-0.0062,0.1012,9.759,-0.2273,0.8836,-0.7234
2610,1186,793,34.911,33.561,0.0009,-0.0533,9.7873,-0.0095,0.127,0.3006
2615,1190,800,34.823,33.548,-0.0141,-0.0066,9.7337,-0.2202,0.5171,0.344
2620,1193,809,34.806,33.528,-0.0124,0.0443,9.7554,-0.1062,0.2937,-0.7596
2625,1185,818,34.809,33.556,-0.0156,0.0244,9.859,0.6985,-0.2882,-0.1508
2630,1184,822,34.771,33.599,0.0034,0.04,9.7576,0.2251,-1.1905,0.4809
2635,1182,832,34.928,33.59,-0.0055,0.053,9.8233,-0.0932,-0.0586,0.0732
2640,1192,838,34.781,33.555,0.0351,-0.0072,9.8191,0.7663,-1.1487,0.3555
2645,1183,844,34.855,33.612,0.0379,-0.0469,9.7904,0.0133,-0.1843,-0.0531
2650,1182,856,34.884,33.638,0.068,-0.0251,9.7599,0.0714,0.1352,-0.4352
2655,1190,857,34.774,33.539,0.0544,-0.0544,9.82,-0.5253,0.1941,0.0078
2660,1176,865,34.73,33.514,0.0599,0.0409,9.796,-0.2595,0.5842,-0.4703
2665,1174,874,34.942,33.591,-0.0315,-0.0034,9.7809,0.1705,-0.1992,-0.5289
2670,1176,876,34.791,33.655,-0.0485,-0.085,9.8463,-0.2113,0.5543,0.2407
2675,1173,877,34.847,33.565,0.0109,0.0121,9.8348,-0.0362,-0.5082,-0.8924
2680,1164,886,34.89,33.569,-0.0265,0.0399,9.6884,-0.1353,-0.1756,0.0709
2685,1170,894,34.791,33.514,-0.0036,-0.0744,9.8061,0.8617,0.1247,0.6029
2690,1160,897,34.842,33.613,-0.0413,0.0169,9.8042,0.3824,0.4379,-0.2099
2695,1163,899,34.866,33.594,-0.0161,-0.0073,9.8107,0.8601,-0.3061,-0.541
2700,1156,907,34.855,33.65,-0.093,0.0557,9.827,-0.1896,-0.473,-0.1229
2705,1156,907,34.842,33.544,-0.0483,-0.0161,9.7883,0.3392,0.4638,-0.0918
2710,1147,911,34.913,33.582,0.1244,-0.0344,9.8328,-0.3618,1.5045,-0.2782
2715,1148,912,34.765,33.687,0.0156,-0.0567,9.9169,0.2175,-0.0863,-0.4755
2720,1142,915,34.677,33.604,0.0375,-0.0297,9.8135,0.1571,0.0417,-0.4333
2725,1139,917,34.896,33.531,-0.0776,-0.0061,9.8857,-0.6343,-1.2859,-0.057
2730,1129,924,34.804,33.68,-0.0481,-0.0333,9.7747,0.3483,0.121,-0.2008
2735,1131,922,34.79,33.628,0.0198,-0.0749,9.7384,0.1236,-0.0754,0.4314
2740,1129,929,34.86,33.501,0.018,0.0475,9.8648,-0.324,1.4125,0.3151
2745,1127,925,34.901,33.568,-0.0481,-0.0667,9.7309,0.1763,-0.0526,0.1874
2750,1119,926,34.865,33.6,-0.0578,0.0813,9.8122,0.0272,-0.0965,-0.0019
2755,1114,922,34.817,33.602,-0.0673,0.0051,9.8758,0.1964,-0.1434,-0.3594
2760,1121,932,34.911,33.633,-0.037,0.0079,9.7542,0.4003,0.2966,0.8822
2765,1115,928,34.89,33.548,0.0422,-0.0107,9.8086,0.2298,0.0822,0.0265
2770,1114,930,34.928,33.632,-0.0297,-0.0033,9.774,-0.3539,0.1229,-0.0434
2775,1118,927,34.84,33.553,-0.0086,-0.0318,9.7919,-0.3569,-0.0388,0.6042
2780,1112,937,34.815,33.568,0.0437,0.0291,9.7275,1.0021,0.7181,-0.8852
2785,1116,924,34.828,33.557,0.0097,-0.0599,9.7305,0.465,-0.1619,0.6671
2790,1101,927,34.802,33.527,0.0613,-0.0459,9.7206,0.0499,-0.1012,0.6878
2795,1099,920,34.925,33.53,0.0427,-0.0918,9.7817,0.5846,-0.3197,0.1868
2800,1104,922,34.809,33.67,0.0026,-0.0932,9.7853,0.2807,-0.2863,-0.2575
2805,1091,921,34.872,33.537,-0.0186,-0.1003,9.8737,-0.1205,-0.4665,0.2922
2810,1093,924,34.809,33.54,0.0068,-0.0032,9.9441,0.4487,-0.4076,0.2851
2815,1093,916,34.87,33.642,-0.0859,0.0429,9.8584,0.0153,0.6823,0.1947
2820,1094,917,34.89,33.519,-0.0515,0.0074,9.8093,0.1684,-0.4476,-0.2844
2825,1089,915,34.798,33.563,0.0672,-0.0138,9.8049,0.9248,0.2275,-0.3294
2830,1090,908,34.911,33.655,0.0622,0.0604,9.8294,0.5847,-0.4311,-0.2836
2835,1090,914,34.834,33.57,0.0143,0.0335,9.7832,-0.1283,-0.4061,0.0817
2840,1080,904,34.914,33.694,0.0278,0.0252,9.739,0.1016,0.2742,0.4899
2845,1085,905,34.802,33.618,-0.0211,0.0421,9.7581,0.1185,0.4126,-0.0128
2850,1076,905,34.833,33.573,-0.0668,-0.0635,9.7555,0.1057,-0.061,0.3631
2855,1065,900,34.817,33.555,0.0383,-0.0082,9.8605,-0.4597,-0.675,0.8639
2860,1078,898,34.885,33.586,-0.1047,-0.0003,9.7986,-0.3438,0.144,0.4931
2865,1072,899,34.843,33.589,-0.0171,-0.0274,9.7738,-0.1573,-0.1382,0.3721
2870,1062,894,34.866,33.646,0.0031,-0.0345,9.8085,-0.3148,0.0454,-0.1163
2875,1065,895,34.885,33.615,0.0186,0.08,9.7569,0.4533,0.3543,-0.1784
2880,1080,894,34.852,33.507,-0.0296,-0.007,9.7588,-0.0785,-0.687,0.383
2885,1066,890,34.859,33.617,-0.0559,-0.0122,9.7395,-0.4388,0.3116,0.4504
2890,1057,887,34.864,33.612,-0.0215,0.0186,9.7776,-0.2271,-0.1423,0.4989
2895,1050,886,34.851,33.595,-0.0155,-0.0054,9.9254,1.1151,0.1541,0.44
2900,1052,886,34.86,33.595,-0.01,0.0341,9.7608,0.2455,0.3328,-0.9558
2905,1047,882,34.794,33.558,-0.1232,0.0717,9.6827,-0.0775,-0.9609,-0.0929
2910,1048,874,34.784,33.615,-0.0562,0.0002,9.7686,-0.0836,0.2798,-0.5463
2915,1033,878,34.836,33.584,-0.0322,0.0051,9.8199,-0.0081,1.1194,-0.1645
2920,1031,876,34.802,33.535,-0.0132,0.0107,9.8813,0.0505,0.3707,0.7282
2925,1031,873,34.855,33.623,0.0449,-0.1153,9.7434,-0.2552,0.384,0.6095
2930,1026,872,34.96,33.587,0.0298,0.0188,9.8152,0.2926,-0.2938,-0.0835
2935,1018,875,34.805,33.613,0.1016,0.0033,9.8748,0.2015,-0.0583,-0.3282
2940,1005,874,34.909,33.53,0.0669,0.0238,9.8777,0.1967,-0.4584,-0.4187
2945,1007,873,34.773,33.614,-0.0866,-0.0943,9.7459,-1.0194,0.2227,0.0449
2950,1000,866,34.878,33.611,0.0111,-0.0089,9.708,0.3841,0.4309,0.7157
2955,981,865,34.845,33.67,0.0202,-0.0314,9.8201,0.9886,0.57,0.6485
2960,988,860,34.862,33.574,0.04,-0.0249,9.7532,-0.9648,0.2108,0.0098
2965,980,858,34.88,33.582,0.0329,-0.0793,9.9083,0.8097,-0.2594,0.9756
2970,975,858,34.869,33.534,0.0393,0.0094,9.8297,0.0671,0.3722,1.096
2975,964,861,34.868,33.525,0.0055,0.0506,9.8603,0.8013,0.607,0.1845
2980,946,861,34.877,33.581,-0.0522,0.0015,9.7963,0.0172,1.058,-0.5737
2985,945,856,34.838,33.578,-0.0093,0.0542,9.8426,0.167,-0.2164,0.5056
2990,941,858,34.847,33.55,0.0068,-0.0552,9.9075,0.1604,-0.3253,-0.4456
2995,939,851,34.708,33.533,0.0682,0.0286,9.8661,0.7937,-0.3585,-1.2011
3000,919,850,34.89,33.576,-0.0101,-0.0526,9.7571,-0.2273,0.3334,-0.387
3005,916,852,34.945,33.529,0.0129,-0.0401,9.8958,-0.4039,0.1775,0.1663
3010,897,852,34.875,33.544,-0.0234,0.0516,9.8426,-0.1237,0.8234,-0.6182
3015,899,849,34.848,33.696,-0.0614,0.111,9.7953,-0.3141,-0.068,-0.0625
3020,884,845,34.88,33.612,-0.0661,-0.0761,9.7167,-0.2059,0.0939,0.0129
3025,871,846,34.873,33.579,-0.0079,-0.1298,9.9072,0.2056,0.5198,0.7135
3030,871,839,34.85,33.615,0.0272,0.0343,9.8109,0.065,-0.8965,0.5225
3035,870,839,34.891,33.507,-0.0851,-0.0711,9.7855,0.9266,-0.1688,0.9445
3040,855,831,34.857,33.63,-0.0163,0.0604,9.7938,0.9431,-0.2196,-0.2406
3045,839,840,34.88,33.616,-0.0165,0.0379,9.8899,-0.4571,0.8235,0.3989
3050,833,825,34.838,33.607,-0.0151,0.0404,9.7891,-0.2127,-0.733,0.5
3055,828,826,34.808,33.542,-0.0025,-0.0009,9.8781,-0.0585,-0.4016,0.4623
3060,829,825,34.874,33.579,-0.0311,-0.0052,9.775,-0.4062,-0.2321,0.2407
3065,816,817,34.828,33.613,0.0833,0.0609,9.8085,-0.1311,-0.1191,0.4713
3070,803,815,34.799,33.573,-0.0705,-0.046,9.8185,0.9272,-0.7557,-0.3653
3075,793,806,34.837,33.59,0.0305,0.0467,9.8384,0.1902,-0.7265,-0.8007
3080,785,808,34.849,33.57,0.0298,0.0698,9.7818,0.1227,-0.4749,0.1632
3085,789,808,34.917,33.72,0.0082,0.0119,9.8076,1.1354,0.5121,-0.9943
3090,777,799,34.93,33.61,0.0156,-0.0289,9.7991,0.2637,0.6558,0.6488
3095,777,792,34.839,33.621,0.0386,-0.0281,9.8796,-0.3576,0.7277,1.0126
3100,778,792,34.902,33.526,0.0127,-0.0833,9.715,0.3414,0.6342,-0.605
3105,758,787,34.858,33.562,-0.0233,-0.0538,9.8678,0.4312,1.0441,0.1813
3110,758,782,34.941,33.629,0.0104,0.0577,9.8803,-0.5563,-0.0012,0.6758
3115,752,777,34.887,33.512,-0.1046,0.0699,9.7976,-0.5056,-0.5491,-0.8301
3120,753,772,34.834,33.597,0.0241,0.0427,9.7829,-0.923,0.3377,-0.2445
3125,748,768,34.879,33.615,0.0249,-0.0047,9.7535,0.2024,-0.4103,-0.1965
3130,754,758,34.784,33.585,0.0693,-0.0339,9.8814,-0.2052,0.1146,-0.236
3135,748,753,34.774,33.638,-0.0675,-0.041,9.7833,-0.6322,0.6246,0.8065
3140,746,751,34.899,33.547,0.0948,0.0908,9.8829,-0.1687,0.1453,-0.5931
3145,747,742,34.83,33.552,-0.05,0.0075,9.8323,0.5138,-0.1751,0.7396
3150,743,737,34.954,33.482,-0.1039,0.0222,9.7614,0.0313,1.0854,-0.728
3155,752,724,34.788,33.614,-0.0203,0.0447,9.8183,-0.1358,0.4837,0.2694
3160,757,723,34.873,33.599,0.0547,-0.0355,9.7696,-0.7503,0.6485,-0.4068
3165,752,721,34.886,33.57,-0.0091,-0.0224,9.7793,-0.1429,-0.9012,-0.2424
3170,752,714,34.886,33.598,-0.0623,0.0318,9.8298,0.2607,-0.0782,-0.1796
3175,763,703,34.822,33.545,-0.0487,-0.0449,9.7855,0.5807,0.1503,-0.4103
3180,766,694,34.819,33.491,0.0193,-0.0699,9.9008,-0.4448,0.1992,-0.4738
3185,762,694,34.801,33.616,-0.0169,0.0469,9.8004,-0.6986,0.0326,0.0472
3190,775,687,34.726,33.563,-0.0848,-0.056,9.8143,-0.8738,1.1501,0.9318
3195,775,682,34.888,33.597,-0.0228,-0.0145,9.8256,0.008,0.8476,0.3635
3200,791,673,34.866,33.583,-0.0278,-0.0007,9.7997,-0.8484,0.1822,-0.9989
3205,793,672,34.831,33.578,-0.0119,-0.0615,9.8309,0.5326,0.5195,-0.3203
3210,799,669,34.783,33.571,-0.0389,-0.02,9.7777,-0.7807,-0.2514,-0.2585
3215,816,662,34.884,33.614,-0.0308,-0.0284,9.7842,0.4576,0.0076,-0.7842
3220,807,663,34.845,33.559,0.0026,-0.025,9.895,1.6384,-0.1544,1.4051
3225,824,654,34.782,33.561,0.0154,0.0492,9.9162,0.4855,-0.1667,-0.8804
3230,841,654,34.822,33.567,0.0385,0.0247,9.8357,-0.5458,-0.452,0.0848
3235,846,645,34.797,33.681,-0.0262,-0.041,9.827,-0.2574,0.7023,-0.2811
3240,856,645,34.877,33.595,-0.0125,-0.0038,9.8072,0.0504,-0.7281,-0.2042
3245,860,641,34.787,33.458,-0.1064,-0.0023,9.7259,0.4125,-0.124,-0.1399
3250,880,640,34.817,33.661,0.0606,-0.0136,9.8126,-0.1096,-0.919,-0.6515
3255,889,638,34.788,33.701,-0.0113,-0.0065,9.8454,-0.3325,-0.5929,-0.421
3260,893,634,34.851,33.605,0.0832,-0.0289,9.7917,-0.6887,0.5217,0.5699
3265,914,626,34.717,33.644,0.0972,-0.0374,9.9128,-0.2765,0.5443,-0.3761
3270,921,622,34.864,33.618,-0.0236,0.0073,9.8573,-0.8261,0.4008,-0.2616
3275,934,623,34.883,33.606,0.0748,-0.037,9.8698,-0.1533,-0.0201,-0.779
3280,944,629,34.864,33.587,-0.0673,0.0415,9.842,0.1912,0.0724,0.8833
3285,946,625,34.822,33.555,-0.0205,-0.0033,9.8164,-0.3271,-0.3631,-0.8858
3290,968,626,34.928,33.618,0.0437,-0.0423,9.8638,-0.9841,-0.0355,0.2485
3295,979,624,34.845,33.592,-0.0153,-0.0152,9.8556,-0.0157,-0.6026,0.1491
3300,989,627,34.838,33.573,0.0017,0.0682,9.7744,-0.225,-0.8234,0.2191
3305,1001,633,34.82,33.6,0.049,0.0767,9.7632,0.3974,-0.0036,0.284
3310,1013,634,34.806,33.57,0.1058,0.0089,9.7608,-0.5587,0.0262,0.0871
3315,1023,635,34.79,33.612,0.056,-0.06,9.8053,0.0244,0.3752,-0.1769
3320,1039,644,34.837,33.677,-0.0824,0.0566,9.8176,0.5597,-0.0236,-0.1815
3325,1054,640,34.863,33.62,0.0689,-0.0034,9.8077,0.3377,-0.1822,0.5054
3330,1054,640,34.872,33.648,0.0318,0.0251,9.8151,0.4645,0.6045,-0.6418
3335,1067,646,34.969,33.642,-0.0916,0.0944,9.7484,-0.2963,0.343,0.3757
3340,1078,649,34.811,33.583,0.0129,0.0217,9.8199,0.2951,-0.1579,-0.4075
3345,1081,660,34.913,33.665,-0.0283,0.0538,9.8663,0.3274,-0.1278,0.0294
3350,1089,663,34.792,33.605,-0.0347,-0.0451,9.8511,0.5038,-0.1577,-0.0636
3355,1101,673,34.79,33.581,0.0592,0.0256,9.8116,-0.0435,0.1487,-0.1165
3360,1119,671,34.725,33.534,-0.0428,-0.0315,9.9129,0.1461,-0.3145,0.0891
3365,1118,682,34.853,33.657,0.0017,-0.0497,9.8407,-0.2302,0.4353,-0.2931
3370,1123,683,34.906,33.612,-0.0029,-0.0138,9.8078,-0.1993,0.054,-1.0387
3375,1128,693,34.861,33.528,-0.02,-0.0426,9.8894,0.5983,-0.4314,-0.6466
3380,1142,694,34.835,33.695,-0.0066,-0.0425,9.9227,0.229,0.4789,0.5675
3385,1150,708,34.834,33.556,-0.0823,0.0274,9.7976,-0.049,-0.2551,-0.1917
3390,1150,714,34.79,33.584,-0.072,-0.0428,9.7848,0.2095,0.669,0.315
3395,1159,714,34.912,33.604,0.0173,-0.0086,9.8145,0.0471,-0.1034,0.3789
3400,1167,726,34.881,33.522,0.0393,0.0273,9.7485,0.2382,-1.0428,0.0264
3405,1175,732,34.815,33.623,-0.0055,0.0795,9.8441,-0.1387,0.5469,-0.3927
3410,1169,742,34.909,33.614,-0.0425,-0.0374,9.8419,-0.8067,-0.1346,-0.2086
3415,1179,750,34.779,33.496,-0.0468,0.0478,9.8485,0.2229,0.1195,0.4706
3420,1184,759,34.85,33.615,0.0068,0.0401,9.7965,-0.8859,-0.4959,0.0394
3425,1177,769,34.847,33.654,0.0018,0.1278,10.0028,0.3268,-0.3651,-0.0583
3430,1190,776,34.843,33.562,0.0661,-0.0622,9.8371,0.0382,0.3195,0.2148
3435,1191,781,34.859,33.615,0.0736,-0.0341,9.8561,0.2167,-0.1258,-0.0211
3440,1182,791,34.858,33.621,0.0376,0.0534,9.8411,0.2834,-0.4059,0.0373
3445,1191,796,34.823,33.527,-0.0466,0.0206,9.7243,0.679,1.1465,0.1744
3450,1188,806,34.845,33.575,-0.1005,0.0773,9.8109,0.7443,0.655,-0.2029
3455,1188,814,34.856,33.561,-0.0548,0.0472,9.8099,0.6487,0.137,0.4862
3460,1180,818,34.948,33.582,0.0032,-0.0118,9.7903,-0.3093,-0.063,-0.5863
3465,1197,827,34.833,33.606,-0.0146,-0.032,9.9073,0.1571,-0.1659,-0.3057
3470,1188,830,34.822,33.628,-0.0374,-0.0079,9.8362,-0.147,-0.5545,0.56
3475,1174,835,34.939,33.686,0.0023,0.0788,9.8631,0.9053,-0.4565,-0.069
3480,1191,851,34.788,33.634,0.0361,-0.0016,9.7013,0.1422,-0.1747,-0.0675
3485,1197,852,34.89,33.579,0.0588,0.0121,9.7746,0.6718,-0.2714,0.0796
3490,1178,868,34.844,33.565,0.0546,0.0142,9.7634,-0.0145,-0.2623,-0.2002
3495,1177,873,34.807,33.528,0.0055,0.0623,9.7463,-0.3548,-0.5646,0.5645
3500,1167,876,34.872,33.652,0.0381,-0.0222,9.8077,0.7338,-0.4588,0.0875
3505,1174,881,34.917,33.59,-0.1087,0.1147,9.7673,0.9059,0.0674,0.4718
3510,1162,891,34.851,33.51,-0.0796,-0.03,9.7517,-0.0133,0.2016,0.0857
3515,1160,894,34.879,33.578,-0.0023,-0.0184,9.8371,0.2459,-0.7343,0.4348
3520,1161,899,34.888,33.684,0.0515,0.0165,9.6736,0.3691,-0.0161,0.1667
3525,1164,896,34.935,33.672,0.0859,0.0541,9.7305,0.3539,0.3456,-0.1375
3530,1154,901,34.831,33.588,-0.0229,-0.0134,9.7956,-0.0831,-0.0865,-0.079
3535,1156,906,34.865,33.61,-0.0017,-0.0326,9.8335,-0.4,0.0255,-0.3376
3540,1143,912,34.83,33.741,0.0688,-0.0226,9.8445,-0.5368,-0.4175,-0.446
3545,1147,916,34.821,33.593,0.0442,-0.0039,9.7305,0.8122,-0.3415,-0.3317
3550,1144,919,34.919,33.527,0.019,0.0593,9.8244,-0.2001,0.0345,-0.2014
3555,1145,921,34.805,33.552,-0.0697,0.0471,9.8445,0.59,-0.0642,0.0759
3560,1133,924,34.887,33.643,0.0529,-0.0527,9.9191,-0.202,-0.3204,1.0434
3565,1134,921,34.854,33.679,-0.1013,0.0758,9.8317,-0.171,0.459,-0.1574
3570,1138,924,34.91,33.659,-0.0139,0.0231,9.8222,0.6343,0.5349,-0.8097
3575,1128,925,34.872,33.603,0.0059,0.0559,9.7125,-0.0052,-0.855,0.2435
3580,1121,931,34.828,33.581,0.0185,-0.0697,9.9397,0.5569,0.8458,0.0937
3585,1127,927,34.906,33.598,0.0787,-0.0086,9.7607,-0.2493,-0.2075,-1.1399
3590,1116,932,34.953,33.462,-0.0832,0.0215,9.7881,-0.2405,-0.1114,1.0713
3595,1121,920,34.894,33.588,0.0261,0.0771,9.7663,0.5329,0.4903,-1.1626
3600,1119,931,34.84,33.615,0.0378,0.0443,9.7893,-0.3374,-0.7429,1.0644
3605,1117,924,34.817,33.575,-0.0817,0.0904,9.8191,-0.5624,0.1881,-0.2241
3610,1107,926,34.794,33.557,0.0679,-0.0177,9.7659,0.8175,-0.7057,-0.6979
3615,1103,929,34.943,33.635,0.0821,0.0087,9.7951,0.2201,0.2284,0.0427
3620,1106,924,34.823,33.567,0.0019,-0.1084,9.8714,-0.9756,-0.5954,0.1252
3625,1107,929,34.826,33.568,0.0282,0.0062,9.7925,-0.0435,-0.0209,0.7182
3630,1102,926,34.857,33.715,-0.0421,-0.0614,9.7849,-0.4667,-0.137,0.7001
3635,1107,922,34.788,33.548,-0.009,0.0246,9.7064,-0.7185,-0.3121,-0.2235
3640,1108,916,34.753,33.582,-0.0474,-0.0555,9.7434,-0.2363,-0.1773,0.7541
3645,1099,913,34.864,33.562,-0.0214,-0.0153,9.8075,-0.703,0.5588,0.2423
3650,1094,920,34.806,33.622,0.069,-0.0015,9.8432,0.1448,-0.61,-0.4079
3655,1093,920,34.824,33.532,0.0333,-0.0059,9.8432,-0.1451,0.5514,0.5734
3660,1092,913,34.799,33.541,-0.0538,0.0234,9.8237,0.127,-0.1482,-0.2891
3665,1091,908,34.876,33.676,-0.083,0.0134,9.755,0.0715,0.9057,0.3874
3670,1086,914,34.921,33.674,-0.0246,-0.0232,9.8221,0.2534,-0.0195,0.0478
3675,1087,906,34.839,33.583,0.0869,-0.0556,9.8224,-0.8075,-0.1798,-0.2668
3680,1077,905,34.863,33.671,0.0495,0.0168,9.8022,1.1073,0.343,0.523
3685,1079,896,34.883,33.584,0.0223,-0.0157,9.7653,-0.3963,0.2922,-0.5792
3690,1072,901,34.819,33.643,-0.0918,-0.1108,9.8436,-0.1368,-0.264,0.4285
3695,1074,894,34.881,33.665,-0.004,-0.0138,9.7879,0.3017,0.5034,-0.0774
3700,1075,892,34.863,33.615,-0.0143,0.093,9.8627,-0.6979,1.2178,0.2565
3705,1077,899,34.839,33.594,0.0625,-0.0529,9.8647,-0.1922,-0.5212,0.1645
3710,1067,891,34.871,33.558,0.0372,-0.0082,9.7764,0.0373,-0.1878,0.8348
3715,1063,891,34.901,33.646,-0.0341,-0.0145,9.8258,-0.4621,-0.0983,0.5205
3720,1056,888,34.853,33.485,-0.0343,-0.0705,9.8238,0.5433,0.7057,-0.6895
3725,1052,880,34.848,33.609,-0.0106,-0.0357,9.6663,0.1195,0.1722,-0.0094
3730,1050,878,34.87,33.561,0.0496,0.0015,9.7936,0.4536,0.0788,0.007
3735,1041,877,34.854,33.552,-0.0342,0.0164,9.7637,-0.5555,-0.1971,-0.7025
3740,1038,882,34.893,33.615,-0.119,-0.0663,9.8234,-0.2686,-0.55,-0.2589
3745,1041,871,34.925,33.539,0.0238,-0.0055,9.8285,-0.4358,-0.5751,0.1065
3750,1029,876,34.882,33.536,-0.04,0.1059,9.7503,-0.2107,-0.0354,-0.0503
3755,1027,870,34.879,33.531,-0.0659,0.0338,9.7773,-0.1381,-0.4689,-0.1317
3760,1024,875,34.946,33.606,0.0198,0.0891,9.808,-1.0441,-0.1999,-0.1263
3765,1010,872,34.9,33.645,0.0061,-0.0021,9.7245,-0.4336,-0.0353,0.1377
3770,1012,868,34.84,33.549,-0.0329,-0.0176,9.8707,0.1323,-0.1657,0.0896
3775,1013,873,34.832,33.653,-0.0209,0.0793,9.843,0.0682,-1.3992,-0.6008
3780,988,866,34.906,33.69,-0.0462,-0.0143,9.785,-0.4136,0.4936,0.5504
3785,987,863,34.857,33.599,-0.0724,0.0252,9.8252,-0.1653,0.2048,0.4345
3790,977,861,34.855,33.508,0.0675,0.0288,9.7839,0.4591,0.6121,-0.034
3795,969,869,34.795,33.611,-0.0937,-0.0779,9.8052,0.0572,0.8636,-0.3338
3800,970,857,34.91,33.559,-0.0891,-0.0056,9.7921,-0.394,0.2173,0.4906
3805,966,862,34.748,33.671,0.0055,0.0252,9.8041,-0.0128,0.0599,0.3364
3810,954,859,34.783,33.691,0.0165,-0.0386,9.8311,-0.6484,0.076,-0.1134
3815,944,855,34.863,33.602,-0.0269,0.0374,9.8782,0.2417,-0.1898,0.4023
3820,947,858,34.835,33.529,-0.0251,0.0051,9.7532,-0.4806,0.9242,-0.0001
3825,926,860,34.825,33.627,0.0867,0.0351,9.8553,-0.8858,0.3853,-0.0946
3830,920,856,34.821,33.595,-0.1094,0.0942,9.876,0.2263,0.743,0.9404
3835,915,849,34.835,33.567,-0.0091,0.0166,9.8696,0.5007,-1.258,0.4294
3840,910,849,34.948,33.571,0.0599,-0.01,9.8223,0.3092,-0.0677,-0.5553
3845,886,848,34.735,33.581,0.074,-0.056,9.8454,0.7959,-0.5562,-0.3286
3850,893,846,34.808,33.521,0.0389,0.1263,9.7746,0.1158,0.2222,0.3345
3855,878,843,34.841,33.612,-0.0858,-0.029,9.887,-0.1079,-0.344,0.3306
3860,866,841,34.746,33.657,-0.0374,0.0628,9.8354,0.8433,-0.2566,-1.124
3865,860,844,34.903,33.577,-0.0001,0.0492,9.8473,-0.059,-0.3518,-0.7728
3870,852,829,34.808,33.623,0.0175,-0.013,9.763,-0.1533,0.4507,-0.7361
3875,848,829,34.789,33.597,-0.0875,-0.0137,9.8121,0.4756,-0.0244,0.6811
3880,833,828,34.964,33.513,0.0436,-0.0057,9.8392,1.0674,-0.0647,0.1473
3885,838,825,34.794,33.577,0.041,0.0627,9.8653,-0.1047,0.0125,0.5054
3890,819,823,34.768,33.528,0.0466,-0.0194,9.7158,-0.0968,0.3721,-0.6814
3895,809,823,34.884,33.577,-0.0583,-0.017,9.8516,-0.1115,0.4097,-0.2108
3900,815,814,34.958,33.593,0.1222,-0.0085,9.8412,0.2668,0.3659,-0.0669
3905,801,816,34.805,33.509,0.0692,-0.0399,9.7768,-0.4463,-0.0039,0.2442
3910,791,809,34.88,33.601,-0.03,-0.0452,9.7847,0.1229,0.6188,0.9525
3915,788,803,34.882,33.527,-0.0418,0.0085,9.8726,-0.3795,0.0004,-0.2862
3920,769,798,34.9,33.575,0.0418,0.0291,9.7021,0.5772,0.2317,-0.076
3925,769,798,34.859,33.525,0.0486,-0.0494,9.7894,0.6437,0.2102,0.2308
3930,769,788,34.757,33.56,0.0343,0.0592,9.7619,-0.5945,0.2424,0.4484
3935,761,785,34.859,33.462,-0.0054,0.024,9.8332,0.6232,0.3591,-0.197
3940,764,780,34.859,33.547,-0.0231,0.0542,9.8441,-0.1234,-0.4594,-0.0398
3945,761,774,34.89,33.577,-0.057,0.0694,9.7606,-0.0293,-0.3898,-0.2259
3950,759,774,34.892,33.655,-0.0632,-0.0268,9.8043,0.2117,-0.1347,0.1875
3955,755,770,34.859,33.603,-0.0518,0.0393,9.7923,0.2846,-0.9091,-0.5091
3960,747,762,34.824,33.606,-0.0206,-0.0677,9.7427,-0.4461,0.8479,0.137
3965,743,756,34.876,33.653,0.0191,-0.0557,9.7995,-0.5498,0.1891,0.2934
3970,748,743,34.894,33.618,0.0376,0.0624,9.8514,0.1761,1.0794,-0.842
3975,749,736,34.862,33.606,0.0223,0.0313,9.7888,-0.2185,-0.661,-0.598
3980,745,738,34.86,33.512,-0.0694,-0.029,9.752,-0.4142,-0.0007,-0.6504
3985,748,732,34.902,33.598,0.0221,0.0357,9.8983,0.3366,0.0723,-0.2559
3990,751,725,34.804,33.627,-0.0074,-0.0008,9.8647,0.8665,0.7184,0.3298
3995,749,718,34.862,33.622,0.0473,-0.0053,9.8378,0.035,-0.2509,0.7627
4000,762,712,34.957,33.663,-0.0508,0.0248,9.832,-0.4044,0.3479,0.5021
4005,756,704,34.902,33.577,-0.0067,0.0008,9.8084,0.154,-0.1679,0.438
4010,763,696,34.784,33.573,0.0778,0.0071,9.8143,-0.443,-0.1641,0.0067
4014,783,695,34.86,33.58,0.0235,0.0092,9.8665,-0.6045,0.8658,-0.5408
4019,782,694,34.886,33.537,-0.0265,0.0377,9.7115,-0.45,-0.385,0.3586
4025,772,684,34.835,33.552,-0.0816,0.0418,9.8152,-0.6169,1.1659,-0.0397
4030,775,678,34.857,33.634,0.0311,-0.0702,9.7897,-0.0638,1.7343,-0.3322
4035,799,673,34.9,33.641,0.0777,0.0068,9.7988,0.7683,-0.5225,-0.2175
4040,800,665,34.812,33.542,-0.0709,0.0393,9.874,0.1775,-0.2764,0.1422
4045,807,662,34.822,33.536,-0.0363,-0.0121,9.7832,0.0384,-0.4544,0.5901
4050,812,662,34.863,33.611,0.0498,0.0235,9.8,-0.3499,0.5492,0.7161
4054,819,653,34.77,33.611,-0.0005,0.0326,9.7682,0.3676,-0.0781,0.2939
4059,842,649,34.897,33.585,-0.0228,0.0619,9.7879,0.1897,-0.4093,-0.2081
4065,839,647,34.856,33.583,-0.0187,-0.0008,9.7737,-0.0559,-0.2802,0.456
4070,848,641,34.77,33.578,-0.0412,0.0158,9.7879,0.7004,-0.0908,-0.3343
4075,869,637,34.806,33.531,0.02,0.004,9.8436,0.1901,0.7283,-0.898
4080,880,634,34.882,33.585,0.0436,-0.0146,9.77,0.1802,0.3124,-0.382
4085,873,631,34.796,33.508,0.0111,-0.0284,9.7983,0.2202,0.1837,0.4254
4090,901,629,34.791,33.617,0.0855,0.0005,9.7341,0.6872,0.4175,0.1103
4094,907,627,34.794,33.633,0.04,0.0268,9.7889,-0.5048,-0.5052,-0.541
4100,914,629,34.81,33.579,0.052,0.0001,9.8633,-0.7407,-0.2808,-0.0401
4105,933,626,34.804,33.602,0.0226,0.0234,9.7613,-0.5948,0.0768,-0.0948
4110,943,629,34.795,33.596,-0.0458,0.0539,9.9013,-0.1338,-0.3885,0.8069
4115,960,629,34.906,33.498,0.0709,0.0851,9.8456,0.1823,0.7985,0.3778
4120,962,628,34.893,33.619,-0.0659,-0.0802,9.8149,-0.8741,0.1363,0.3281
4125,969,627,34.859,33.67,0.0085,-0.0427,9.8106,-0.3301,0.179,-0.2209
4130,989,634,34.822,33.571,0.0459,0.0583,9.8498,0.9197,0.3655,-0.9956
4135,1010,624,34.872,33.518,0.0473,0.0065,9.8736,0.5886,-0.6332,0.3386
4140,1007,631,34.917,33.635,-0.0155,-0.008,9.8156,-0.2877,0.3194,0.2189
4145,1022,633,34.765,33.639,0.021,0.0317,9.7242,0.4945,-1.2227,-1.1847
4150,1033,640,34.722,33.574,0.0698,-0.0622,9.7521,-0.5019,-0.0902,-0.0254
4155,1045,641,34.853,33.516,-0.0273,-0.0102,9.9087,-0.4554,-0.5848,0.5725
4160,1062,646,34.853,33.556,-0.0763,-0.0253,9.7974,-0.6869,-0.4798,0.4745
4165,1070,643,34.822,33.584,0.0138,0.0581,9.8433,-0.1241,0.7304,0.3891
4170,1073,649,34.895,33.541,0.0356,0.0132,9.8155,-0.4464,-0.38,0.228
4175,1091,655,34.78,33.669,0.0093,-0.0313,9.8211,-0.9994,0.9214,-0.4178
4180,1095,662,34.937,33.625,-0.107,-0.0396,9.8133,-0.0598,0.2215,1.1415
4185,1110,664,34.833,33.555,-0.0113,-0.0586,9.8575,-0.5756,-0.9917,0.4673
4190,1114,673,34.872,33.54,0.0098,0.0163,9.7603,-0.2596,-0.9014,0.2399
4195,1115,674,34.906,33.632,0.0724,0.1173,9.8137,-0.268,-0.1765,-0.6743
4200,1132,681,34.75,33.618,0.0388,0.0508,9.754,1.2705,0.0894,0.4416
4205,1144,692,34.871,33.573,-0.0363,0.0133,9.8301,-0.1601,-0.2245,-0.0737
4210,1141,696,34.921,33.536,-0.1443,-0.0958,9.8222,-0.3966,0.7337,-0.793
4215,1150,706,34.86,33.565,-0.0662,-0.0891,9.7838,-0.0007,-0.2767,0.4714
4220,1156,714,34.835,33.576,0.0447,-0.001,9.7014,0.5318,0.6058,0.1009
4225,1156,722,34.89,33.592,-0.0505,0.0497,9.8081,0.1597,0.714,0.0992
4230,1161,722,34.852,33.551,-0.0084,0.0394,9.8404,0.5982,0.4862,1.1976
4235,1175,734,34.855,33.637,-0.0191,-0.0206,9.7931,-0.0773,-0.3925,-0.0555
4240,1173,740,34.828,33.696,-0.0072,0.0569,9.852,0.0666,-0.5106,-0.2965
4245,1179,747,34.771,33.639,-0.0198,-0.0211,9.861,-0.8174,0.3346,0.2795
4250,1178,758,34.829,33.524,-0.1013,0.0107,9.8101,0.1593,0.1607,-0.073
4255,1176,761,34.815,33.672,0.0406,0.0045,9.8226,-0.707,-0.1229,-0.7322
4260,1177,775,34.867,33.637,-0.0176,-0.0304,9.8388,0.518,-0.1524,-0.4352
4265,1186,778,34.836,33.584,-0.0379,0.0215,9.8583,-0.39,0.1831,-0.2638
4270,1191,787,34.882,33.607,-0.0402,0.0065,9.767,0.0498,-0.0251,-0.2076
4275,1184,797,34.845,33.607,0.0081,-0.0294,9.834,-0.0307,0.2835,0.446
4280,1189,806,34.927,33.564,0.0666,0.0242,9.823,0.4977,0.0431,-0.0223
4285,1184,809,34.765,33.503,-0.0417,-0.0642,9.7837,0.3501,0.5107,-0.2043
4290,1188,815,34.877,33.593,-0.0568,-0.0324,9.8655,-0.1751,0.7354,-0.6669
4295,1187,825,34.8,33.715,-0.0683,0.0063,9.7937,0.8876,-0.345,-0.3004
4300,1181,839,34.857,33.721,0.007,-0.0878,9.7535,0.4405,0.1354,-0.6168
4305,1184,844,34.867,33.578,-0.0308,0.0331,9.8243,0.3182,0.0695,-0.5619
4310,1179,851,34.825,33.698,-0.0262,-0.0796,9.8307,-0.0414,-0.4015,0.1556
4315,1176,857,34.896,33.646,0.0599,0.0051,9.7744,-0.671,-0.0589,-0.4329
4320,1172,867,34.871,33.614,-0.0568,0.0878,9.8245,-0.4072,0.2215,-0.2157
4325,1178,865,34.904,33.699,-0.0289,0.0357,9.8209,0.0316,-0.443,-0.5103
4330,1172,876,34.889,33.6,-0.0774,-0.0812,9.7039,-0.0128,-0.1991,-0.1381
4335,1172,881,34.858,33.587,0.0375,-0.0506,9.8008,-0.2229,-0.3462,-0.6296
4340,1168,887,34.796,33.544,-0.0001,-0.0457,9.8354,0.2205,-0.0762,1.0379
4345,1161,887,34.829,33.601,0.0666,0.0271,9.7809,-0.0742,-0.7469,-0.304
4350,1167,894,34.934,33.611,-0.1298,0.0508,9.8445,-0.1343,0.328,-0.0554
4355,1158,899,34.861,33.654,-0.0195,0.0047,9.732,0.83,0.4518,0.6033
4360,1164,900,34.853,33.577,0.0007,-0.1327,9.8068,0.4582,0.2266,0.1436
4365,1157,906,34.867,33.64,-0.081,0.0096,9.8338,-0.3353,1.543,-0.6033
4370,1146,912,34.844,33.602,-0.0672,0.0573,9.7406,0.4707,-0.6066,-0.5196
4375,1147,912,34.853,33.561,-0.0383,0.0762,9.8113,-0.2238,0.1842,0.4748
4380,1150,918,34.796,33.608,0.0342,0.0698,9.7779,1.0927,-0.0319,-0.3524
4385,1139,921,34.804,33.679,0.0575,-0.069,9.7442,0.4386,-0.3322,-0.3273
4390,1133,923,34.787,33.573,0.0299,-0.0369,9.8331,0.3233,-0.6299,0.0482
4395,1135,922,34.821,33.513,0.0229,0.0363,9.7658,-0.0616,-0.1499,1.22
4400,1138,928,34.787,33.619,-0.0,-0.0247,9.8855,0.3583,-0.3607,-0.2039
4405,1132,918,34.776,33.531,0.0103,0.0234,9.938,-0.5035,0.5468,-1.0573
4410,1122,929,34.887,33.654,-0.0644,-0.0018,9.839,0.207,0.1012,-0.525
4415,1124,924,34.882,33.617,-0.0974,-0.0077,9.7618,-0.2472,0.8101,0.0887
4420,1123,928,34.866,33.596,-0.0262,0.1009,9.6914,-0.0203,0.264,-0.4135
4425,1108,933,34.859,33.592,0.0689,-0.0647,9.8264,0.3755,0.1001,0.5283
4430,1114,930,34.853,33.598,-0.0318,0.0146,9.8294,0.5077,0.1121,-1.1674
4435,1112,933,34.807,33.565,0.07,-0.007,9.7887,-0.6797,-0.2853,0.4267
4440,1111,930,34.831,33.594,-0.0306,0.0131,9.8051,0.4746,0.4397,-0.037
4445,1107,922,34.876,33.571,-0.0755,-0.078,9.8089,0.1157,-0.3626,-1.079
4450,1111,926,34.842,33.546,-0.0076,-0.0372,9.8465,0.2658,-0.304,0.3519
4455,1105,921,34.824,33.574,0.0159,0.0409,9.8475,-0.1092,0.6909,-0.1441
4460,1100,920,34.845,33.642,-0.0038,0.0403,9.782,0.0774,0.5144,0.2255
4465,1097,923,34.913,33.563,-0.0535,0.0087,9.841,0.1056,0.6832,1.1063
4470,1094,926,34.802,33.583,-0.0308,0.0924,9.801,0.0758,0.1448,-0.0953
4475,1097,917,34.918,33.557,0.0137,0.1218,9.7946,-0.2987,0.1055,0.3221
4480,1093,920,34.871,33.645,-0.0076,0.0136,9.901,0.8849,0.5348,0.7455
4485,1091,915,34.929,33.537,0.0643,0.0419,9.8269,0.704,-0.244,-0.3722
4490,1090,912,34.784,33.575,-0.08,0.0491,9.863,-0.2528,0.0801,-0.5563
4495,1084,910,34.913,33.593,-0.0349,-0.0698,9.8013,0.1151,0.4457,-0.2101
4500,1081,907,34.892,33.518,-0.0402,-0.0309,9.7805,0.4126,-0.2205,0.3165
4505,1077,911,34.857,33.566,-0.0739,0.0726,9.7963,-0.7851,0.017,0.9246
4510,1081,896,34.941,33.702,0.0508,-0.0129,9.8295,-0.145,0.7704,-0.1378
4515,1077,902,34.893,33.611,-0.0144,-0.1015,9.8432,-1.0275,0.0341,0.2158
4520,1082,898,34.888,33.59,0.0885,-0.0553,9.7065,-0.1921,0.0225,0.4544
4525,1067,898,34.818,33.617,-0.0979,-0.0151,9.7773,-0.0678,0.444,-0.0895
4530,1066,897,34.846,33.513,-0.0499,-0.0252,9.847,0.3684,0.5007,0.0685
4535,1067,896,34.901,33.582,-0.1138,0.0382,9.7954,0.3915,0.2508,0.9239
4540,1063,894,34.797,33.546,0.0438,0.0496,9.8209,-0.4807,0.0593,0.417
4545,1073,886,34.835,33.597,-0.041,-0.0174,9.8561,-0.5294,0.2113,-0.734
4550,1057,885,34.793,33.695,-0.0601,-0.0619,9.8021,-0.1042,-0.3166,-0.1608
4555,1059,886,34.939,33.617,-0.0289,0.0571,9.7436,-0.435,0.5304,0.0679
4560,1055,879,34.839,33.616,-0.087,0.016,9.7831,0.2412,-0.5153,-0.25
4565,1045,883,34.827,33.579,-0.1621,0.0129,9.7169,-0.7069,-0.1407,-0.3652
4570,1037,880,34.895,33.579,0.004,-0.0438,9.7813,-1.0838,-0.248,1.0155
4575,1038,885,34.813,33.661,0.0471,-0.001,9.8121,0.4535,0.6991,0.7952
4580,1038,875,34.874,33.575,0.0294,-0.0555,9.8126,0.0446,0.3524,-0.1623
4585,1028,876,34.897,33.58,-0.0179,-0.0321,9.8729,0.0612,-0.9636,-0.7014
4590,1015,870,34.893,33.534,-0.0127,-0.0498,9.7519,-0.3213,-0.0329,-0.0146
4595,1016,877,34.896,33.538,-0.0069,-0.0299,9.8833,-0.4842,-0.17,0.4436
4600,1011,870,34.886,33.513,0.0631,0.1384,9.9004,-0.3318,-0.204,-0.1666
4605,1007,865,34.948,33.585,0.0375,-0.0259,9.7306,-0.2296,0.3065,-0.0016
4610,993,866,34.847,33.611,-0.0338,-0.0279,9.7929,0.3536,-0.3333,-0.226
4615,989,871,34.942,33.692,-0.0232,0.0608,9.836,0.7477,-0.3134,0.6189
4620,986,866,34.788,33.609,-0.0204,-0.086,9.7347,-0.5222,0.4532,-0.6933
4625,980,864,34.901,33.697,0.0385,0.0308,9.7939,0.993,-0.7329,0.5366
4630,972,858,34.861,33.546,0.0551,0.0388,9.7682,-0.6191,0.3864,0.1123
4635,962,860,34.806,33.572,0.0673,-0.0831,9.7744,-0.3158,-0.7394,-0.7897
4640,953,862,34.813,33.602,-0.0167,0.0111,9.7403,0.0897,-0.0397,0.8186
4645,948,853,34.921,33.646,0.0072,0.0472,9.8577,-0.1823,0.669,-0.7178
4650,934,861,34.822,33.629,-0.0251,0.0175,9.8289,0.1223,-0.1942,-0.5952
4655,928,855,34.984,33.639,0.0186,-0.0445,9.752,0.1437,-0.0465,0.5775
4660,929,851,34.796,33.609,-0.0315,-0.027,9.7608,0.0361,0.0608,0.4231
4665,910,851,34.877,33.71,-0.091,-0.057,9.7621,0.4551,0.5553,-0.7527
4670,916,843,34.833,33.621,-0.0666,-0.118,9.7932,-0.4775,0.9866,-0.0264
4675,895,846,34.824,33.642,-0.0251,-0.0236,9.8386,-0.7698,0.1977,-0.0207
4680,889,846,34.825,33.514,-0.0199,0.0131,9.8929,0.8768,0.2264,0.6369
4685,871,836,34.837,33.716,-0.0537,-0.0471,9.8007,-0.4019,0.4674,0.1546
4690,874,839,34.836,33.615,-0.0495,0.038,9.7452,0.0723,-0.1708,-0.5726
4695,860,842,34.889,33.554,-0.0118,-0.0394,9.7605,-0.0509,-0.2242,0.592
4700,847,827,34.942,33.573,0.0049,0.0606,9.7981,0.4047,0.1148,-0.399
4705,846,838,34.949,33.614,0.026,0.0192,9.9174,0.331,0.9211,1.0776
4710,845,832,34.882,33.653,-0.0232,-0.0113,9.8324,0.6999,-0.3586,0.6433
4715,829,827,34.854,33.607,-0.0226,0.0494,9.7488,1.039,-0.0182,1.0179
4720,821,830,34.833,33.65,0.0089,-0.0519,9.7527,-0.2098,0.2975,0.5179
4725,813,820,34.876,33.666,-0.0626,0.1228,9.8237,0.3764,-0.0037,0.7806
4730,811,816,34.825,33.608,-0.0724,0.0304,9.8557,0.3876,-0.2926,0.5553
4735,804,809,35.003,33.605,-0.0198,0.0117,9.7834,0.8501,0.5126,0.2084
4740,792,810,34.827,33.521,0.0581,-0.0209,9.8381,0.4395,0.0239,0.5311
4745,781,805,34.86,33.65,0.0391,-0.0032,9.8078,-0.1899,-0.7722,0.7049
4750,778,800,34.872,33.561,0.0958,0.0678,9.8809,0.1852,-0.0751,-0.5924
4755,770,796,34.853,33.573,0.0173,0.0096,9.8965,-0.6756,-0.1168,-0.2205
4760,771,793,34.851,33.606,-0.0305,-0.0354,9.8174,-0.6443,0.4096,0.1463
4765,765,785,34.887,33.603,0.003,-0.0181,9.8757,-0.8033,0.7119,-0.6743
4770,762,775,34.819,33.65,-0.0059,0.0131,9.8667,0.327,0.085,0.3498
4775,768,774,34.855,33.673,-0.0353,-0.0867,9.8591,0.0412,-0.3936,0.34
4780,756,771,34.91,33.59,0.0634,-0.0521,9.8572,-0.6768,-0.0095,0.5341
4785,749,764,34.877,33.581,0.0643,0.0095,9.8424,0.4576,0.4258,-0.4411
4790,746,759,34.921,33.535,0.0775,0.027,9.8081,-0.4136,-0.0642,-0.2712
4795,753,758,34.902,33.621,-0.0505,-0.0817,9.7746,-0.6889,-0.5892,-0.0086
4800,748,745,34.889,33.575,-0.0307,0.0515,9.8447,-0.1496,-0.0164,-0.1116
4805,750,739,34.825,33.523,0.0123,0.0575,9.8374,-0.2393,-0.3409,0.2626
4810,739,735,34.912,33.555,0.0643,-0.0049,9.8115,0.631,0.6455,-0.8005
4815,744,735,34.891,33.633,0.0569,0.0479,9.8719,-0.1211,0.2347,-0.3819
4820,757,727,34.838,33.6,-0.0086,-0.067,9.7128,0.0766,-0.3741,0.5929
4825,756,719,34.771,33.621,-0.0115,0.0425,9.8487,0.6678,0.9203,0.3758
4830,760,718,34.834,33.609,-0.0587,-0.0656,9.8902,-0.8489,0.0726,-0.6349
4835,762,712,34.831,33.576,0.126,0.0344,9.773,0.0259,-0.5464,-0.6154
4840,759,706,34.833,33.547,-0.0225,0.0041,9.8488,0.1484,-0.3945,0.0994
4845,764,698,34.848,33.528,-0.0544,0.0294,9.8252,-0.4561,0.4963,0.3231
4850,774,690,34.856,33.609,-0.0188,0.0234,9.8446,-0.2639,-0.9345,-0.6139
4855,776,689,34.847,33.575,0.0461,0.0147,9.8286,-0.4375,-0.4763,-0.4329
4860,785,676,34.85,33.587,-0.0469,-0.0243,9.7487,0.3967,-0.0863,-0.0919
4865,789,676,34.885,33.537,-0.0211,-0.0114,9.7476,0.0983,-0.2029,0.4953
4870,795,664,34.896,33.538,-0.0035,-0.0383,9.8311,-0.6442,-0.4877,0.531
4875,799,661,34.876,33.584,0.0561,0.0163,9.8172,-0.0421,-0.3245,-0.0317
4880,823,666,34.703,33.58,-0.03,-0.0586,9.7256,-0.2637,0.0805,0.1648
4885,818,658,34.872,33.67,0.0607,-0.0693,9.7185,0.6228,0.1464,-0.6704
4890,832,649,34.876,33.601,0.0093,-0.0197,9.8877,-0.0464,0.1238,-0.7984
4895,839,648,34.888,33.491,-0.0154,0.0622,9.8433,0.7721,0.1522,-0.1217
4900,845,646,34.901,33.583,0.0508,-0.0735,9.8063,0.2203,-0.6648,0.5398
4905,863,643,34.852,33.68,-0.0275,-0.0021,9.7997,0.1676,0.2953,0.621
4910,878,640,34.853,33.579,-0.1055,0.0236,9.8028,0.049,0.3165,0.7019
4915,884,632,34.818,33.571,-0.0729,-0.0191,9.8177,0.418,-0.017,0.3729
4920,893,634,34.791,33.625,0.0091,-0.0609,9.767,-0.7826,0.8801,-0.356
4925,903,634,34.889,33.571,0.0106,-0.0728,9.7979,0.2234,-0.1307,-0.9697
4930,910,626,34.788,33.511,0.0128,0.0178,9.8555,0.1407,0.2884,-0.082
4935,929,630,34.863,33.508,-0.0845,0.0307,9.8142,1.8771,-0.3287,0.1717
4940,943,625,34.801,33.608,-0.1035,0.0235,9.8244,0.6177,0.5865,0.3475
4945,955,629,34.87,33.629,0.0585,0.0262,9.7728,-0.1994,0.1971,-0.0425
4950,957,625,34.857,33.658,0.1023,0.045,9.8204,-0.3066,0.2815,-0.0427
4955,975,632,34.818,33.57,0.0333,-0.0313,9.885,-0.1741,-0.417,0.5853
4960,990,630,34.873,33.557,-0.0069,-0.0007,9.8501,-0.4249,1.0855,-0.21
4965,992,627,34.901,33.593,-0.0247,-0.0846,9.9254,0.1068,-0.468,-0.3687
4970,1007,632,34.846,33.563,0.0439,0.0222,9.863,-0.6296,0.2948,-0.2883
4975,1023,636,34.863,33.563,-0.0417,-0.0182,9.8199,0.3443,0.154,-0.0262
4980,1032,637,34.865,33.6,-0.0158,-0.0683,9.8155,-0.2711,-0.1308,-0.6969
4985,1044,635,34.89,33.685,-0.0575,-0.0167,9.8487,-0.3382,-0.3646,0.1457
4990,1055,643,34.825,33.552,0.0179,-0.0021,9.8128,0.5977,-1.4503,0.2598
4995,1064,644,34.876,33.608,-0.0574,-0.0104,9.7532,0.3732,0.5303,-0.1631
5000,1074,648,34.809,33.602,0.0629,-0.0177,9.822,0.1618,-0.1599,-0.381
5005,1077,658,34.94,33.61,0.1511,-0.0124,9.8098,-0.5137,-0.0518,-0.0531
5010,1086,654,34.894,33.651,0.0093,0.0632,9.7602,-0.3468,0.2833,0.392
5015,1101,666,34.84,33.664,0.0011,-0.048,9.776,-0.2328,0.0917,1.2362
5020,1113,667,34.848,33.642,-0.0165,-0.0833,9.7589,0.4508,1.0913,0.0522
5025,1116,678,34.974,33.625,-0.0187,0.0327,9.8335,0.1541,0.0314,-0.5426
5030,1132,680,34.826,33.672,-0.0473,0.0064,9.8709,-0.4626,0.4831,0.6287
5035,1132,689,34.913,33.665,-0.084,0.0603,9.784,0.321,-0.36,0.5657
5040,1146,699,34.882,33.611,0.0031,0.0277,9.8448,0.5363,-0.6893,-0.6667
5045,1151,708,34.908,33.527,-0.0458,0.0669,9.7913,-0.4558,-0.3208,0.304
5050,1146,711,34.813,33.649,-0.0593,0.0429,9.8506,-0.2204,-0.5344,-0.7697
5055,1158,717,34.844,33.626,-0.0062,-0.0322,9.7522,-0.3699,-0.0295,-0.3284
5060,1155,728,34.87,33.572,0.03,0.0781,9.7681,0.1689,0.628,0.0964
5065,1167,736,34.752,33.531,-0.0965,0.003,9.8124,0.045,0.2304,0.0962
5070,1172,736,34.842,33.517,-0.0041,0.0186,9.8578,0.7304,-0.5094,-0.5202
5075,1168,752,34.868,33.586,-0.0552,0.048,9.7657,0.6098,-0.6382,0.061
5080,1179,754,34.908,33.617,0.0188,0.0705,9.7334,0.563,-0.6085,0.1824
5085,1180,765,34.903,33.666,0.0224,-0.0152,9.7929,-0.3832,-0.0092,-0.9652
5090,1178,773,34.841,33.656,-0.0618,-0.0687,9.7487,0.394,0.0089,-0.5631
5095,1195,776,34.943,33.595,-0.0148,0.0509,9.8289,0.2564,0.5669,0.1602
5100,1187,789,35.0,33.646,0.0748,-0.0729,9.8258,0.0166,-0.2155,-0.6974
5105,1184,793,34.883,33.611,0.0014,-0.0412,9.8613,0.4403,0.4919,0.1621
5110,1187,802,34.834,33.621,-0.0397,-0.0303,9.7833,0.4115,0.6103,-0.9063
5115,1191,810,34.945,33.556,-0.0658,0.011,9.8555,-0.6138,-0.3849,-0.1118
5120,1189,815,34.785,33.602,0.0997,0.0874,9.7744,0.988,-0.2501,0.4836
5125,1188,826,34.889,33.6,0.0679,-0.0875,9.8179,0.0589,-0.1836,0.3208
5130,1183,832,34.865,33.595,-0.0179,-0.1176,9.8347,0.2105,-0.8752,-0.1751
5135,1186,840,34.912,33.574,0.0403,-0.0089,9.8026,-0.1482,0.0997,0.3447
5140,1180,848,34.967,33.595,-0.0625,0.0803,9.8337,0.0077,-0.074,-1.089
5145,1184,858,34.884,33.488,0.0422,0.0311,9.8757,-0.4443,0.7767,-0.234
5150,1184,858,35.007,33.616,-0.0284,0.0711,9.8458,0.3438,0.1401,0.4898
5155,1182,870,34.847,33.585,-0.0019,0.0138,9.8027,-1.0187,1.6082,0.6358
5160,1181,872,34.847,33.635,0.014,0.0112,9.7908,0.2401,-1.0309,-0.2263
5165,1173,882,34.922,33.598,-0.0293,0.0012,9.876,0.678,0.2454,-0.4195
5170,1170,888,34.916,33.578,-0.0017,-0.0101,9.7911,-0.011,-0.6189,-0.4882
5175,1162,886,34.835,33.563,0.0067,0.0489,9.7619,-0.6036,-1.0567,-0.1102
5180,1167,896,34.886,33.652,0.035,-0.0231,9.7444,-0.7779,-0.1259,-0.6432
5185,1164,893,34.954,33.556,-0.0198,0.1188,9.7529,0.1199,-0.2804,-0.1108
5190,1155,905,34.911,33.644,-0.0135,-0.0044,9.8478,-0.6333,-0.0328,0.0198
5195,1157,904,34.791,33.555,-0.0484,0.0241,9.803,-0.6976,-0.9016,-0.4242
5200,1157,913,34.867,33.603,0.0601,-0.0059,9.7644,0.2122,-0.1431,0.643
5205,1147,913,34.86,33.617,-0.0268,0.0775,9.8678,-0.4856,-0.4741,-0.4489
5210,1140,917,34.725,33.674,-0.0403,0.0074,9.7395,-0.0034,-0.4903,0.1486
5215,1135,914,34.826,33.634,0.0408,-0.0474,9.8345,-0.5705,-0.9144,-0.728
5220,1141,917,34.898,33.67,0.053,0.0008,9.7841,0.2806,0.1212,-1.0263
5225,1131,920,34.897,33.634,-0.0025,0.0122,9.8596,0.4882,0.715,-0.0081
5230,1131,920,34.72,33.619,0.0137,-0.0042,9.892,0.1422,0.2882,0.4841
5235,1133,925,34.825,33.636,-0.0197,-0.0009,9.729,-0.1649,1.0324,0.1491
5240,1127,925,34.901,33.647,-0.041,-0.1163,9.787,0.2316,0.5612,0.3146
5245,1128,931,34.912,33.623,-0.0228,0.1158,9.8575,0.5119,-0.6169,0.2729
5250,1117,931,34.876,33.65,0.0299,0.1232,9.8526,-0.6721,0.161,0.0868
5255,1108,927,34.873,33.561,0.0312,0.0486,9.8707,0.0485,-0.8123,0.7062
5260,1116,933,34.885,33.521,0.0332,0.0395,9.7599,-0.3407,-0.3201,-0.0985
5265,1111,927,34.823,33.561,-0.0297,-0.0071,9.735,-0.4107,-0.1764,-0.4245
5270,1106,928,34.869,33.59,-0.0297,0.0196,9.8087,0.3684,-0.8406,0.1641
5275,1112,925,34.784,33.59,-0.0199,-0.0753,9.8097,-0.7163,0.5621,0.1872
5280,1113,924,34.921,33.683,-0.1389,0.0638,9.8088,0.389,-1.0473,0.1412
5285,1110,925,34.831,33.655,-0.0044,0.0464,9.88,0.1773,-0.0284,0.0094
5290,1108,921,34.815,33.672,-0.0326,0.0269,9.7923,0.2724,0.4508,-0.2869
5295,1096,920,34.781,33.684,-0.046,0.0905,9.7987,-0.8828,0.465,-0.4294
5300,1082,922,34.85,33.582,0.031,0.0714,9.8279,0.0321,0.5549,-0.395
5305,1104,918,34.806,33.646,0.0304,-0.0079,9.809,-0.4595,0.3293,-0.4628
5310,1086,914,34.855,33.662,0.0825,0.0393,9.8672,0.1058,-0.1595,0.2447
5315,1088,911,34.869,33.636,-0.0981,-0.0076,9.8189,-0.0351,-0.8774,0.2268
5320,1092,913,34.815,33.58,-0.0322,-0.0272,9.9104,0.3414,0.4181,-0.0679
5325,1087,908,34.939,33.618,0.0473,0.0284,9.8375,-0.319,-0.1445,0.3396
5330,1080,906,34.888,33.6,0.0261,-0.0755,9.828,-0.1394,0.1219,-0.3785
5335,1087,907,34.86,33.556,-0.0002,-0.0067,9.8109,-0.2083,0.4252,-0.2881
5340,1077,906,34.808,33.584,0.0693,0.0036,9.8954,-0.139,-0.6827,-0.0991
5345,1081,906,34.856,33.644,0.0739,-0.0015,9.8288,-0.188,0.0455,-0.5023
5350,1071,898,34.844,33.617,-0.025,0.0072,9.797,0.0467,-0.2244,-0.7292
5355,1068,899,34.829,33.621,0.0478,-0.0234,9.8572,0.7698,-0.0689,-0.4598
5360,1066,895,34.878,33.524,0.066,-0.0775,9.7676,-0.1448,-0.0249,-0.2426
5365,1071,898,34.822,33.613,-0.0355,-0.0282,9.8286,0.9722,-0.0137,0.7919
5370,1068,893,34.869,33.605,0.0067,-0.0174,9.7579,-0.7081,0.5397,0.6475
5375,1058,888,34.884,33.648,-0.017,-0.0065,9.9052,-0.1793,0.4735,-0.2475
5380,1048,886,34.758,33.651,-0.049,0.0342,9.8145,0.0799,0.8118,-0.9788
5385,1055,888,34.983,33.445,0.0204,0.0054,9.7652,-1.0286,0.0155,-0.5978
5390,1042,881,34.891,33.636,0.0068,0.0316,9.8394,0.6394,0.6429,0.0239
5395,1051,880,34.853,33.594,0.0152,-0.0078,9.7996,-0.0644,0.6511,-0.1795
5400,1047,874,34.82,33.506,-0.0581,0.1533,9.8913,-0.0469,-0.1621,-0.2546
5405,1039,882,34.771,33.602,0.0924,0.0204,9.8018,-0.1661,0.071,0.1316
5410,1027,877,34.801,33.642,-0.0318,-0.0476,9.8478,-0.2923,-1.1425,-0.5144
5415,1025,879,34.885,33.593,0.0396,-0.0005,9.8355,-0.35,-0.7603,-0.0183
5420,1022,877,34.805,33.579,0.0118,0.0195,9.7297,-0.4238,-0.5321,-0.4618
5425,1023,867,34.878,33.632,0.0632,0.0437,9.8254,-0.0725,-0.7494,0.0475
5430,1004,874,34.869,33.58,0.042,-0.0256,9.7713,-0.0362,-0.1721,0.2274
5435,1003,863,34.923,33.672,-0.0151,-0.022,9.7523,0.5753,-0.1257,0.4903
5440,1004,870,34.869,33.606,0.0172,0.0193,9.7927,-0.1834,-0.6199,0.4215
5445,990,864,34.863,33.549,-0.061,-0.0017,9.7473,-0.249,-0.6292,-0.0979
5450,986,861,34.813,33.643,-0.0247,0.0084,9.7501,0.1726,0.58,-0.3966
5455,986,856,34.856,33.62,-0.0177,-0.0336,9.7243,0.2026,0.3752,-0.3716
5460,966,856,34.819,33.574,-0.005,-0.0997,9.7373,-0.8066,-0.4358,-0.0119
5465,964,858,34.881,33.634,-0.0113,-0.0391,9.7249,-0.3988,0.7024,-0.3208
5470,955,853,34.817,33.634,0.0824,0.0133,9.805,-0.0786,0.6387,-0.1332
5475,947,863,34.822,33.581,0.0262,0.0111,9.7832,-0.3484,0.0579,0.6732
5480,939,857,34.843,33.661,0.0243,-0.0073,9.8191,-0.5277,0.9464,0.5413
5485,935,852,34.865,33.651,0.0687,-0.0243,9.8218,0.1034,0.3344,0.0737
5490,938,856,34.851,33.692,-0.0396,-0.0329,9.7696,0.0482,0.9475,-0.6556
5495,922,853,34.843,33.628,0.0073,0.1165,9.8609,-0.0203,-0.366,-0.1425
5500,913,849,34.838,33.73,0.0291,0.0048,9.7944,-0.2607,0.0655,-0.2783
5505,899,850,34.827,33.572,-0.0098,-0.0003,9.7841,-0.8804,-0.4369,-0.4558
5510,889,844,34.9,33.626,-0.0867,0.118,9.818,-0.0278,-0.3961,-0.2762
5515,889,842,34.896,33.65,0.019,-0.0586,9.8087,-0.3373,0.6722,-0.4694
5520,870,838,34.81,33.65,0.0684,0.0795,9.8585,0.287,-0.3475,0.1183
5525,862,842,34.848,33.618,-0.0004,0.044,9.7288,-0.574,-0.2185,0.626
5530,859,837,34.893,33.575,0.0422,0.0087,9.8457,-0.098,-0.3806,0.0855
5535,847,834,34.835,33.605,-0.085,0.1154,9.8137,-0.3238,-0.6705,0.3667
5540,838,826,34.923,33.684,0.0636,-0.062,9.839,0.2971,0.5451,-0.3664
5545,826,828,34.795,33.603,-0.0111,-0.046,9.7803,0.0468,-0.5243,-0.4497
5550,816,827,34.936,33.687,-0.0467,0.0477,9.8455,-0.3547,-0.4143,-1.0493
5555,815,818,34.828,33.614,0.0541,0.0032,9.8942,-0.7559,0.3535,0.5655
5560,801,820,34.909,33.637,-0.0134,0.013,9.8365,-0.181,0.1434,-0.2914
5565,801,813,34.847,33.657,-0.0273,-0.0483,9.8919,-0.2264,0.3719,-0.8196
5570,795,815,34.803,33.614,0.0073,0.0146,9.7982,0.4399,0.0636,-0.558
5575,789,805,34.894,33.605,0.0212,0.0181,9.8486,-0.4404,0.2138,0.3504
5580,786,799,34.869,33.525,0.0027,-0.0195,9.7761,0.5701,-0.2353,-0.0523
5585,782,798,34.867,33.583,-0.0795,0.0421,9.7347,-0.9333,0.4069,0.148
5590,765,789,34.954,33.622,0.0329,0.0036,9.8218,0.1536,0.0444,0.5328
5595,764,786,34.881,33.552,0.0382,0.039,9.7776,0.2359,0.4962,0.829
5600,757,784,34.946,33.627,0.1112,-0.0388,9.8308,-0.2131,0.4092,0.629
5605,761,774,34.873,33.566,0.0527,-0.0003,9.8119,-1.1617,-0.5104,-0.6852
5610,756,774,34.782,33.54,-0.0902,0.0455,9.8599,0.2138,0.0302,0.2919
5615,752,767,34.84,33.719,0.0194,0.0101,9.904,-0.0314,-0.2172,-0.3886
5620,755,762,34.942,33.627,0.0435,0.0036,9.7435,0.7686,-0.1368,0.0781
5625,741,755,34.937,33.658,0.0041,0.0022,9.8626,-0.3466,0.5746,-0.4372
5630,746,751,34.851,33.611,-0.0259,-0.0344,9.8045,-0.4128,-0.2145,0.1429
5635,744,740,34.823,33.656,0.0944,-0.0151,9.7238,-0.4339,0.3437,0.6393
5640,741,740,34.884,33.684,0.0344,0.0184,9.8686,0.9778,-0.5694,1.2273
5645,750,730,34.839,33.593,-0.0159,-0.099,9.7796,0.2984,0.1513,-0.3696
5650,756,727,34.92,33.552,-0.0071,-0.0119,9.9491,0.915,0.1021,0.4949
5655,749,719,34.814,33.69,-0.0542,0.0209,9.8344,0.0254,0.489,-0.0537
5660,752,713,34.811,33.676,0.0416,0.0359,9.7848,0.1668,0.0289,-0.3215
5665,761,708,34.778,33.504,0.0521,0.0338,9.8464,-0.348,-0.2661,0.4646
5670,764,703,34.866,33.587,0.08,-0.0268,9.8095,-0.1189,-0.2778,-0.0571
5675,770,698,34.826,33.639,-0.0253,0.012,9.8843,0.6257,-0.0001,0.6054
5680,774,693,34.868,33.66,-0.0113,0.03,9.7166,-0.4787,0.4253,-0.3873
5685,775,685,34.856,33.532,-0.0066,0.0932,9.7254,-0.1039,-0.7548,-0.2838
5690,782,686,34.914,33.668,0.0995,0.0158,9.8025,0.689,-0.489,0.5156
5695,791,676,34.849,33.618,-0.0432,-0.0421,9.7745,0.1804,-0.0256,-0.9608
5700,792,673,34.866,33.679,0.015,-0.0768,9.8699,-0.0516,-0.1008,1.2436
5705,812,666,34.965,33.674,-0.029,-0.0642,9.7794,0.1985,0.1296,-0.7168
5710,812,657,34.859,33.625,0.0165,0.0189,9.7881,0.04,0.508,-0.9285
5715,827,658,34.855,33.604,-0.0296,0.0039,9.9011,0.249,0.2714,-0.6457
5720,835,656,34.839,33.675,0.0146,-0.0066,9.7722,-0.1678,-0.0293,0.3247
5725,837,649,34.855,33.61,0.0703,0.0914,9.8775,-0.489,0.0355,-0.3439
5730,850,648,34.91,33.54,0.0001,0.0325,9.8433,-0.1432,-0.4122,-0.0344
5735,863,640,34.925,33.629,0.0256,-0.0023,9.8913,-0.8287,-0.0769,-0.0813
5740,873,638,34.819,33.621,0.1291,-0.0518,9.8842,0.2874,0.6352,-1.3657
5745,880,631,34.818,33.594,0.0083,-0.0018,9.7702,0.0448,0.3508,-0.238
5750,897,627,34.862,33.585,0.0053,0.0697,9.8012,0.8534,0.0646,-0.0411
5755,908,633,34.835,33.611,-0.0088,-0.0782,9.8142,0.3711,-0.1239,0.2215
5760,916,627,34.846,33.622,0.0709,0.1045,9.88,0.1225,-0.052,-0.5544
5765,928,631,34.812,33.672,0.0381,0.0706,9.8431,-0.3329,0.3418,0.02
5770,937,628,34.9,33.685,0.0771,0.0317,9.7805,-0.1666,-0.4336,0.1383
5775,953,629,34.913,33.618,0.0272,0.0324,9.8073,0.5443,0.5699,0.1796
5780,961,623,34.874,33.719,-0.0902,-0.0205,9.8176,-0.8712,0.506,-0.2169
5785,980,627,34.837,33.604,-0.0327,0.0498,9.7539,-0.1125,-0.5745,1.1289
5790,988,629,34.749,33.565,-0.0836,-0.0111,9.7804,0.2172,0.3121,0.5559
5795,998,630,34.992,33.545,-0.0057,0.0471,9.8388,0.6667,0.5106,-0.311
5800,1002,629,34.96,33.608,0.0184,-0.0209,9.8955,0.6816,0.3241,-0.3956
5805,1019,630,34.857,33.589,0.0356,-0.0608,9.8651,0.7173,-0.4371,-0.7519
5810,1033,635,34.933,33.589,0.0358,-0.0367,9.7125,-0.3902,0.4151,0.379
5815,1037,641,34.813,33.583,0.0475,0.0166,9.7731,0.027,0.1966,0.0929
5820,1056,637,34.838,33.637,-0.0588,0.02,9.7892,-0.5735,-0.3304,0.7691
5825,1056,650,34.843,33.576,-0.0709,-0.0951,9.8585,0.4101,-0.2613,1.038
5830,1066,651,34.831,33.54,0.0247,0.1268,9.8139,-0.6828,0.0885,-0.3168
5835,1083,651,34.824,33.601,-0.0176,-0.0535,9.8065,-0.3491,-1.0341,-0.2681
5840,1092,654,34.902,33.679,0.0502,-0.0333,9.7835,0.1659,0.1114,-0.1377
5845,1100,665,34.967,33.609,-0.0545,0.0043,9.7513,0.2831,0.0925,0.5335
5850,1106,668,34.943,33.672,0.0667,0.0195,9.7901,0.513,-0.4277,-0.1094
5855,1114,681,34.915,33.579,-0.0011,0.0028,9.7644,-0.1585,0.5813,-0.7322
5860,1129,685,34.934,33.57,-0.0598,0.0117,9.613,0.3326,0.2155,0.1662
5865,1134,685,34.895,33.656,-0.0486,-0.0495,9.8484,-1.3757,0.5017,-0.2348
5870,1150,690,34.875,33.573,-0.0106,0.0507,9.8196,-0.0034,0.2659,-0.5805
5875,1147,701,34.834,33.573,0.034,0.0729,9.851,0.2286,-0.4899,0.2914
5880,1152,705,34.764,33.582,0.0169,0.0437,9.7415,-0.2431,1.1073,0.597
5885,1162,717,34.871,33.56,-0.0031,-0.0003,9.8481,0.1683,-0.285,0.0793
5890,1162,724,34.812,33.52,0.0317,0.047,9.7425,-0.0238,0.1914,0.0647
5895,1176,732,34.874,33.657,0.0497,0.0916,9.7616,0.0883,-0.0333,0.1453
5900,1163,742,34.871,33.688,0.0524,0.1287,9.7419,0.0746,-0.5484,0.4814
5905,1182,745,34.818,33.7,-0.0574,0.0034,9.7318,-0.3969,0.4559,-0.5178
5910,1184,758,34.859,33.645,-0.0376,0.0584,9.7604,-0.819,0.3988,0.5241
5915,1177,762,34.886,33.596,-0.0364,0.0012,9.8531,0.4128,-0.7461,0.4814
5920,1191,774,34.882,33.605,-0.0083,0.0677,9.7726,0.2283,0.1005,-0.3079
5925,1187,773,34.911,33.626,-0.0537,-0.0716,9.7958,1.1077,0.2798,-0.0438
5930,1184,785,34.888,33.581,-0.0225,0.0859,9.8342,-0.4289,0.0449,-0.3737
5935,1193,785,34.954,33.528,-0.0519,0.0333,9.7532,0.7618,0.1303,0.4601
5940,1185,799,34.875,33.591,-0.0514,-0.0215,9.8969,0.0869,0.32,0.2769
5945,1196,809,34.896,33.592,0.0933,0.0344,9.8529,-0.3561,0.5313,-0.5333
5950,1186,814,34.84,33.634,-0.0953,0.0637,9.8787,-0.504,0.2033,-0.0952
5955,1186,830,34.853,33.539,0.0523,-0.0826,9.6883,-0.1479,0.3352,0.0342
5960,1181,830,34.827,33.726,-0.0059,0.0314,9.7809,0.6141,-0.1181,0.402
5965,1188,834,34.809,33.627,0.0449,0.0194,9.921,0.1364,-0.1569,-0.0264
5970,1182,844,34.893,33.544,-0.0357,0.0417,9.8191,0.186,-0.5026,0.6951
5975,1183,853,34.906,33.59,0.0082,0.0375,9.7038,0.033,1.1017,0.2219
5980,1177,859,34.815,33.501,-0.0791,-0.0325,9.7685,-0.0374,-0.4287,0.472
5985,1174,869,34.929,33.648,-0.0029,0.0787,9.8703,-0.215,0.4849,0.6013
5990,1174,876,34.888,33.662,0.032,0.03,9.9054,0.0065,0.36,-0.516
5995,1176,882,34.851,33.657,0.0083,0.0038,9.842,0.498,0.4379,1.1089
6000,1181,884,34.975,33.654,0.1078,0.0085,9.7606,0.5153,-0.2822,-0.2764
6005,1170,891,34.867,33.622,0.0492,0.0759,9.8468,0.4283,-0.5085,-0.1591
6010,1161,895,34.893,33.61,-0.0062,0.0475,9.804,0.4072,0.3969,-0.8646
6015,1170,898,34.887,33.599,-0.0202,0.0783,9.8767,-0.0495,-0.3108,0.7107
6020,1158,902,34.814,33.607,-0.0365,-0.0173,9.7078,-0.5603,0.054,-0.0339
6025,1158,907,34.81,33.602,0.0775,0.0113,9.7604,-0.1835,-0.6358,0.6913
6030,1154,911,34.869,33.678,0.0795,0.0566,9.7927,-0.2479,-1.015,0.0708
6035,1150,909,34.868,33.526,0.0025,0.0548,9.8431,1.3871,0.3534,-0.3214
6040,1140,916,34.873,33.649,-0.059,0.0076,9.8684,-0.1002,-0.066,-0.1669
6045,1134,912,34.864,33.617,0.0269,-0.0838,9.7639,-0.9603,0.165,-0.566
6050,1137,926,34.965,33.568,0.0022,0.0754,9.8414,-0.0224,0.2225,-0.171
6055,1131,923,34.94,33.643,-0.1167,0.0454,9.8543,-0.2396,-0.1288,0.1877
6060,1133,921,34.856,33.637,0.0425,0.0011,9.8653,-0.3136,0.3668,0.6361
6065,1128,928,34.891,33.57,-0.0188,0.0089,9.8992,0.7794,0.2492,0.3335
6070,1133,930,34.901,33.637,-0.0299,0.0907,9.9083,0.3798,-0.1526,0.478
6075,1135,929,34.94,33.658,-0.0533,-0.0307,9.779,-0.1021,0.7811,0.1314
6080,1128,924,34.97,33.586,-0.0006,0.0522,9.738,-0.294,-0.1448,-0.1723
6085,1117,928,34.792,33.593,0.0036,-0.0321,9.7996,0.4205,-0.3434,-0.1051
6090,1115,928,34.9,33.628,0.0388,-0.0647,9.8129,0.0721,0.0032,0.6652
6095,1120,924,34.825,33.714,0.0877,-0.0276,9.8807,-0.3022,-0.3236,0.211
6100,1118,929,34.873,33.6,0.0854,-0.0572,9.8238,-0.2516,-0.6113,-0.362
6105,1104,927,34.828,33.717,0.1151,0.0432,9.8254,-0.4942,0.3303,1.2043
6110,1099,923,34.855,33.524,-0.015,-0.0524,9.7765,-0.5628,0.1688,-0.8728
6115,1097,929,34.854,33.648,-0.0447,-0.0055,9.8011,-0.1885,-0.9016,0.3966
6120,1109,928,34.87,33.559,-0.0548,-0.0034,9.7517,0.1241,0.2257,0.9136
6125,1113,919,34.889,33.588,0.0412,-0.0026,9.868,-0.0551,-0.0503,-0.3101
6130,1096,921,34.873,33.61,-0.0692,-0.0522,9.8979,-0.0716,-1.1841,0.6608
6135,1095,924,34.906,33.614,0.0115,-0.0147,9.8435,0.643,0.4313,-0.5309
6140,1099,918,34.853,33.632,-0.0452,0.024,9.8432,-0.3028,-0.6343,-0.4222
6145,1089,918,34.932,33.651,0.053,0.037,9.8524,-0.5988,0.0299,-0.3642
6150,1083,914,34.937,33.551,0.0321,0.0841,9.9428,1.0988,0.3679,-0.3974
6155,1092,913,34.919,33.583,-0.0628,0.0826,9.7619,-0.0142,-0.074,0.2727
6160,1087,908,34.812,33.611,-0.0433,-0.058,9.883,0.3118,1.1929,-0.3723
6165,1075,905,34.882,33.605,0.0282,0.0367,9.8418,0.1303,-0.3642,0.3527
6170,1082,905,34.828,33.636,-0.0271,0.0159,9.7927,-0.492,-0.2443,0.1661
6175,1074,906,34.9,33.592,-0.0361,-0.0022,9.8088,-0.0944,-0.0164,-0.4943
6180,1078,899,34.933,33.688,-0.0159,0.0243,9.7474,-0.3953,0.097,0.493
6185,1068,895,34.87,33.584,-0.0033,0.0181,9.8156,0.6498,0.4765,-0.4806
6190,1072,898,34.85,33.508,-0.0293,-0.0524,9.8796,-0.1494,-0.2188,0.4596
6195,1062,899,34.905,33.673,0.0005,-0.042,9.7389,-0.109,-0.1542,0.1571
6200,1077,891,34.83,33.619,-0.0367,-0.0283,9.8279,0.231,1.4463,0.0426
6205,1057,892,34.86,33.649,0.0666,-0.0065,9.8234,0.4306,0.4849,-0.1398
6210,1058,885,34.86,33.604,-0.1175,0.005,9.8004,0.6066,-0.352,-0.367
6215,1055,884,34.843,33.659,0.0705,-0.0844,9.959,0.271,0.1156,0.2022
6220,1055,891,34.867,33.596,0.0418,0.0342,9.818,0.009,0.1923,-0.3626
6225,1050,876,34.822,33.648,0.0228,-0.0126,9.7617,-0.0738,0.5983,0.0765
6230,1043,879,34.799,33.631,-0.012,-0.0237,9.8081,0.3512,0.2965,0.891
6235,1046,883,34.826,33.575,0.0613,-0.1006,9.8089,0.011,-0.2027,0.8539
6240,1043,876,34.828,33.615,0.0631,0.0474,9.7217,-0.4822,-0.1827,0.5195
6245,1024,881,34.846,33.665,0.0182,-0.0124,9.7738,0.2028,0.7577,-0.7782
6250,1018,874,34.941,33.616,-0.0216,-0.0305,9.8286,0.1564,0.2718,-0.3106
6255,1027,870,34.855,33.513,-0.0564,-0.0236,9.7615,-0.1289,0.3141,0.6404
6260,1016,872,34.824,33.618,-0.0658,-0.0332,9.7964,-0.6219,-0.6859,0.2935
6265,1005,869,34.857,33.62,0.0654,-0.0111,9.8562,-0.3482,-0.5846,0.3739
6270,999,871,34.839,33.607,0.0131,0.1578,9.8023,-0.7094,-0.2602,0.1932
6275,1003,864,34.763,33.595,-0.0215,0.0057,9.7128,-0.5059,0.7072,0.2878
6280,977,867,34.877,33.539,0.0468,0.0947,9.8258,-0.0655,0.2969,-0.4874
6285,974,863,34.865,33.656,-0.0162,-0.0162,9.8097,0.3355,-0.1119,1.0414
6290,976,863,34.954,33.586,-0.0177,0.0313,9.729,-0.5261,-1.1108,-0.7338
6295,958,857,34.897,33.619,0.0638,-0.0396,9.8668,-0.4418,0.083,0.0947
6300,963,856,34.931,33.536,-0.0528,0.0182,9.7902,-1.2095,0.6169,0.1318
6305,953,855,34.879,33.664,0.125,-0.0775,9.8567,-0.0402,1.0398,0.2662
6310,951,855,34.897,33.71,-0.1452,0.024,9.8048,-0.403,-0.2448,0.1124
6315,940,857,34.867,33.666,-0.0321,-0.0096,9.8892,0.7171,0.3782,-0.1051
6320,930,852,34.852,33.678,-0.0221,0.0026,9.7698,-0.0214,0.4259,0.3017
6325,917,853,34.834,33.633,0.0343,0.0094,9.8485,-0.6638,0.5288,0.4857
6330,913,852,34.875,33.652,-0.0408,0.0388,9.806,0.4211,-0.5703,0.6822
6335,905,843,34.892,33.669,-0.0329,-0.0592,9.8299,-0.2443,-0.486,-0.1759
6340,899,844,34.937,33.61,0.0576,0.0032,9.7773,-0.4438,0.1162,0.7472
6345,884,842,34.883,33.638,0.0451,0.0579,9.8937,-0.0542,0.156,-0.0704
6350,879,841,34.855,33.601,0.0241,-0.0471,9.7583,-0.2716,-0.5876,-1.1088
6355,874,836,34.86,33.572,0.0763,-0.0087,9.8073,-0.4138,0.5037,-0.5415
6360,853,838,34.806,33.653,0.0121,-0.0228,9.87,0.3507,0.1867,-0.1821
6365,846,832,34.971,33.582,-0.0125,-0.0046,9.8072,0.0613,0.3778,-0.0246
6370,843,828,34.921,33.616,-0.0532,0.0041,9.8686,-0.3237,-0.5186,0.1581
6375,829,828,34.911,33.523,0.0569,0.0117,9.7433,0.6542,0.2634,0.4102
6380,818,825,34.95,33.566,-0.0721,-0.042,9.8361,0.1335,0.2385,-0.4781
6385,816,822,34.874,33.611,0.0022,-0.0246,9.7936,0.4658,0.1761,-0.0917
6390,819,819,34.953,33.569,0.0673,0.0077,9.7947,0.6593,0.5535,-0.2682
6395,801,817,34.883,33.67,0.0405,-0.0816,9.7798,-0.4247,0.313,-0.1564
6400,796,806,34.876,33.534,-0.0054,0.0409,9.7797,0.6651,-0.7734,0.9294
6405,797,808,34.881,33.609,0.0068,-0.0817,9.7769,-0.2856,-0.3463,-0.0945
6410,784,806,34.835,33.683,-0.0193,-0.0587,9.8019,0.3266,-0.1539,0.5691
6415,772,796,34.815,33.648,-0.0328,-0.0873,9.7783,1.361,-0.1579,0.0021
6420,780,794,34.897,33.671,0.0156,-0.0391,9.7823,-0.3704,0.3952,0.0301
6425,769,784,34.773,33.67,0.0496,-0.0335,9.8645,0.2322,0.0781,0.0578
6430,762,784,34.857,33.671,0.0383,-0.0703,9.8869,0.2624,0.1636,-0.2988
6435,754,776,34.929,33.635,0.0605,0.092,9.88,-1.1,0.2855,-0.5727
6440,755,775,34.884,33.665,0.0107,-0.0021,9.8539,-0.9146,-1.5029,-0.8099
6445,761,766,34.936,33.596,0.0097,-0.0448,9.7848,-0.214,0.0901,0.2869
6450,757,763,34.919,33.63,-0.0348,-0.0046,9.7538,0.1423,0.0425,-0.0458
6455,753,758,34.855,33.595,-0.086,0.0807,9.7862,-0.4787,-0.9831,-0.7629
6460,734,751,34.865,33.534,0.0564,0.0446,9.8342,0.1558,0.0083,0.4633
6465,742,739,35.003,33.653,0.0578,-0.0224,9.8357,0.4656,-0.3063,0.6179
6470,744,745,34.9,33.74,-0.08,0.0424,9.7711,-0.3137,-0.4808,0.7279
6475,747,735,34.849,33.631,-0.0265,0.0265,9.7622,0.0384,0.139,0.4656
6480,747,727,34.874,33.635,-0.0117,-0.0288,9.8275,-0.382,0.3728,-0.0092
6485,755,720,34.874,33.578,0.056,0.0556,9.7843,0.1101,-0.3847,0.4629
6490,757,717,34.871,33.626,-0.007,0.0012,9.8411,0.6778,-0.3493,-0.7525
6495,764,713,34.811,33.642,0.043,0.0152,9.9159,-0.4883,0.2022,-0.2665
6500,758,707,34.873,33.607,-0.066,-0.005,9.7727,-0.1371,-0.2049,-0.3715
6505,764,699,34.868,33.577,-0.0104,0.0028,9.7545,-0.4763,-0.1021,-0.2549
6510,769,687,34.917,33.627,0.0307,0.0644,9.8472,0.4823,0.165,-0.5788
6515,782,685,34.875,33.598,0.0263,0.062,9.7107,1.1024,0.3509,-0.2796
6520,785,677,34.899,33.585,0.005,0.0494,9.8831,-1.1425,-0.3749,-0.5083
6525,779,671,34.814,33.614,0.0289,0.0754,9.7653,-0.4625,-0.3944,-0.0099
6530,802,672,34.862,33.54,0.1276,0.0396,9.9346,0.1612,0.0767,-0.0234
6535,797,673,34.879,33.567,0.022,-0.0437,9.7294,0.1787,-0.1217,-0.0841
6540,817,660,34.916,33.574,-0.1214,0.0777,9.8327,-0.5052,-0.5186,0.4327
6545,820,657,34.963,33.636,-0.0239,0.1194,9.8058,-0.7974,-0.0501,0.4594
6550,824,653,34.776,33.614,-0.0508,-0.0446,9.8093,-0.6031,0.0208,-0.5692
6555,839,645,34.873,33.67,0.006,0.0245,9.7821,-0.1963,-0.1962,-0.6406
6560,854,647,34.783,33.612,0.0413,0.0641,9.7821,0.3045,-0.2748,-0.8038
6565,857,638,34.801,33.616,0.0224,0.0372,9.8381,-0.5155,0.082,-0.1897
6570,869,634,34.869,33.546,-0.0339,-0.0494,9.8409,-0.0446,-0.3329,-0.4408
6575,877,638,34.842,33.641,-0.0926,-0.0475,9.7865,0.3744,0.8858,0.3153
6580,897,626,34.923,33.732,-0.0799,0.0481,9.8222,-0.6759,-0.6225,-1.0389
6585,905,626,34.862,33.624,0.0381,0.0274,9.82,-0.0878,0.4421,-0.0571
6590,911,621,34.821,33.654,0.03,0.0224,9.8239,0.1955,0.576,-0.277
6595,929,629,34.812,33.597,-0.0138,-0.0049,9.9163,0.4985,0.6245,0.7841
6600,940,631,34.89,33.584,0.0757,0.0772,9.6807,-0.4967,-0.2492,-0.3966
6605,946,625,34.841,33.615,-0.0929,-0.0138,9.7615,-0.1522,-0.8863,0.6583
6610,963,627,34.875,33.628,0.1066,-0.0209,9.7854,0.1965,-0.097,0.398
6615,965,627,34.891,33.597,0.0172,-0.041,9.7505,-0.9471,0.9955,-0.1069
6620,973,630,34.835,33.554,0.09,-0.0028,9.8008,0.6015,0.2956,-0.0647
6625,987,630,34.907,33.625,-0.0285,0.0074,9.7313,-0.7927,1.0154,-0.3977
6630,1011,631,34.884,33.613,-0.0021,-0.0046,9.775,-0.4131,-0.4591,0.7491
6635,1020,629,34.914,33.588,-0.0775,0.0971,9.848,0.0664,0.0682,0.8824
6640,1035,632,34.924,33.638,-0.0718,0.0618,9.8777,0.4305,-0.5244,0.3244
6645,1034,636,34.855,33.66,-0.0211,0.0384,9.8514,-0.239,0.3096,-0.1255
6650,1043,646,34.867,33.492,0.015,-0.0405,9.8866,-0.2787,0.0038,0.1014
6655,1064,644,34.9,33.63,-0.0439,0.0145,9.7788,0.5519,-0.693,1.4631
6660,1080,651,34.83,33.58,-0.0461,-0.0158,9.8787,-0.1544,-0.0707,-0.3375
6665,1079,654,34.804,33.727,0.0255,-0.0057,9.784,-0.3534,-0.3304,-0.5327
6670,1097,661,34.891,33.602,0.0177,0.0522,9.7105,-1.0715,0.4427,-0.9264
6675,1095,664,34.854,33.57,0.0485,-0.0343,9.8436,0.2863,-0.2234,-0.1235
6680,1109,668,34.856,33.658,-0.0806,0.0709,9.7535,-0.2085,0.0892,-0.1866
6685,1117,673,34.89,33.641,0.0321,-0.0392,9.8324,1.0692,-0.2025,-0.1086
6690,1126,676,34.846,33.581,0.014,-0.0218,9.7799,0.2813,0.0695,-0.2409
6695,1123,684,34.827,33.517,0.0319,-0.0201,9.8385,0.1769,1.0573,0.386
6700,1147,687,34.882,33.544,-0.0051,0.0229,9.8423,0.2798,0.1557,-0.014
6705,1138,697,34.898,33.616,0.0742,-0.0091,9.7784,-0.4698,-0.6238,-0.1191
6710,1143,708,34.892,33.589,-0.104,0.0265,9.8216,-0.8204,-0.4648,-0.3258
6715,1141,716,34.961,33.622,-0.0112,0.0043,9.8075,0.3629,-0.4189,0.0372
6720,1161,721,34.821,33.667,-0.0109,-0.0248,9.7481,-0.8711,-0.6226,-0.853
6725,1168,721,34.813,33.731,-0.0105,0.0063,9.8491,-0.4056,-0.9885,-0.5847
6730,1164,736,34.898,33.693,0.0042,-0.0301,9.7589,0.2856,0.2459,0.2082
6735,1170,749,34.948,33.722,-0.0139,-0.061,9.8634,-0.2432,-0.2007,-0.0634
6740,1167,751,34.853,33.567,-0.0129,0.0703,9.8616,-0.3044,-0.1551,-0.1581
6745,1180,762,34.844,33.688,-0.0114,0.0453,9.7548,-0.2538,-0.1359,-0.7992
6750,1183,767,34.91,33.679,0.0945,-0.0124,9.86,-0.3957,0.3695,-0.1085
6755,1186,775,34.833,33.576,0.0841,-0.0228,9.766,-0.4479,-0.8094,-0.376
6760,1190,785,34.84,33.57,0.002,-0.1261,9.8541,-1.0793,0.0511,-0.459
6765,1189,794,34.867,33.56,-0.0281,0.0664,9.87,-0.4762,-0.3293,0.546
6770,1193,799,34.807,33.616,0.0865,0.0181,9.7924,0.4065,-0.0335,-0.2152
6775,1188,805,34.824,33.548,0.0663,0.0506,9.8117,1.0054,-1.1092,-0.5472
6780,1190,817,34.832,33.534,-0.007,-0.0394,9.8042,0.9819,0.303,-0.3418
6785,1182,821,34.884,33.658,-0.006,0.0256,9.7661,0.125,-0.1014,0.3396
6790,1193,827,34.856,33.58,-0.035,-0.0835,9.7995,-0.7838,0.0772,0.5895
6795,1182,838,34.888,33.626,0.0177,-0.0473,9.7803,0.1721,0.2019,0.1361
6800,1196,845,34.863,33.59,-0.0256,0.0032,9.7932,0.0906,-0.0147,0.5846
6805,1179,848,34.904,33.656,-0.0166,0.0019,9.7996,-0.9512,-0.7142,-0.2067
6810,1176,858,34.826,33.647,0.0235,-0.0073,9.8041,-0.1336,0.3068,0.5559
6815,1178,864,34.889,33.674,-0.0298,0.0153,9.8715,-0.0595,0.144,-0.8626
6820,1177,871,34.758,33.598,-0.0295,-0.0287,9.8217,-0.3584,0.2603,-0.0573
6825,1171,883,34.941,33.606,0.0008,0.0028,9.7152,0.5036,1.0526,-1.4761
6830,1170,884,34.868,33.58,-0.0495,0.0768,9.8163,-1.3223,-0.6552,-0.2217
6835,1171,892,34.953,33.696,0.1241,-0.0772,9.897,-0.0587,0.1273,0.6903
6840,1164,893,34.9,33.642,0.0958,0.0081,9.856,-0.5625,-0.2663,0.0807
6845,1158,895,34.841,33.584,-0.0074,0.0123,9.7333,-0.005,0.1906,-0.9708
6850,1168,901,34.862,33.661,-0.0276,-0.0353,9.7969,-0.4166,-0.5395,0.7506
6855,1154,908,34.934,33.665,-0.0172,0.0192,9.7899,0.1985,-0.2352,-0.4837
6860,1154,908,34.974,33.634,0.0588,-0.1166,9.8478,-0.3655,0.5096,0.2432
6865,1148,914,34.837,33.604,0.0227,0.0649,9.7985,0.082,-0.2966,0.0683
6870,1148,914,34.913,33.559,0.03,0.0062,9.8569,0.5027,-0.4542,-0.0076
6875,1148,921,34.806,33.643,0.0358,0.0521,9.7438,0.2182,0.3374,-0.1164
6880,1147,917,34.904,33.585,-0.0189,0.0411,9.927,0.333,-0.6356,0.0289
6885,1134,920,34.936,33.683,0.07,-0.0538,9.8422,-0.1426,-0.4177,0.6297
6890,1127,925,34.97,33.661,-0.1046,-0.0644,9.7548,0.1584,0.6164,-0.1245
6895,1131,935,34.885,33.566,-0.1021,0.0439,9.8497,-0.3255,0.024,-0.1484
6900,1128,925,34.907,33.607,-0.0133,0.0276,9.8331,1.0508,-0.4855,-0.2245
6905,1121,932,34.908,33.669,-0.0186,0.093,9.7296,-0.6896,0.3636,0.7524
6910,1116,928,34.901,33.634,-0.1078,0.0088,9.8352,0.1778,0.1642,0.3037
6915,1122,932,34.817,33.608,-0.0356,0.0856,9.7105,0.5538,-0.5577,0.0774
6920,1117,933,34.788,33.621,-0.0311,-0.0362,9.8014,-0.689,-0.1395,-1.194
6925,1111,928,34.95,33.639,-0.0229,-0.0589,9.7414,0.0578,0.4503,0.4166
6930,1110,931,34.887,33.586,0.0201,-0.0159,9.8157,0.299,-0.4567,0.5632
6935,1120,925,34.909,33.669,-0.0732,-0.0378,9.8972,-0.4569,0.086,0.3273
6940,1107,928,34.852,33.682,-0.0447,-0.0488,9.7792,-0.1046,0.0546,0.011
6945,1107,925,34.925,33.599,-0.0655,-0.0505,9.8694,0.2551,0.9254,0.0813
6950,1102,919,34.902,33.579,-0.0785,-0.101,9.783,0.2819,0.6424,0.8315
6955,1103,917,34.949,33.676,-0.039,0.0381,9.7747,0.458,-0.0171,0.2311
6960,1107,919,34.824,33.642,-0.0107,-0.032,9.8192,-0.049,0.133,0.1005
6965,1103,921,34.775,33.652,0.0383,-0.0198,9.7864,-0.0619,-0.0628,-0.0552
6970,1100,917,34.811,33.623,0.1103,0.0662,9.8288,-0.6761,0.4618,0.0757
6975,1089,917,34.908,33.65,-0.0113,0.0632,9.7514,-0.3182,0.3054,-0.2106
6980,1091,912,34.827,33.492,0.0466,0.0871,9.8987,-0.5528,0.4396,-0.3173
6985,1095,910,34.887,33.549,-0.0517,-0.007,9.874,-0.0267,-0.7281,-0.3893
6990,1086,906,34.942,33.63,0.0424,0.0087,9.8276,0.1711,1.1884,1.4787
6995,1086,914,34.821,33.601,-0.0153,-0.0626,9.8675,0.1463,0.5441,-0.58
7000,1079,907,34.919,33.642,-0.0007,0.0217,9.8081,-0.2336,0.2564,1.1058
7005,1075,904,34.901,33.647,-0.0043,-0.0075,9.8556,-0.4591,-0.0584,-0.5227
7010,1077,897,34.817,33.553,-0.0346,-0.0048,9.7384,1.0184,0.0568,0.2494
7015,1073,901,34.935,33.589,0.0024,0.0034,9.7557,-0.6406,-0.3438,-0.3211
7020,1070,896,34.911,33.554,-0.0043,0.0154,9.8458,-0.6042,0.269,-0.132
7025,1062,894,34.863,33.641,0.0099,-0.0489,9.8286,-0.3958,-0.3533,-0.0063
7030,1060,891,34.827,33.619,0.0097,-0.0018,9.7395,0.3428,0.509,-0.3366
7035,1057,885,34.888,33.56,-0.0057,0.0843,9.7562,-0.4107,0.6032,0.2428
7040,1060,883,34.892,33.622,0.0396,0.0218,9.8284,-0.1113,-0.2062,-0.0039
7045,1054,884,34.898,33.676,0.0085,-0.0717,9.8073,-0.3949,0.0093,-0.6015
7050,1053,888,34.871,33.578,-0.052,-0.0213,9.8626,-1.3433,0.2996,0.7993
7055,1049,880,34.854,33.65,-0.0306,-0.0129,9.743,-0.2529,-0.6185,0.108
7060,1049,886,34.872,33.585,-0.0286,-0.0058,9.8468,0.821,0.6648,-0.3737
7065,1051,885,34.884,33.538,0.0236,0.0622,9.8231,-0.9876,-0.1923,-0.6276
7070,1031,878,34.922,33.612,-0.0651,-0.0173,9.8343,-0.1347,-0.5004,-0.0795
7075,1025,879,34.859,33.667,0.0448,0.0752,9.7068,-0.044,-0.6565,0.7827
7080,1022,876,34.882,33.692,-0.0587,0.0042,9.7642,0.0628,0.5693,-0.1672
7085,1013,872,34.903,33.715,0.0363,0.0942,9.7662,-0.7646,-0.8758,0.3342
7090,1020,868,34.916,33.684,0.048,0.0207,9.7217,0.1727,1.126,0.3532
7095,1012,865,34.889,33.616,0.0382,0.0036,9.8192,1.3983,0.2213,-0.177
7100,996,868,34.891,33.67,0.0432,-0.0557,9.8142,-0.7967,0.3414,0.2662
7105,992,863,34.968,33.655,-0.0284,-0.0562,9.731,-1.2416,0.0487,0.7555
7110,987,868,34.844,33.681,0.0167,-0.1376,9.8475,0.5397,-1.0618,-1.0791
7115,983,862,34.811,33.611,-0.0659,0.0226,9.9186,-0.9007,-0.0739,0.7666
7120,973,863,34.935,33.543,0.0711,-0.0234,9.7821,-0.3054,0.8913,0.0347
7125,962,861,34.899,33.653,0.0312,-0.0229,9.779,-0.0942,-0.2766,0.904
7130,955,856,34.856,33.686,0.0546,0.0991,9.8102,0.2177,-0.078,-0.0327
7135,950,860,34.842,33.587,-0.0871,0.0152,9.8113,-0.2327,1.2363,0.1226
7140,946,850,34.941,33.584,-0.0377,0.0284,9.8464,0.081,-0.2179,-0.5282
7145,941,857,34.815,33.623,0.0621,0.063,9.8222,0.5102,-0.6825,0.2781
7150,924,855,34.806,33.627,-0.0203,0.0195,9.8443,0.6055,0.557,-0.6176
7155,921,852,34.942,33.644,-0.0252,0.0918,9.8145,-0.4372,0.5676,0.6653
7160,920,853,34.874,33.608,0.0842,0.0545,9.8129,0.1886,0.0585,0.0007
7165,893,848,34.869,33.713,-0.0416,0.0275,9.791,-0.0851,0.1803,0.2258
7170,893,843,34.884,33.659,0.0372,-0.0207,9.8181,-0.8645,0.6171,-0.0686
7175,888,846,34.842,33.624,0.0865,0.031,9.7822,0.4538,0.5651,0.2629
7180,878,845,34.878,33.692,0.0543,-0.0133,9.7408,0.8903,-0.0974,-1.0792
7185,870,838,34.864,33.607,0.0557,0.0085,9.8115,0.2186,-0.1383,0.1635
7190,862,837,34.819,33.663,-0.01,-0.0615,9.7775,-0.699,0.5214,0.2271
7195,853,834,34.938,33.587,0.0066,0.021,9.7617,-0.1751,0.884,0.8491
7200,841,832,34.87,33.55,0.0661,0.1041,9.885,-0.0676,0.6552,-0.221
7205,836,827,34.976,33.714,0.0465,0.0106,9.7845,0.6124,-0.2119,0.3642
7210,830,825,34.946,33.555,-0.0701,-0.0377,9.8893,0.7701,0.7594,0.2581
7215,819,821,34.838,33.602,-0.0274,-0.0706,9.802,0.5976,0.3317,0.8748
7220,820,818,34.881,33.669,-0.023,0.0292,9.8302,-0.3625,-0.7074,-0.9014
7225,799,818,34.85,33.53,-0.0059,-0.0564,9.738,0.2135,-0.203,0.2466
7230,793,808,34.94,33.61,0.1168,-0.0038,9.8694,-0.1261,-0.1214,0.1059
7235,795,811,34.855,33.628,-0.052,0.0993,9.7194,-0.2587,0.3813,0.1353
7240,784,800,34.793,33.574,0.0534,0.0231,9.7777,0.2291,-0.686,-0.0309
7245,780,802,34.924,33.625,-0.1039,-0.0144,9.7861,0.892,-0.1606,-0.3006
7250,761,794,34.863,33.548,-0.0085,0.0244,9.779,-0.5515,0.2953,1.1429
7255,770,793,34.878,33.608,-0.0202,0.0566,9.7812,-0.9624,0.4355,0.4271
7260,761,787,34.934,33.642,0.0662,-0.023,9.8386,0.4375,0.4354,0.5459
7265,760,780,34.89,33.638,0.0157,-0.0334,9.8849,0.2251,0.2499,0.6309
7270,751,774,34.891,33.648,-0.0417,-0.0423,9.8387,-0.0566,-0.5907,-0.1353
7275,752,774,34.889,33.638,-0.0862,-0.0037,9.754,0.7895,-0.1676,0.0515
7280,763,764,34.892,33.663,0.0135,0.0098,9.805,0.9572,-0.6363,-0.4442
7285,764,758,34.826,33.665,0.0141,-0.0239,9.8485,-0.722,-0.4211,0.0195
7290,750,750,34.779,33.645,0.0263,-0.0579,9.8046,-0.7908,0.1354,-0.5401
7295,740,746,34.912,33.601,0.0016,-0.0256,9.7526,-0.3295,-0.2046,0.0341
7300,741,739,34.892,33.635,-0.0253,0.0069,9.8738,0.0207,-0.8171,0.1464
7305,751,734,34.905,33.688,0.0553,0.0745,9.8244,0.4014,-0.148,-0.204
7310,753,727,34.831,33.542,-0.0023,0.0588,9.7853,-0.1411,0.082,0.0877
7315,749,720,34.806,33.691,-0.0231,-0.0734,9.7428,0.0873,0.0995,-0.4057
7320,752,722,34.973,33.638,-0.0313,-0.0214,9.8241,-1.2981,-0.0949,-0.4449
7325,750,710,34.851,33.598,-0.1295,0.0199,9.8104,0.62,-0.8409,0.1612
7330,750,699,34.793,33.618,-0.0003,0.0242,9.7827,0.266,-0.1314,0.06
7335,772,696,34.972,33.552,-0.0772,-0.0642,9.7581,-0.2236,0.4525,-0.3555
7340,772,695,34.891,33.696,-0.0017,-0.0242,9.8239,-0.4131,0.1039,-0.2279
7345,772,689,34.928,33.697,0.0446,0.0837,9.7069,0.7345,0.1486,0.2585
7350,786,681,34.894,33.581,-0.0295,0.0402,9.8814,0.6193,0.5191,-0.2921
7355,785,674,34.921,33.678,0.068,0.0382,9.8423,-0.1376,-0.2577,0.644
7360,794,672,34.882,33.616,0.0502,0.0136,9.8074,0.3315,-0.0576,-0.4062
7365,816,665,34.858,33.629,0.0128,0.0759,9.7703,-0.5985,-0.2874,0.2962
7370,815,660,34.94,33.585,0.0722,0.0609,9.8368,-0.5001,0.0623,-0.1685
7375,821,658,34.785,33.681,-0.001,0.007,9.8452,-0.2192,-0.0242,0.1983
7380,835,654,34.908,33.636,-0.0214,0.0144,9.7981,0.3492,0.0851,0.7551
7385,831,649,34.867,33.646,0.005,-0.028,9.887,-0.2687,-0.3357,-0.2472
7390,841,646,34.812,33.628,0.0227,0.0137,9.8644,0.1165,0.4632,-0.7024
7395,857,638,34.816,33.692,0.0767,0.0041,9.8001,0.2561,0.6364,0.1195
7400,874,638,34.854,33.586,-0.008,0.1346,9.7878,0.128,0.2628,0.3713
7405,877,637,34.83,33.638,0.0026,0.0239,9.7614,0.6147,0.3357,-0.1838
7410,881,628,34.853,33.672,-0.0129,0.06,9.7899,-0.9026,0.1122,-0.1702
7415,911,630,34.817,33.761,0.0239,0.0166,9.8463,-0.7592,-0.201,-0.538
7420,916,629,34.919,33.733,0.0334,0.0308,9.7719,-0.2679,0.1872,-0.2193
7425,919,632,34.901,33.657,0.0361,0.0215,9.8782,-0.1564,0.1467,0.0781
7430,937,631,34.848,33.628,-0.0403,0.0094,9.7874,-1.1538,0.3565,0.0194
7435,943,625,34.834,33.764,0.0003,0.0274,9.812,-0.7631,0.7277,0.2533
7440,952,633,34.938,33.614,0.0364,0.0214,9.8126,0.194,-0.1635,0.2798
7445,970,627,34.857,33.66,0.0606,-0.0514,9.8528,-0.2779,0.1329,-0.2006
7450,976,627,34.887,33.615,0.0362,-0.0699,9.8046,-0.3276,0.0743,-0.7086
7455,988,629,34.809,33.632,0.024,0.1333,9.6983,0.3524,0.1772,0.3558
7460,986,631,34.836,33.645,-0.0268,-0.0336,9.7468,0.1429,-0.4117,0.2276
7465,1017,627,34.901,33.67,0.0744,-0.0747,9.903,-0.2693,-0.1262,0.3938
7470,1022,634,34.872,33.724,-0.065,0.0129,9.8396,-0.4439,0.505,-0.5155
7475,1047,636,34.861,33.71,0.0638,-0.0485,9.7772,0.4969,0.0089,-0.5124
7480,1047,644,34.78,33.59,0.1044,-0.0059,9.7957,0.3071,0.5468,0.1083
7485,1054,641,34.88,33.656,0.0161,0.0209,9.8835,0.0187,0.6074,0.5011
7490,1069,648,34.898,33.599,0.0174,-0.0528,9.8551,-0.1533,0.1635,-0.351
7495,1086,656,34.934,33.509,-0.0032,0.0172,9.7628,0.0671,1.424,1.7279
7500,1084,654,34.967,33.616,-0.1054,-0.0014,9.7669,0.0269,-0.7456,0.3022
7505,1095,664,34.868,33.602,-0.0056,-0.0338,9.8273,-0.1894,-0.3525,-0.7646
7510,1108,664,34.913,33.536,0.045,0.0946,9.7745,-0.1583,-0.9441,0.3042
7515,1116,667,34.934,33.613,0.0375,0.0164,9.8438,0.1473,0.2916,-0.2183
7520,1130,676,34.858,33.643,-0.068,-0.001,9.8668,0.2601,-0.1647,-0.1625
7525,1135,683,34.903,33.722,0.0128,-0.0138,9.91,-0.6611,-0.6601,0.4709
7530,1140,694,34.899,33.603,0.0487,0.0301,9.7987,-0.3406,-0.2117,0.7193
7535,1141,693,34.86,33.641,-0.023,-0.0016,9.7942,-0.718,0.317,0.4675
7540,1150,706,34.868,33.565,-0.0689,-0.037,9.7419,0.4659,-0.5674,-0.5383
7545,1156,714,34.828,33.63,-0.0205,0.0779,9.8615,-0.5853,0.9112,-0.7316
7550,1161,719,34.822,33.608,0.062,-0.0677,9.7818,0.753,-0.4156,-0.1511
7555,1171,731,34.928,33.596,-0.011,0.0697,9.7086,0.085,-0.1645,0.0884
7560,1169,735,34.927,33.654,-0.054,-0.0103,9.8307,-0.7266,-0.0592,0.2951
7565,1169,741,34.861,33.627,-0.0115,0.0859,9.8078,0.0018,0.157,0.6517
7570,1176,751,34.833,33.673,-0.0666,0.0336,9.8076,-0.597,0.1602,-0.0059
7575,1178,757,34.819,33.621,-0.0656,-0.0662,9.7696,-0.0931,-0.1432,1.5145
7580,1181,766,34.937,33.626,-0.1379,0.0219,9.7615,-0.1667,0.0046,-0.7009
7585,1182,778,34.862,33.653,-0.0487,0.0301,9.8571,0.2565,0.37,0.5427
7590,1185,786,34.835,33.637,0.0355,0.1163,9.7958,0.2324,-0.409,-0.538
7595,1195,795,34.858,33.627,0.0565,-0.0174,9.7812,0.0627,0.7346,0.3709
7600,1186,794,34.932,33.559,-0.0574,-0.0116,9.7549,-0.4423,-0.6988,-0.5805
7605,1194,807,35.001,33.668,0.0661,-0.0468,9.7418,0.4423,-0.1516,-0.3754
7610,1188,815,34.831,33.609,-0.0135,-0.0143,9.8629,0.0873,0.5742,0.1669
7615,1184,823,34.896,33.604,0.0289,0.0093,9.8141,0.4333,-0.2279,-0.1803
7620,1185,834,34.852,33.644,-0.038,-0.0106,9.6979,0.057,0.1009,-0.8029
7625,1195,835,34.89,33.603,-0.0507,-0.0227,9.7399,0.1624,-0.3914,-0.019
7630,1185,842,34.866,33.682,-0.0288,-0.0148,9.872,-0.8175,0.1239,0.0612
7635,1184,847,34.942,33.697,0.0333,0.0227,9.7487,-1.2917,0.2151,-0.5982
7640,1178,860,34.798,33.61,-0.0263,-0.02,9.8462,0.6161,0.6033,-0.5569
7645,1175,865,34.89,33.586,-0.0285,-0.0933,9.8251,0.0894,0.5965,-0.0506
7650,1168,874,34.922,33.705,-0.0205,0.0435,9.7875,-0.1419,0.2906,-0.4757
7655,1177,871,34.869,33.553,0.0089,-0.0183,9.9386,0.5826,-0.0925,-0.101
7660,1172,883,34.954,33.617,-0.1126,-0.0078,9.8142,0.0164,1.0792,0.3401
7665,1165,886,34.931,33.606,0.0217,-0.0416,9.7747,0.3971,0.9231,0.21
7670,1159,894,34.991,33.65,0.0356,0.0465,9.8586,0.3545,0.2343,-0.2223
7675,1159,900,34.848,33.553,0.0373,-0.0577,9.7985,-0.8405,-0.6769,-0.3708
7680,1155,902,34.823,33.626,-0.0131,-0.0809,9.769,-0.7509,0.5055,0.1192
7685,1156,897,34.851,33.638,-0.0012,0.1232,9.8246,0.8794,-0.1506,0.3742
7690,1157,912,34.921,33.546,0.0292,0.0337,9.86,0.1133,-0.7673,0.6299
7695,1151,909,34.916,33.636,-0.0211,-0.0292,9.787,0.0013,-0.0568,0.6347
7700,1150,918,34.843,33.628,0.0291,-0.0292,9.8353,0.2394,-0.2581,0.3035
7705,1141,921,34.825,33.572,0.0158,0.0323,9.8345,-0.1519,0.0706,0.6058
7710,1135,915,34.86,33.597,0.088,0.0981,9.8098,0.1453,0.6567,-0.0791
7715,1138,925,34.775,33.673,0.0166,-0.0152,9.7685,-0.5534,0.1503,0.453
7720,1127,921,34.921,33.536,-0.0603,-0.072,9.7995,0.4756,-0.1009,0.0429
7725,1136,926,34.855,33.699,-0.01,-0.0726,9.8103,0.3407,-0.0117,0.0765
7730,1127,929,34.807,33.635,0.0281,0.0013,9.8507,-0.0583,0.0463,1.1617
7735,1124,926,34.877,33.579,0.0452,-0.0026,9.8255,-0.1583,0.2126,0.7134
7740,1121,930,34.898,33.562,-0.0399,0.0031,9.8636,0.064,-0.4287,-0.0442
7745,1124,925,34.821,33.573,-0.0574,-0.0396,9.702,0.0074,0.955,0.9632
7750,1120,931,34.943,33.62,-0.0879,0.0378,9.8026,-0.5224,0.6951,0.4921
7755,1115,927,34.889,33.705,0.0216,0.0535,9.8074,0.069,0.5173,0.7491
7760,1113,931,34.828,33.592,-0.0012,0.0487,9.8618,-0.3836,-0.7357,-0.2204
7765,1098,926,34.932,33.621,-0.0134,-0.068,9.8031,0.3013,-0.0184,0.2581
7770,1100,922,34.888,33.624,0.0515,0.0799,9.7823,-0.4128,-0.1511,0.0589
7775,1108,925,34.867,33.646,-0.1324,0.0315,9.798,-0.5062,-0.1634,0.2098
7780,1100,923,34.919,33.723,-0.0153,-0.09,9.9079,-0.4769,-0.5478,0.0409
7785,1091,926,34.869,33.547,-0.0643,0.0083,9.7732,-0.3117,-0.1388,0.5669
7790,1095,921,34.951,33.727,-0.1231,0.0855,9.7894,-1.1147,-0.6137,-0.7678
7795,1098,920,34.817,33.662,0.0017,-0.0433,9.8273,-0.1534,-1.0098,0.3545
7800,1096,917,34.8,33.672,-0.0379,0.0092,9.7715,-0.476,0.4751,-0.4334
7805,1094,916,34.929,33.65,0.042,0.0017,9.9023,1.049,0.8533,0.6092
7810,1091,916,34.809,33.546,0.0534,-0.0607,9.8298,-0.0329,0.6136,0.5541
7815,1082,917,34.978,33.691,0.055,0.0621,9.8164,0.2277,-0.2096,1.0531
7820,1078,907,34.904,33.524,0.0298,-0.0723,9.7751,0.2051,0.1712,0.2956
7825,1084,910,34.849,33.595,0.0526,-0.1153,9.7621,0.5402,0.1123,0.9224
7830,1082,899,34.878,33.606,-0.0909,0.0184,9.8864,0.3945,0.3299,0.5941
7835,1072,901,34.811,33.645,0.0422,0.0204,9.8046,-0.7011,-0.2313,-0.6937
7840,1076,902,34.852,33.588,-0.0243,-0.0039,9.7478,0.2247,-0.7633,-0.2365
7845,1080,895,34.923,33.643,0.0409,-0.0379,9.7233,0.4573,0.2416,-0.8066
7850,1077,898,34.855,33.73,0.0645,-0.0342,9.8385,0.2863,-0.0017,0.6604
7855,1076,892,34.841,33.593,0.0072,-0.0174,9.8399,0.3074,-0.0805,-0.1663
7860,1068,901,34.878,33.61,-0.0544,-0.0171,9.7279,-0.6611,0.1536,-0.3906
7865,1061,888,34.95,33.598,0.0479,-0.0157,9.8648,0.0559,-0.226,0.0122
7870,1065,888,34.92,33.656,-0.0163,-0.015,9.7565,0.1443,0.3623,1.1671
7875,1047,879,34.942,33.706,0.0364,-0.0452,9.8768,0.0505,-0.1093,-0.1971
7880,1052,887,34.784,33.62,0.0011,0.0259,9.7048,-0.4357,-0.6913,-0.2497
7885,1052,885,34.894,33.739,0.0237,0.1109,9.7965,-0.1257,0.1202,0.8975
7890,1043,873,34.941,33.61,-0.0357,0.0085,9.8138,-0.0594,-0.8126,0.6716
7895,1045,880,34.857,33.698,-0.0163,0.065,9.8203,-0.6019,-0.6843,-0.0751
7900,1037,880,34.867,33.673,0.0647,0.0339,9.8207,0.6559,-0.1768,0.1279
7905,1028,875,34.85,33.573,0.0874,-0.0033,9.8617,0.6185,-0.3232,-0.2108
7910,1031,872,34.844,33.578,0.0205,0.0161,9.7546,0.2721,-0.6527,-0.568
7915,1021,876,34.88,33.652,-0.0041,-0.0764,9.8269,-0.6301,0.3345,0.1012
7920,1010,879,34.847,33.616,0.0073,0.0262,9.8223,-0.037,0.6652,0.1649
7925,1013,868,34.978,33.628,-0.0572,-0.0325,9.8524,0.0569,0.7476,-0.4373
7930,1005,871,35.009,33.611,-0.0488,0.0058,9.8294,0.0186,0.5503,0.119
7935,1001,869,34.896,33.557,0.0799,-0.0878,9.7652,-0.6405,0.7433,-0.1427
7940,980,868,34.778,33.695,0.014,0.0024,9.77,-0.1513,0.3475,-0.5114
7945,984,860,34.929,33.582,-0.0069,0.0745,9.8561,-0.3182,0.0331,-0.065
7950,977,856,34.949,33.536,0.0075,0.0336,9.7502,-0.2167,0.8054,-0.146
7955,968,859,34.843,33.632,0.0051,0.0012,9.8505,0.4001,-0.1543,0.1714
7960,964,858,34.943,33.661,0.0314,0.0109,9.7049,0.8331,-0.7801,0.4912
7965,956,861,34.94,33.54,0.0551,0.0744,9.9241,-0.233,-0.4728,-0.6262
7970,945,854,34.884,33.612,0.0031,0.0808,9.8994,0.4658,-0.0944,0.1406
7975,930,860,34.958,33.539,0.0249,-0.0578,9.8252,0.0315,0.2496,0.0215
7980,932,856,34.861,33.515,0.019,0.0169,9.8931,-0.4452,0.709,-1.1638
7985,916,849,34.916,33.643,0.1222,-0.0365,9.8946,-0.5304,-0.6133,-0.0428
7990,918,847,34.882,33.611,0.0007,-0.016,9.7581,-0.3175,0.3371,0.257
7995,904,851,34.952,33.592,0.0889,-0.0124,9.8635,0.3356,-0.5263,-0.336
8000,891,847,34.875,33.628,-0.0495,-0.0353,9.7566,-0.3311,0.7725,0.1392
8005,885,844,34.82,33.657,0.0284,-0.022,9.7655,-0.2134,-0.7994,-0.2357
8010,886,840,34.847,33.653,-0.0195,-0.0181,9.7715,0.1025,-0.4465,-0.198
8015,876,845,34.948,33.604,0.0718,0.0172,9.8466,-0.8385,-0.4611,0.4606
8020,860,834,34.893,33.644,0.0771,0.0045,9.9601,1.0488,-0.1172,0.2981
8025,855,834,34.87,33.663,-0.0124,-0.0182,9.7153,-0.8517,-0.8756,0.3526
8029,848,833,34.887,33.678,-0.0538,-0.0136,9.8604,0.6951,-0.7414,0.5878
8035,835,832,34.916,33.633,-0.0512,0.0459,9.8983,-0.7365,-0.5904,-0.3333
8039,821,828,34.868,33.635,0.0059,0.0602,9.8302,0.0158,-0.4179,-0.3378
8045,818,823,34.924,33.674,-0.0198,-0.0535,9.8578,0.1602,0.1862,0.0771
8050,810,819,34.871,33.666,0.0046,0.0473,9.834,0.0395,-0.1837,-0.1677
8055,802,815,34.878,33.697,0.0138,0.0186,9.7927,-0.6281,-0.5715,-0.0923
8060,798,813,34.887,33.632,-0.0448,-0.0418,9.8625,-0.4391,-0.0598,1.1639
8064,797,809,34.887,33.691,0.04,-0.0071,9.8404,-0.0656,-0.6424,-0.2299
8070,788,804,34.992,33.557,-0.0404,-0.0678,9.8284,-0.3102,-0.7678,0.0749
8074,775,804,34.992,33.651,0.0238,0.0874,9.8243,-0.4332,0.1735,-0.1088
8080,771,795,34.851,33.682,-0.0153,0.0153,9.81,0.8277,0.2148,-0.6305
8085,767,792,34.896,33.589,0.0474,-0.0361,9.8025,-1.4411,-0.0765,0.5698
8090,768,783,34.966,33.637,-0.0182,0.0279,9.8727,0.0498,-0.164,-0.2004
8095,760,777,34.954,33.633,-0.0732,0.0174,9.7249,-0.482,0.0609,-0.0848
8100,759,772,34.896,33.679,-0.007,-0.0084,9.779,-0.7181,0.5226,0.4339
8105,757,768,34.968,33.631,-0.0361,0.0476,9.8794,0.8285,0.9376,0.9074
8109,750,764,34.911,33.591,-0.0234,-0.1055,9.7636,0.0474,0.1266,0.1032
8115,752,759,34.792,33.699,-0.0445,0.0467,9.8355,0.5249,-0.1014,-0.1651
8119,755,757,34.91,33.666,-0.0046,-0.0378,9.893,-0.6333,0.1205,0.4569
8125,745,749,34.946,33.661,-0.0301,-0.0539,9.8103,-0.6305,0.023,-0.3696
8130,749,744,34.945,33.585,0.003,0.0572,9.8472,1.0141,-0.0901,0.7755
8135,757,736,34.871,33.615,0.0293,0.0001,9.8058,0.4417,-0.1486,-0.706
8140,749,741,34.943,33.534,0.0699,0.0148,9.8065,1.1174,0.1145,-0.7718
8145,753,727,34.927,33.642,-0.0565,0.0355,9.8342,0.3622,0.8003,0.1155
8150,747,720,34.893,33.613,0.0224,-0.0342,9.8205,0.3081,0.1655,0.2092
8154,748,714,34.899,33.592,-0.0817,-0.0222,9.7936,0.0935,0.0804,-0.6719
8160,753,706,34.872,33.644,-0.013,-0.0742,9.8813,-0.3552,0.7539,0.4366
8164,757,695,34.799,33.538,-0.064,0.0394,9.7633,-0.4763,0.3855,-0.398
8170,769,693,34.813,33.631,-0.0341,-0.0098,9.7235,1.0248,-0.1826,-0.6459
8175,777,689,34.8,33.598,-0.0036,0.0357,9.8267,0.079,-0.0639,-0.7629
8180,781,685,34.924,33.686,-0.0464,0.0008,9.828,0.1127,0.0594,-0.2036
8185,789,678,34.874,33.614,-0.0151,-0.0776,9.8435,-0.4681,-0.0796,0.4329
8189,791,671,34.912,33.623,0.0274,0.0606,9.9112,0.466,-0.7152,0.1287
8195,807,669,34.828,33.638,-0.0235,-0.0356,9.8251,-0.0156,-0.3209,-0.3892
8200,811,663,34.806,33.604,0.0369,-0.0674,9.7623,-0.0309,-0.7648,-0.8301
8205,813,662,34.851,33.591,-0.0036,0.0332,9.8203,-0.5677,0.2723,-0.7914
8210,836,651,34.944,33.578,0.0174,0.1173,9.8215,0.4588,-0.0161,0.0867
8215,829,650,34.955,33.529,-0.1055,-0.0634,9.7689,-0.7318,-0.5385,-0.3058
8220,846,648,34.885,33.653,0.0026,-0.0727,9.8516,0.2398,-0.0984,0.6554
8225,851,641,34.888,33.587,0.0388,-0.0378,9.7198,0.0005,0.0546,-0.1434
8230,861,639,34.917,33.651,0.0033,-0.0264,9.8098,-0.1353,0.1242,0.0812
8235,872,641,34.898,33.574,-0.0747,0.0226,9.8058,-0.2388,-0.0252,-0.5063
8240,885,629,34.88,33.553,0.0582,-0.0355,9.8232,0.6042,0.9921,-0.5947
8245,903,633,34.824,33.629,0.0372,-0.083,9.8383,-0.2699,-0.598,-0.5297
8250,915,634,34.912,33.699,-0.0089,0.0784,9.802,-0.3716,0.3527,-0.6239
8255,921,632,34.839,33.658,-0.0422,-0.0506,9.7641,0.5757,0.9178,-0.8322
8260,929,627,34.864,33.562,-0.0474,0.0076,9.8553,-0.355,1.0516,0.1103
8265,954,621,34.877,33.628,0.0428,-0.0375,9.7898,-0.259,0.7142,0.0151
8270,961,627,34.84,33.686,-0.0886,-0.0309,9.7819,-0.2818,-0.0537,0.1736
8275,958,625,34.94,33.651,-0.066,-0.0348,9.7855,0.0241,-0.7557,-0.0854
8280,977,628,34.708,33.584,0.0128,0.0381,9.818,0.5218,1.0972,-0.0087
8285,999,629,34.878,33.596,0.0086,-0.0843,9.8979,0.2591,0.6796,0.2507
8290,1000,630,34.899,33.549,0.0183,-0.0016,9.7922,-0.8914,0.0139,0.1112
8295,1017,634,34.896,33.676,-0.0036,-0.0018,9.8088,0.1699,-0.2404,1.244
8300,1024,630,34.924,33.641,-0.0012,0.055,9.8322,-1.0263,-0.0799,0.1171
8305,1029,640,34.967,33.652,-0.1412,-0.0328,9.8099,-0.0809,0.254,0.2789
8310,1052,642,34.885,33.557,0.0378,-0.0587,9.8573,-0.1299,-0.7009,-0.0933
8315,1058,646,34.958,33.581,0.0421,-0.0258,9.7744,-0.3898,-0.3917,0.242
8320,1068,646,34.946,33.692,-0.0193,-0.0663,9.8198,0.6717,0.4722,-0.3096
8325,1073,656,34.944,33.618,-0.0676,-0.0764,9.8203,0.7819,-0.2954,0.657
8330,1087,657,34.943,33.643,-0.087,-0.0551,9.8411,0.5893,-0.0933,-0.3804
8335,1105,659,34.8,33.675,-0.0615,-0.0515,9.8092,-0.4981,-0.1396,0.143
8340,1114,670,34.892,33.624,0.0041,-0.0818,9.8163,-0.261,-1.0214,-0.4592
8345,1108,676,34.844,33.684,0.0669,0.0188,9.7287,0.5053,-0.4195,0.0003
8350,1121,679,34.907,33.594,-0.052,-0.008,9.8203,0.3421,-0.3157,-0.0345
8355,1135,687,34.828,33.554,-0.0218,-0.0877,9.8366,-0.1214,0.0773,0.8626
8360,1134,688,34.883,33.641,-0.0323,-0.0004,9.752,0.0239,-0.6363,-0.2084
8365,1151,697,34.884,33.638,0.0389,-0.0199,9.7548,0.0274,0.2285,-0.1131
8370,1153,702,34.956,33.598,0.0113,0.0115,9.738,1.1477,-0.3574,1.092
8375,1147,716,34.879,33.664,0.0026,0.0678,9.8044,-0.6571,-0.2577,-0.4216
8380,1156,712,34.86,33.579,0.0799,-0.0992,9.8392,-0.605,-0.4841,1.1481
8385,1158,725,34.847,33.597,-0.0424,0.0353,9.7551,0.7082,-0.1588,-0.2237
8390,1174,734,34.9,33.637,0.0377,-0.0874,9.7804,-0.8446,-0.5806,-0.6884
8395,1174,740,34.914,33.726,0.0157,0.1034,9.8575,0.2208,0.4315,0.3441
8400,1170,752,34.792,33.621,-0.0894,-0.0055,9.8307,-0.2757,0.6658,-0.2311
8405,1183,770,34.981,33.668,0.0558,0.0225,9.8832,0.8774,-0.4987,-1.3435
8410,1182,763,34.906,33.638,0.0113,0.0168,9.7463,-0.2001,-0.3299,-0.2762
8415,1185,770,34.907,33.631,-0.0172,0.0361,9.7835,-0.0629,-0.2703,0.6393
8420,1187,783,34.867,33.602,0.0713,0.0068,9.7986,0.0166,0.9718,0.5603
8425,1188,788,34.824,33.676,-0.0459,-0.1159,9.8287,0.1597,0.5615,0.0913
