timestamp_ms,ir_finger,ir_toe,temp_finger,temp_toe,ax,ay,az,gx,gy,gz
0,1044,646,34.366,33.858,0.0853,-0.0755,9.8548,0.5098,1.181,-0.4797
5,1060,648,34.312,33.778,-0.133,-0.0321,9.8303,-1.3494,-0.5298,-0.3782
10,1064,650,34.327,33.771,0.1442,0.0509,9.7872,0.614,-0.2811,-0.82
15,1083,655,34.38,33.828,0.0036,0.0094,9.877,0.0378,0.8053,-0.5247
20,1076,667,34.355,33.977,-0.084,-0.0862,9.8669,0.2877,-0.4135,-0.3865
25,1095,666,34.385,33.863,-0.0499,-0.0217,9.801,0.0169,0.1919,0.0241
30,1109,676,34.413,33.884,0.0292,0.0046,9.815,-0.0342,0.0971,0.6636
35,1114,682,34.434,33.808,0.0186,0.0042,9.841,-1.1027,-0.0853,-0.266
40,1113,685,34.362,33.733,0.0446,0.0108,9.914,1.1292,0.3147,-0.7043
45,1136,690,34.4,33.797,-0.0768,0.051,9.8066,0.8429,0.1099,-0.2049
50,1131,697,34.473,33.772,-0.0768,-0.0381,9.7343,0.0793,0.1313,-0.4579
55,1144,704,34.315,33.825,-0.0497,0.0213,9.8397,0.4067,0.0748,0.5963
60,1149,703,34.346,33.849,0.0553,0.0145,9.8318,0.3618,0.2441,0.1469
65,1152,717,34.4,33.853,0.0301,-0.0027,9.9208,-0.397,-0.65,-0.2657
70,1166,722,34.337,33.785,0.0379,-0.0368,9.769,0.1637,0.3502,-0.0401
75,1167,729,34.323,33.822,-0.0245,-0.0246,9.9285,0.3296,0.3385,-0.1893
80,1170,736,34.31,33.876,-0.0194,-0.023,9.8081,-0.204,-1.0588,-0.7567
85,1173,744,34.362,33.893,-0.0979,0.013,9.8376,-0.185,-0.5557,-1.2891
90,1173,755,34.292,33.812,-0.0477,0.0512,9.7926,1.1099,-1.0092,-0.3683
95,1186,768,34.33,33.993,-0.0276,-0.0406,9.8206,-0.2443,-0.2974,-0.4508
100,1172,768,34.306,33.852,0.0349,-0.0212,9.8047,-0.3621,-0.0622,-0.475
105,1190,777,34.271,33.854,0.0384,0.0596,9.8664,-0.5658,0.3435,0.1687
110,1187,788,34.334,33.823,0.0588,-0.0077,9.8026,-0.2996,-0.5327,0.3647
115,1188,791,34.382,33.824,0.0134,-0.0088,9.6837,-0.1887,0.2831,-0.2769
120,1178,808,34.322,33.719,0.0244,0.0125,9.8134,0.2372,0.3843,-0.5166
125,1192,813,34.302,33.921,0.0044,0.0251,9.7712,0.3309,0.2052,-0.3264
130,1183,825,34.354,33.816,-0.0551,-0.0805,9.7967,-0.0474,-0.2016,-0.3588
135,1192,823,34.286,33.828,-0.016,0.0315,9.8872,0.1173,0.638,-0.8248
140,1185,835,34.334,33.932,0.0405,-0.0086,9.7764,0.4322,-0.0591,0.3661
145,1189,841,34.391,33.864,-0.0119,-0.0016,9.7191,0.1771,0.554,-0.1854
150,1182,845,34.419,33.885,-0.0415,-0.0394,9.8717,-0.2216,-0.378,-1.0444
155,1184,855,34.394,33.849,0.0064,-0.0752,9.8372,-0.0566,-0.6129,-0.3264
160,1183,865,34.314,33.822,0.0131,-0.0621,9.806,-0.9576,-0.0199,-0.1539
165,1180,863,34.324,33.819,-0.0219,0.0097,9.8431,-0.5482,0.5123,-0.5147
170,1180,870,34.319,33.839,0.0402,0.0327,9.8114,0.3839,0.404,-0.1462
175,1176,880,34.337,33.883,0.0769,-0.0552,9.8045,0.6743,0.6561,0.2055
180,1167,884,34.375,33.728,-0.0747,0.0126,9.7678,0.6785,0.5002,0.173
185,1164,891,34.297,33.798,0.0299,-0.0088,9.9109,0.8402,-0.0698,0.2984
190,1157,891,34.334,33.889,0.0423,-0.0256,9.8039,0.2258,0.7148,-0.376
195,1163,897,34.378,33.797,0.0508,0.0267,9.7817,0.3463,0.0659,-0.2067
200,1146,898,34.361,33.723,0.0145,0.0683,9.8019,-0.2145,0.3349,0.144
205,1149,907,34.326,33.829,-0.0228,-0.0871,9.7365,-0.2909,0.216,-0.6317
210,1138,905,34.336,33.797,0.0687,0.0133,9.8119,0.1861,-0.0603,0.4029
215,1155,913,34.424,33.747,0.0255,-0.048,9.7824,-0.4782,0.1277,-0.6688
220,1142,918,34.404,33.875,-0.0687,0.0245,9.7403,-0.0229,0.2552,0.898
225,1123,919,34.356,33.893,-0.0476,-0.0398,9.931,0.2519,-0.2291,-0.192
230,1136,924,34.348,33.878,-0.0328,-0.014,9.82,-0.197,-0.3651,-0.5084
235,1129,919,34.264,33.759,-0.0421,-0.0235,9.8079,-0.3121,-0.0525,1.2893
240,1136,920,34.368,33.812,0.0262,-0.0169,9.8491,0.5241,0.8145,-0.025
245,1121,919,34.345,33.827,0.0086,0.0959,9.9575,-0.4169,-0.6707,-0.4454
250,1123,913,34.307,33.917,-0.0979,-0.0232,9.8656,-0.0022,0.6063,-0.0113
255,1117,926,34.304,33.81,0.0357,0.0976,9.7785,0.0614,-0.3062,-0.4316
260,1116,921,34.341,33.841,-0.0128,-0.0359,9.9124,0.4192,0.2958,-0.0075
265,1111,920,34.374,33.77,-0.0403,0.0105,9.8423,-0.4665,0.171,-1.5471
270,1109,919,34.402,33.879,0.0379,-0.0923,9.8841,0.5467,0.1059,-0.3983
275,1112,920,34.256,33.843,-0.0487,-0.0219,9.7677,-0.6175,0.08,-0.1131
280,1107,920,34.371,33.828,-0.0085,-0.0129,9.7823,-0.6857,0.0573,-0.2714
285,1099,917,34.355,33.888,0.0191,0.0368,9.8646,0.0661,-0.3339,-0.2974
290,1103,917,34.358,33.858,-0.0375,-0.0089,9.8199,0.9747,-0.0488,-0.339
295,1093,912,34.356,33.752,-0.0171,-0.0481,9.792,0.0268,-0.6099,0.0315
300,1098,911,34.245,33.911,0.0339,-0.0047,9.8474,0.3927,0.6842,-0.0687
305,1087,911,34.345,33.788,-0.0072,-0.0484,9.8006,0.28,0.6779,0.0908
310,1098,917,34.348,33.787,0.0437,-0.0041,9.7052,0.4171,0.0869,0.3527
315,1086,906,34.439,33.889,-0.0382,-0.1226,9.8142,0.1226,0.2218,-0.155
320,1087,904,34.28,33.884,0.0428,0.0875,9.7152,0.2087,0.0677,-0.0552
325,1090,913,34.386,33.802,-0.0395,0.044,9.785,-0.4515,-0.021,0.0744
330,1089,907,34.305,33.798,0.0599,0.0024,9.8318,0.3089,0.3102,-0.9704
335,1089,905,34.385,33.946,-0.009,-0.0416,9.859,-0.4741,0.8961,-0.7714
340,1078,897,34.365,33.816,-0.0859,-0.1252,9.8121,0.3896,0.4335,0.5638
345,1078,904,34.314,33.772,0.0182,0.0515,9.845,-0.3859,0.8672,0.7676
350,1073,902,34.277,33.827,-0.0433,0.0205,9.7124,-0.3475,-1.0899,0.4298
355,1070,894,34.361,33.878,0.012,0.0847,9.8189,1.3785,0.2357,-0.7159
360,1060,889,34.303,33.81,-0.0552,-0.0078,9.7792,0.2047,-0.5139,-0.2256
365,1065,894,34.416,33.889,0.0153,-0.0236,9.7046,0.0089,0.1806,0.085
370,1067,886,34.43,33.841,0.0208,-0.0409,9.7358,0.2975,-0.1215,-0.5684
375,1058,882,34.38,33.744,0.0301,0.0209,9.732,0.0774,-0.2263,-0.1645
380,1063,881,34.411,33.817,0.0238,0.0472,9.8113,0.537,-0.5847,0.4964
385,1049,880,34.362,33.866,0.0349,0.0308,9.714,0.2594,0.5419,0.8277
390,1038,877,34.279,33.889,-0.0017,0.041,9.8528,0.7594,0.112,-0.0336
395,1044,875,34.413,33.881,-0.0274,-0.0164,9.8027,-0.5947,0.2347,-0.1475
400,1037,874,34.327,33.817,0.0045,-0.0396,9.8319,-0.2703,-0.1859,0.004
405,1040,867,34.251,33.841,0.1077,0.0118,9.8425,-0.536,0.5892,0.0714
410,1030,875,34.341,33.906,-0.0467,0.107,9.7453,0.8748,0.0206,-0.0638
415,1033,872,34.36,33.946,-0.0791,0.013,9.8364,0.065,0.0205,-0.3677
420,1016,862,34.389,33.832,0.0608,-0.0103,9.7582,0.3188,0.5367,0.257
425,1007,869,34.28,33.738,-0.0468,-0.0434,9.827,1.3215,0.617,-0.4025
430,1003,865,34.328,33.843,0.0191,-0.0755,9.7753,0.716,0.2816,0.1088
435,999,863,34.347,33.823,0.0599,-0.0244,9.751,1.7439,0.107,0.8244
440,992,864,34.319,33.821,-0.0348,0.0019,9.8021,0.2458,-0.1619,-0.2382
445,975,863,34.404,33.844,0.0186,-0.0278,9.8105,-0.1513,0.6881,0.1306
450,979,859,34.304,33.743,-0.0186,0.1185,9.8541,-0.4333,0.2577,-0.6856
455,974,863,34.25,33.759,0.0717,-0.056,9.834,0.5262,-0.9959,0.1217
460,960,854,34.347,33.854,-0.0188,-0.0304,9.8043,-0.1872,-0.4776,0.4478
465,953,852,34.374,33.874,0.0409,-0.0401,9.8269,-0.5452,-0.6372,-0.3137
470,941,851,34.337,33.84,0.0289,0.0059,9.8041,0.8012,0.732,-0.4596
475,927,849,34.356,33.823,-0.0688,0.0383,9.8389,0.0349,0.3255,-0.2175
480,928,850,34.318,33.837,-0.0173,-0.0184,9.8102,-0.3083,-0.7982,-0.056
485,911,855,34.386,33.815,0.018,-0.0392,9.7835,0.5927,0.6811,0.0631
490,908,845,34.333,33.845,0.0491,-0.0487,9.8076,0.1987,0.042,0.8216
495,900,844,34.34,33.898,0.0244,-0.0572,9.9073,-0.1045,-0.1794,-0.1101
500,889,846,34.356,33.822,0.043,0.0634,9.8692,-0.4092,0.1155,0.6241
505,885,839,34.318,33.889,-0.0196,0.0815,9.8321,-0.9911,0.2943,1.0333
510,865,842,34.282,33.783,-0.0547,0.0452,9.874,0.4356,0.2717,-0.0331
515,862,841,34.347,33.835,-0.0366,-0.0059,9.7712,-0.4421,-1.6114,0.856
520,858,832,34.324,33.757,-0.0049,-0.0109,9.8247,0.0385,-0.4527,-0.0248
525,847,833,34.342,33.856,0.0031,0.0449,9.7448,0.5344,-0.3299,0.4642
530,840,831,34.457,33.796,-0.0373,-0.0061,9.9086,0.4946,-0.6965,0.0048
535,824,824,34.319,33.756,-0.0454,0.0345,9.7768,-0.0476,0.5155,-0.5604
540,822,821,34.401,33.846,-0.0331,0.0208,9.7849,-0.1206,0.0244,-0.585
545,811,819,34.394,33.837,0.0245,0.1096,9.7546,-0.7139,-0.5856,-0.9298
550,815,814,34.279,33.851,-0.0302,-0.0744,9.7512,0.2907,0.1132,0.7363
555,795,820,34.308,33.82,0.1434,-0.0267,9.7957,0.6363,0.584,0.6428
560,793,807,34.362,33.846,-0.0449,0.0351,9.8834,0.5937,-0.5577,-0.1851
565,779,799,34.392,33.836,-0.056,0.0126,9.7766,0.0998,0.1328,0.2744
570,783,797,34.415,33.862,0.0118,0.0288,9.8152,-0.8101,-0.0682,0.1658
575,780,794,34.37,33.883,0.0309,0.0862,9.8838,0.4788,0.147,-0.7014
580,776,793,34.36,33.85,-0.0047,-0.0971,9.8785,1.1765,0.4851,0.5281
585,763,785,34.388,33.845,0.0123,0.0168,9.7959,0.4928,0.4397,-0.3
590,754,777,34.34,33.881,0.0471,-0.0111,9.8478,0.9694,0.0046,0.226
595,763,777,34.329,33.779,0.0411,0.004,9.8441,0.1818,-0.0607,0.3485
600,759,770,34.424,33.805,-0.0335,0.0715,9.7775,0.1385,-0.004,0.4684
605,752,767,34.283,33.833,0.0264,-0.0385,9.8727,-0.3329,-0.1968,-0.6898
610,745,760,34.393,33.813,-0.0058,-0.0716,9.741,-0.1319,0.0317,-0.4251
615,744,756,34.402,33.918,-0.0421,0.0444,9.819,0.5326,0.4853,1.0983
620,752,747,34.428,33.849,0.0599,0.0196,9.8309,-0.2007,0.9611,0.426
625,751,744,34.388,33.843,-0.1339,-0.0213,9.8585,-0.7317,-0.0202,0.7044
630,748,739,34.426,33.74,-0.0851,0.0192,9.9022,-0.0596,-0.0447,0.5273
635,755,730,34.263,33.957,-0.0848,0.0344,9.8194,1.177,0.6602,-0.7716
640,749,724,34.392,33.874,-0.0676,-0.0656,9.8256,0.282,0.0663,-1.2138
645,763,720,34.433,33.903,-0.0082,-0.0398,9.7769,-0.5526,-0.0914,-0.0117
650,753,719,34.445,33.77,-0.0159,-0.0493,9.8075,-0.4026,-0.1794,-0.4397
655,766,706,34.349,33.876,0.0743,0.0646,9.8123,0.1593,0.2968,-0.2978
660,772,705,34.241,33.883,-0.0193,0.0076,9.8077,-0.5961,0.1073,0.075
665,771,692,34.328,33.823,-0.0303,-0.0361,9.8106,0.7199,0.1615,-0.358
670,779,691,34.35,33.866,0.0237,-0.0202,9.7707,-0.5626,0.1674,-0.2454
675,783,686,34.353,33.859,-0.0255,-0.0064,9.6822,-0.0353,0.6014,-0.2071
680,795,677,34.329,33.845,0.0046,0.0198,9.8102,0.6126,-0.4995,0.6602
685,811,681,34.421,33.77,0.0054,-0.0522,9.8849,1.1169,0.5988,-0.4739
690,807,678,34.403,33.848,-0.0242,0.1172,9.8359,-0.1841,0.0963,0.2562
695,822,668,34.376,33.942,0.0296,0.0207,9.8485,0.4965,-0.1978,-0.1925
700,828,662,34.397,33.911,0.0425,0.0378,9.7954,-0.0507,-0.0826,-0.4581
705,841,656,34.393,33.805,0.0285,-0.0286,9.7715,-0.3261,-0.3751,0.0363
710,842,651,34.336,33.825,0.006,-0.0572,9.82,0.3368,-0.6745,0.4933
715,855,656,34.402,33.861,0.0025,0.0932,9.7453,-0.5159,0.2592,0.702
720,872,650,34.326,33.869,0.0426,0.0111,9.8005,-0.238,0.113,0.2099
725,887,645,34.243,33.838,0.0612,-0.0771,9.7532,0.4388,-0.4496,0.1818
730,897,638,34.253,33.871,0.0512,-0.0226,9.8141,-0.1147,-0.5886,-0.2465
735,915,642,34.335,33.805,-0.0494,0.0204,9.7742,-0.1176,-0.3879,-0.6468
740,918,634,34.482,33.86,0.0423,0.056,9.7734,0.3758,0.5961,-0.1055
745,928,638,34.337,33.827,-0.0134,0.0159,9.8226,0.2434,-0.0122,-0.191
750,945,637,34.335,33.815,-0.0998,-0.0406,9.7771,-0.3292,0.472,-0.3338
755,954,642,34.36,33.838,0.1192,0.002,9.8024,-0.2243,0.017,-0.149
760,973,636,34.362,33.873,0.0494,-0.0517,9.752,-0.364,0.2908,-0.3368
765,981,639,34.319,33.847,-0.0795,-0.015,9.8463,-0.0879,0.2777,0.2252
770,1000,641,34.295,33.879,-0.0009,0.0015,9.8465,0.1327,0.3376,0.774
775,1005,640,34.384,33.874,0.1276,-0.0419,9.7649,-0.3233,-0.164,0.6646
780,1005,641,34.421,33.761,0.0134,-0.0124,9.7682,-0.6312,0.8087,0.0087
785,1034,645,34.358,33.905,0.0331,0.0746,9.6864,0.7884,-0.1818,-0.4495
790,1036,645,34.438,33.851,-0.0653,0.0722,9.8301,-0.1486,-0.7378,0.1107
795,1048,649,34.358,33.792,0.0421,0.0043,9.8412,1.0729,-0.0504,-0.2287
800,1061,651,34.331,33.798,0.0379,0.0026,9.8043,0.7183,-0.2557,-0.7977
805,1075,656,34.392,33.861,0.0314,-0.0308,9.775,-0.1678,-0.2231,0.4356
810,1082,663,34.256,33.843,-0.061,-0.0571,9.8013,0.4249,-0.0742,-0.4843
815,1085,664,34.347,33.873,-0.0813,-0.0343,9.7785,-0.8472,-1.0328,-0.7392
820,1106,670,34.271,33.923,-0.0963,0.0046,9.7339,-1.3067,-0.2305,0.0717
825,1111,681,34.332,33.815,0.0044,0.0057,9.8595,0.0777,0.4737,-0.4945
830,1130,680,34.272,33.881,0.0748,0.0048,9.7799,-0.1669,-0.6183,-1.0097
835,1125,687,34.325,33.834,0.0774,-0.0527,9.8945,0.3387,-0.0162,0.8756
840,1134,693,34.431,33.813,0.0283,-0.1196,9.7159,-0.8836,-0.4668,0.478
845,1137,699,34.279,33.829,0.0189,-0.0029,9.7493,-0.8645,-0.2384,-0.7129
850,1148,707,34.361,33.831,0.0153,-0.0572,9.793,-0.6737,0.6227,-0.1338
855,1151,713,34.33,33.779,-0.0139,0.0633,9.876,0.5547,-0.2494,0.7342
860,1165,721,34.24,33.827,-0.0113,0.0157,9.8292,-0.6847,-0.7203,-0.1801
865,1167,728,34.347,33.842,0.0056,-0.0075,9.7851,-0.3985,0.5864,-1.3809
870,1167,737,34.411,33.841,0.0133,-0.0469,9.7447,0.5711,0.3466,0.2011
875,1170,745,34.381,33.784,0.0174,0.0417,9.7807,-0.9845,-0.5933,-0.7884
880,1186,747,34.387,33.913,0.0021,0.0085,9.8549,0.4929,1.3028,0.4003
885,1187,756,34.368,33.757,-0.063,0.0067,9.7765,-0.2136,0.9751,-0.2142
890,1189,774,34.329,33.855,0.0599,-0.1074,9.7678,-0.1862,0.3673,0.318
895,1181,774,34.395,33.909,-0.0934,-0.031,9.8732,0.0329,-0.7322,-0.1116
900,1182,780,34.353,33.822,-0.051,0.0065,9.7945,-0.8633,-0.2592,-0.2728
905,1179,792,34.344,33.902,0.0019,0.0579,9.8657,0.6042,-0.3334,0.7643
910,1174,799,34.375,33.784,0.029,-0.0064,9.8441,-0.5968,0.7606,0.2078
915,1189,808,34.31,33.838,-0.0012,0.0446,9.8303,0.3708,1.016,0.4633
920,1182,812,34.315,33.804,-0.0355,-0.0516,9.7863,0.0925,0.4352,-0.3183
925,1181,818,34.394,33.928,0.0262,0.0347,9.8207,0.4031,0.2612,0.0931
930,1197,826,34.353,33.939,-0.0538,-0.0089,9.8711,0.6641,0.1994,0.527
935,1188,837,34.399,33.867,-0.0175,0.052,9.8115,0.9215,-0.3458,-0.3417
940,1187,841,34.497,33.924,-0.0523,0.0648,9.7939,-0.347,-0.2807,0.0818
945,1188,851,34.315,33.873,0.0555,0.0068,9.8752,-0.7652,-0.2126,-0.6536
950,1183,856,34.274,33.854,0.0579,-0.0475,9.9004,0.7444,0.2009,0.2774
955,1182,863,34.341,33.841,-0.0125,0.0055,9.7924,1.2358,-1.107,-0.2038
960,1176,866,34.314,33.874,0.0141,0.0267,9.7522,0.269,-0.0435,0.8684
965,1168,874,34.358,33.88,-0.0397,0.0497,9.7635,-0.013,-0.5959,-0.0511
970,1169,879,34.392,33.86,-0.0272,-0.0254,9.8704,0.0719,0.4607,-0.1086
975,1163,887,34.328,33.791,0.0355,-0.0606,9.7132,-0.6054,-0.9533,-0.5834
980,1165,885,34.331,33.865,-0.0206,0.0485,9.7803,-0.1091,0.3283,-0.4515
985,1160,892,34.396,33.851,0.0523,-0.0025,9.8192,-0.0235,0.6176,-0.8189
990,1159,902,34.27,33.838,-0.0659,0.0706,9.774,-0.3851,0.4175,-0.1908
995,1146,899,34.367,33.756,0.0614,-0.0183,9.7701,0.2989,1.42,0.0821
1000,1145,904,34.369,33.871,-0.015,0.0018,9.7626,-0.0071,-0.2948,-0.6061
1004,1144,907,34.342,33.786,0.0077,-0.0045,9.865,0.647,-1.0247,-0.0831
1010,1146,912,34.33,33.763,-0.0334,-0.0103,9.7296,0.3964,-0.4263,0.6487
1014,1133,911,34.25,33.855,-0.065,-0.0224,9.9023,-0.2889,-0.9416,-0.1227
1020,1139,916,34.374,33.973,-0.0066,-0.0162,9.8656,-0.6008,0.5121,-0.1455
1025,1136,918,34.375,33.91,-0.0364,-0.0843,9.9069,0.3786,0.6457,-0.1229
1030,1130,920,34.302,33.855,-0.0328,-0.0808,9.7721,-0.6087,0.0814,-0.7358
1035,1121,917,34.402,33.781,-0.008,0.0085,9.8421,-0.0134,-0.9429,-0.4476
1040,1124,920,34.464,33.862,-0.0254,0.0393,9.8173,-0.6252,0.5831,-0.2947
1045,1112,923,34.365,33.788,0.025,0.0,9.7758,-0.0757,0.1948,-0.5207
1050,1123,919,34.381,33.912,-0.0065,0.0346,9.8058,0.005,-0.2238,-0.5635
1055,1116,925,34.352,33.796,-0.0422,-0.0263,9.827,-0.3902,-0.2577,0.6671
1060,1111,918,34.338,33.855,-0.0764,0.0318,9.8057,-0.0956,-0.011,-0.1086
1065,1109,919,34.349,33.837,-0.1073,-0.0423,9.7349,-0.5004,0.4086,-0.4292
1070,1105,923,34.364,33.877,-0.0218,-0.0296,9.7782,0.1421,0.5865,0.63
1075,1115,920,34.387,33.812,-0.0343,0.0537,9.7525,-0.5772,0.0325,-0.5628
1080,1096,915,34.339,33.997,0.0041,0.0679,9.6778,-0.6397,-0.1771,-0.1591
1085,1093,918,34.391,33.849,-0.0364,0.0482,9.8454,-0.1623,0.6576,-0.3879
1090,1095,914,34.24,33.837,-0.0185,-0.0408,9.8101,0.1389,0.2062,0.3205
1095,1099,912,34.362,33.849,0.0251,-0.0848,9.8004,0.1669,-0.0599,0.0239
1100,1091,914,34.39,33.921,-0.0292,-0.0125,9.8054,0.6163,-0.2051,0.6049
1105,1093,908,34.295,34.002,0.0004,0.0098,9.7783,0.5799,0.7239,-1.1027
1110,1091,909,34.341,33.873,0.0516,-0.0201,9.7866,-1.2138,0.4415,-0.0575
1115,1089,903,34.292,33.79,0.0334,-0.0159,9.7615,0.2658,0.0222,-0.5184
1120,1076,901,34.388,33.934,-0.0488,0.0266,9.8327,0.2113,0.4606,-0.1746
1125,1082,901,34.385,33.941,0.0587,0.0084,9.7659,0.3471,0.0599,-0.2857
1130,1084,900,34.309,33.854,-0.0349,0.0376,9.778,0.3238,0.1514,-0.3681
1135,1085,901,34.453,33.837,-0.0063,-0.0354,9.8201,-0.0432,0.3695,-0.1217
1140,1075,905,34.364,33.753,-0.0382,0.1077,9.7608,-0.5503,-0.191,-0.2643
1145,1068,897,34.38,33.795,0.0183,-0.0137,9.8011,0.6493,0.7959,-0.9972
1150,1068,891,34.359,33.857,0.0807,-0.002,9.8266,0.027,0.0918,0.8315
1155,1065,889,34.328,33.889,-0.0873,0.0354,9.8173,0.1352,-0.7169,0.6015
1160,1062,886,34.359,33.74,0.0024,0.043,9.8197,0.0098,0.5125,-0.0196
1165,1072,884,34.468,33.838,-0.0087,0.0459,9.7329,-0.8642,0.9549,-0.7957
1170,1054,876,34.321,34.006,0.0081,-0.0088,9.7958,0.0242,0.556,-0.4347
1175,1053,872,34.328,33.818,-0.0378,0.0595,9.8596,-0.5235,0.1771,0.3718
1180,1044,877,34.339,33.869,-0.0164,-0.0013,9.7385,-0.3005,0.3003,-0.0155
1185,1045,880,34.324,33.886,-0.0888,0.0078,9.8069,0.6812,0.1324,-1.0229
1190,1031,869,34.293,33.809,-0.0501,0.052,9.8237,-0.1117,0.5825,0.2072
1195,1026,873,34.289,33.864,0.0079,0.0252,9.8056,0.5888,-0.4144,-0.1098
1200,1038,877,34.423,33.844,-0.0275,-0.0339,9.7813,-0.0985,0.2147,0.3863
1205,1029,868,34.266,33.929,0.036,0.0898,9.6975,0.0371,-0.4536,0.0843
1210,1033,866,34.376,33.827,0.0472,-0.0565,9.7812,-0.5379,-0.5146,-0.6461
1215,1018,863,34.337,33.829,-0.0467,-0.062,9.8534,-0.182,-0.552,0.8228
1220,1003,864,34.372,33.883,0.1131,-0.0168,9.8216,0.1044,0.2034,0.1987
1225,1002,863,34.342,33.861,0.064,-0.0055,9.8437,-0.0594,-0.5713,-0.38
1230,993,855,34.316,33.863,-0.0711,-0.09,9.7492,0.7765,-0.1824,0.3616
1235,992,859,34.336,33.826,0.0527,-0.0157,9.8132,-0.0346,-0.1436,-0.2524
1240,982,859,34.387,33.958,0.042,-0.044,9.8587,0.3085,0.2408,0.1141
1245,981,861,34.403,33.777,0.0133,0.0398,9.8197,0.5028,0.0036,0.085
1250,962,860,34.339,33.911,0.0918,0.0129,9.8246,0.5678,-0.9326,0.3664
1255,947,854,34.374,33.882,-0.0687,-0.0363,9.7677,0.1051,-0.8218,-0.3055
1260,948,852,34.422,33.924,0.0795,-0.0355,9.828,0.5105,0.6046,0.4815
1265,937,851,34.411,33.896,0.0163,0.0331,9.7549,0.4185,0.3659,0.039
1270,935,852,34.342,33.925,0.0339,0.0082,9.7388,0.1272,-0.0065,0.0938
1275,923,852,34.368,33.834,0.0262,0.028,9.8693,-0.9033,-0.0204,-0.0989
1280,913,846,34.348,33.962,0.0353,0.0514,9.7736,1.272,-0.1138,-0.088
1285,908,845,34.262,33.887,0.0285,-0.0464,9.8761,0.4357,0.1552,0.1101
1290,899,844,34.29,33.846,-0.0252,-0.0464,9.8455,0.5267,0.539,-0.075
1295,878,839,34.382,33.84,0.0434,0.0935,9.7811,-0.473,0.216,-0.6005
1300,871,836,34.323,33.88,0.0236,0.0218,9.8566,-0.3641,-0.2426,0.072
1305,872,840,34.394,33.795,-0.0258,-0.0394,9.797,1.2742,-0.4608,0.2884
1310,860,837,34.288,33.863,-0.0433,-0.0537,9.8731,-0.1484,-0.2754,-0.2531
1315,837,832,34.244,33.818,-0.0013,-0.028,9.8013,0.2725,-0.7596,-0.1252
1320,838,827,34.341,33.864,-0.0222,0.0002,9.7156,-0.6647,0.9162,0.375
1325,829,831,34.328,33.873,0.0037,-0.0138,9.8273,0.3352,0.612,-0.2294
1330,814,827,34.289,33.745,-0.0417,-0.0015,9.7916,-0.6698,0.0026,0.1076
1335,809,817,34.246,33.801,-0.0683,-0.0521,9.7832,0.0254,0.2512,-0.6082
1340,807,819,34.344,33.827,0.0023,-0.0227,9.8202,0.5175,-0.3201,0.7361
1345,795,816,34.359,33.779,0.0055,0.0782,9.7396,-0.0625,0.1828,-0.4349
1350,792,810,34.43,33.894,-0.0816,-0.0162,9.8705,-0.1026,-0.5588,-0.5578
1355,780,806,34.385,33.864,-0.0213,0.0641,9.7891,-0.0792,-0.1527,0.1458
1360,774,804,34.394,33.783,0.0186,-0.0249,9.7723,0.4985,-0.5907,-0.5921
1365,771,798,34.359,33.836,0.0532,0.0446,9.7436,0.7866,0.0132,-0.5385
1370,764,792,34.296,33.82,0.026,0.0554,9.8114,0.1099,0.2322,0.0857
1375,762,782,34.402,33.863,-0.0289,0.0051,9.8948,-0.0938,-0.2436,-0.8756
1380,759,777,34.449,33.849,0.0556,0.0751,9.8068,-0.0143,0.6179,0.202
1385,754,780,34.454,33.794,0.0283,0.0165,9.776,-0.3527,0.3183,0.1971
1390,759,773,34.318,33.883,0.0439,0.0516,9.7791,-0.2082,0.0198,-0.7689
1395,748,768,34.463,33.785,0.0495,0.1052,9.7584,-0.671,-0.0942,-0.3224
1400,755,759,34.307,33.845,0.0097,0.0445,9.8251,-0.2377,-0.2486,-0.7667
1405,749,754,34.326,33.982,0.0246,0.0866,9.6827,0.7491,-0.5612,-0.1725
1410,739,751,34.346,33.842,-0.0491,-0.0148,9.7192,-0.8445,-0.3416,0.5424
1415,744,748,34.368,33.856,0.0294,-0.044,9.8077,0.2152,-0.2138,0.0168
1420,751,741,34.376,33.806,-0.0205,0.1042,9.8307,-0.2024,-0.0974,0.035
1425,752,736,34.381,33.921,0.0445,-0.0193,9.8294,-0.0763,-0.0651,-0.1023
1430,750,722,34.311,33.875,0.0897,0.0339,9.8371,0.6154,0.1173,0.67
1435,752,726,34.496,33.836,0.0551,-0.0961,9.8265,-0.2331,-0.5291,0.7161
1440,753,718,34.36,33.875,0.0587,-0.0069,9.7453,-0.4395,-0.5846,-0.7045
1445,763,706,34.364,33.884,0.041,-0.0689,9.7135,0.2745,0.5192,0.0299
1450,763,704,34.388,33.851,-0.0912,0.0974,9.7806,0.4338,0.8015,0.3217
1455,770,701,34.428,33.798,-0.0689,-0.0145,9.8323,0.9543,0.0589,0.8235
1460,782,695,34.391,33.865,-0.0044,0.0024,9.8123,-0.1077,0.0753,0.3774
1465,785,687,34.395,33.886,0.0712,0.0084,9.8634,0.3381,0.078,0.172
1470,799,681,34.439,33.798,0.0332,0.0371,9.8419,0.2651,0.4271,0.179
1475,794,672,34.369,33.822,0.0339,0.0081,9.8314,-0.3166,-0.3435,-1.1332
1480,803,669,34.324,33.841,-0.009,0.0075,9.7552,0.7707,-0.6389,0.8301
1485,829,668,34.434,33.873,0.052,0.0237,9.7549,0.718,-0.4221,-0.1296
1490,831,664,34.277,33.901,0.0051,0.0326,9.783,-1.0073,0.1331,0.5444
1495,834,661,34.384,33.799,0.0397,-0.07,9.8451,-0.2458,-0.2114,-0.1587
1500,840,659,34.441,33.821,-0.0279,-0.0365,9.839,-0.5442,0.2976,-0.5591
1505,862,653,34.321,33.872,-0.0421,-0.0447,9.8403,0.144,0.1023,-0.8723
1510,873,645,34.344,33.826,0.0378,0.0905,9.7781,0.0214,0.3897,0.3913
1515,880,644,34.276,33.875,0.0225,0.0225,9.7971,-0.3148,0.3799,0.2584
1520,888,637,34.366,33.829,0.0423,0.1212,9.74,-0.1641,-0.0507,-0.1718
1525,913,639,34.347,33.94,0.0823,0.0183,9.7946,-0.4067,0.693,0.5536
1530,914,634,34.398,33.796,0.0099,0.019,9.8173,-1.0362,0.6361,-0.2703
1535,919,640,34.455,33.865,-0.0306,-0.0091,9.7851,-0.5147,0.1547,-0.0259
1540,941,634,34.348,33.843,-0.0847,0.0138,9.7897,-0.5381,-0.9786,0.2333
1545,951,632,34.33,33.931,0.0082,-0.0447,9.8734,-0.1789,0.2578,0.97
1550,953,638,34.405,33.919,-0.006,0.0207,9.7725,0.0172,0.3167,-0.4116
1555,973,635,34.319,33.884,0.0197,0.087,9.8837,0.6175,-0.0806,-0.5646
1560,987,636,34.357,33.86,-0.0022,-0.0278,9.8266,0.3854,-0.8491,0.0127
1565,1006,639,34.362,33.781,0.0373,-0.0142,9.8436,0.2386,0.2005,-0.0077
1570,1012,637,34.41,33.871,0.0555,-0.0125,9.7448,0.0827,0.2595,-0.2167
1575,1019,639,34.362,33.881,-0.0748,-0.0466,9.7121,-0.1347,-0.4448,-0.0299
1580,1035,650,34.263,33.873,0.0872,-0.0321,9.9238,-0.3497,-0.3789,-0.4313
1585,1046,648,34.347,33.871,-0.0677,0.1342,9.758,0.2994,-0.0003,0.0124
1590,1052,652,34.362,33.863,-0.0053,-0.0817,9.7226,-0.4243,0.1812,-0.0695
1595,1065,654,34.297,33.815,-0.0501,-0.0186,9.7614,-0.0247,-0.27,-0.2916
1600,1071,654,34.382,33.914,-0.0182,0.0092,9.6973,0.0962,-0.5896,0.6301
1605,1090,664,34.252,33.884,0.0049,-0.01,9.7169,0.0484,-0.006,0.3543
1610,1098,665,34.272,33.847,0.0542,-0.0332,9.8099,-0.3533,0.8477,-0.3516
1615,1105,674,34.318,33.832,-0.0219,0.0326,9.8207,-0.3963,1.1415,0.7633
1620,1114,678,34.314,33.763,0.0096,-0.0485,9.7851,0.2089,0.5364,-0.42
1625,1125,687,34.397,33.826,0.0367,0.0041,9.772,-0.0108,0.89,-0.1283
1630,1146,691,34.413,33.849,0.0271,-0.0316,9.8479,0.5035,0.5641,-0.5902
1635,1129,702,34.346,33.856,0.0453,0.1317,9.7924,-0.0085,-1.0548,0.0986
1640,1145,706,34.378,33.916,-0.0062,-0.0179,9.7166,0.3044,-0.6535,-0.0148
1645,1151,713,34.273,33.813,0.0852,0.0235,9.7827,-0.133,0.4596,0.5128
1650,1161,717,34.419,33.915,-0.0579,0.0402,9.8166,-0.0356,-0.3557,0.6937
1655,1160,726,34.356,33.801,-0.0062,0.099,9.7246,0.5698,-0.4314,0.9123
1660,1166,733,34.28,33.859,0.0236,0.0686,9.8337,0.2937,0.9222,0.8207
1665,1182,747,34.409,33.862,-0.0683,0.0106,9.8122,0.6042,0.1909,0.0319
1670,1168,754,34.343,33.809,-0.0486,0.0238,9.8229,0.135,-0.0879,0.7046
1675,1181,755,34.263,33.755,-0.0463,0.0527,9.7831,0.7615,-0.0648,-0.0451
1680,1180,760,34.432,33.858,-0.046,-0.0373,9.8199,-0.4048,-0.6138,-0.3168
1685,1187,770,34.42,33.778,-0.0379,0.1084,9.7778,0.2833,0.1292,0.166
1690,1185,780,34.38,33.816,-0.001,-0.0074,9.8992,-0.092,0.5101,0.2583
1695,1189,789,34.342,33.834,0.0276,0.0366,9.8631,-0.5555,-0.9853,0.5185
1700,1181,795,34.342,33.874,0.0059,0.1276,9.8205,-0.4622,0.8572,-0.6141
1705,1199,797,34.445,33.876,-0.0111,0.0369,9.7632,-0.1547,0.208,-0.0406
1710,1196,817,34.316,33.824,0.0086,-0.0513,9.7633,-0.3885,-0.2109,0.0835
1715,1187,814,34.301,33.781,-0.0915,-0.0035,9.7973,-0.4191,0.7673,0.2813
1720,1181,824,34.321,33.842,0.0446,-0.0009,9.871,-0.8,-0.5481,0.9128
1725,1185,839,34.356,33.847,0.0589,-0.0097,9.8878,0.7727,0.1504,0.6312
1730,1180,839,34.426,33.919,-0.0181,-0.026,9.7731,0.2147,-0.5382,-0.0327
1735,1184,847,34.306,33.789,-0.0265,0.0322,9.8631,0.2118,1.4987,-0.1303
1740,1183,856,34.315,33.734,-0.0568,0.0735,9.8024,0.4946,0.1424,-0.242
1745,1181,862,34.375,33.862,0.0937,-0.1059,9.7759,0.1637,0.5253,-0.0043
1750,1174,870,34.447,33.935,0.0243,-0.0528,9.8426,-0.0701,-1.2099,0.8323
1755,1178,871,34.385,33.835,0.0807,0.0003,9.7863,-0.7667,0.4628,-0.4112
1760,1171,878,34.38,33.758,-0.015,-0.0475,9.7099,0.7509,0.2528,-0.1257
1765,1174,883,34.401,33.872,-0.0209,0.0503,9.8255,-0.1895,-0.6796,0.207
1770,1162,890,34.423,33.929,0.011,-0.0137,9.8283,-0.198,0.2791,-0.9009
1775,1158,896,34.328,33.915,0.0222,0.0424,9.8649,0.3498,1.0693,-0.0011
1780,1161,893,34.434,33.685,-0.0306,0.0104,9.7935,-0.5792,-0.6737,0.1
1785,1153,904,34.28,33.934,-0.0845,-0.0062,9.7083,-0.2704,0.129,0.2173
1790,1152,905,34.362,33.869,-0.049,-0.0063,9.8087,-0.6538,0.0478,0.7625
1795,1139,913,34.396,33.886,0.034,-0.0503,9.8125,-0.5015,0.3152,0.1632
1800,1143,912,34.367,33.831,0.0545,-0.0819,9.7902,0.1401,-0.0118,0.0689
1805,1142,916,34.359,33.827,-0.0631,0.0048,9.7781,0.7691,0.3132,-0.3657
1810,1132,918,34.315,33.864,-0.0033,0.0435,9.7232,0.8795,0.1128,-0.9476
1815,1130,919,34.346,33.821,0.0634,-0.0008,9.8692,-0.254,0.2713,-0.4271
1820,1132,918,34.435,33.814,0.0008,0.0689,9.8811,0.4561,-0.8407,0.0455
1825,1130,918,34.357,33.937,0.0015,0.0582,9.802,0.2754,-0.3771,0.1946
1830,1126,912,34.318,33.852,0.0056,0.0622,9.8569,-0.1659,-0.074,-0.408
1835,1120,925,34.31,33.886,0.0282,0.0303,9.7737,-0.6925,1.1844,0.3416
1840,1126,925,34.28,33.854,0.0159,0.0112,9.8207,-0.3697,-0.1343,-0.0102
1845,1111,923,34.354,33.822,0.0119,-0.0597,9.7917,0.5643,-0.2912,0.1195
1850,1114,917,34.375,33.773,0.0277,0.0518,9.8116,0.7082,-1.0063,-0.3482
1855,1113,916,34.338,33.798,-0.0199,0.0514,9.7674,0.3418,0.7068,0.0803
1860,1114,919,34.369,33.857,-0.0891,0.0245,9.7691,-1.0102,-0.3255,-0.2609
1865,1107,921,34.357,33.855,-0.0887,-0.025,9.7598,0.2771,0.4611,-0.7747
1870,1100,917,34.398,33.859,0.0346,-0.0683,9.7613,-0.3486,0.0191,-0.0552
1875,1109,913,34.375,33.814,0.0087,0.0201,9.7984,-0.0604,-0.0754,-0.2598
1880,1096,913,34.339,33.815,0.0036,0.0563,9.8322,-0.2483,0.1203,-0.3894
1885,1087,911,34.394,33.804,0.0259,-0.0288,9.8513,-0.2465,0.0938,0.0205
1890,1090,911,34.306,33.877,0.0692,0.0177,9.7985,0.3484,-0.1542,-0.5569
1895,1084,911,34.238,33.847,0.0079,-0.02,9.6709,-0.0591,-0.0231,-0.2768
1900,1093,909,34.38,34.014,0.0772,-0.0276,9.8327,-0.277,-0.3017,-0.4798
1905,1088,908,34.377,33.929,0.0969,0.0525,9.7605,-0.1681,-0.3392,0.5161
1910,1093,905,34.347,33.868,-0.0223,-0.0696,9.8909,-0.4658,0.0021,0.5664
1915,1084,895,34.404,33.887,-0.04,0.0454,9.8521,-0.0943,-0.3778,-0.3453
1920,1086,900,34.378,33.887,-0.0809,0.055,9.7825,-0.396,-0.8935,-0.7158
1925,1080,899,34.381,33.928,-0.0825,-0.1029,9.7521,-0.2538,-0.1524,-0.4067
1930,1068,892,34.322,33.839,-0.0017,0.0497,9.7829,0.3369,-0.198,1.4563
1935,1086,899,34.362,33.803,-0.0352,0.0126,9.7801,0.8061,-0.1973,-0.2683
1940,1071,892,34.329,33.888,-0.0091,-0.0215,9.8214,0.6512,0.663,0.2317
1945,1076,894,34.31,33.827,0.0019,-0.0054,9.82,0.1507,-0.556,0.3503
1950,1063,887,34.45,33.822,-0.0673,0.0231,9.7679,-0.0066,-0.7431,-0.4881
1955,1058,882,34.383,33.742,0.01,-0.0289,9.736,-0.1064,0.1316,0.418
1960,1054,879,34.333,33.912,-0.0179,0.0385,9.7508,0.0276,0.2314,-0.2135
1965,1050,881,34.412,33.839,0.1045,0.0259,9.8118,0.1052,-0.2701,-0.3902
1970,1059,880,34.347,33.827,-0.0231,-0.0662,9.8497,0.4526,-0.4555,-0.6331
1975,1047,876,34.323,33.922,0.0403,-0.0293,9.7243,0.762,-0.6064,-0.7922
1980,1050,873,34.31,33.941,0.0325,0.0353,9.8023,-0.2389,0.0988,-0.8729
1985,1039,875,34.27,33.809,-0.026,-0.0352,9.7647,0.6149,-0.7598,0.2179
1990,1032,876,34.425,33.858,-0.0302,-0.0779,9.7246,-0.3494,-0.2781,1.2359
1995,1022,867,34.343,33.915,0.0164,-0.0252,9.7395,-0.3294,0.1445,0.6253
2000,1019,871,34.374,33.859,0.0101,0.037,9.8059,-0.2536,0.5435,0.8793
2005,1011,867,34.308,33.871,0.096,-0.0158,9.7058,-0.9002,-0.2757,-0.1579
2009,1011,867,34.425,33.861,-0.0013,-0.0177,9.7851,0.5209,0.6677,-0.4681
2015,999,862,34.42,33.89,0.1048,0.0325,9.7981,0.2049,-0.5129,0.0926
2020,999,864,34.369,33.806,-0.0248,0.0135,9.8349,-0.2073,-0.2599,-0.7738
2025,986,858,34.412,33.872,0.0138,-0.0366,9.8621,0.4475,0.2827,0.9076
2029,976,861,34.328,33.827,0.0177,-0.0098,9.8339,0.4753,0.5682,-0.8385
2035,976,861,34.432,33.781,0.0355,-0.1036,9.8285,-0.1534,1.0854,-0.9329
2040,961,859,34.306,33.883,0.0164,-0.0145,9.849,0.3077,-0.4382,-0.99
2045,956,862,34.39,33.886,-0.0205,-0.0251,9.8024,0.6845,0.4187,-0.051
2050,950,856,34.326,33.88,0.0192,-0.0659,9.7877,-0.5109,0.1592,0.1213
2055,935,856,34.384,33.85,-0.0507,-0.035,9.8297,-0.6034,0.3021,-0.0674
2060,928,852,34.419,33.839,-0.0583,-0.0479,9.7992,0.3303,-0.5891,0.0177
2065,926,851,34.409,33.808,0.0092,-0.0221,9.832,-0.0735,0.2911,-0.4289
2070,911,841,34.355,33.809,-0.072,0.0227,9.7987,0.0908,-0.2166,-0.7488
2075,904,846,34.341,33.836,0.0043,0.0603,9.8497,0.1016,0.0048,0.7002
2080,897,842,34.345,33.971,0.0514,0.0566,9.8194,-0.3919,0.2355,-0.3077
2085,884,842,34.296,33.776,0.0308,0.0728,9.8264,0.3644,-0.1152,-0.1071
2090,879,836,34.405,33.883,0.0622,0.053,9.7975,0.4711,-0.2684,0.2058
2095,871,836,34.332,33.83,0.0296,0.0139,9.7997,0.2084,-1.5478,-0.0648
2100,856,833,34.281,33.809,0.0058,0.0023,9.7867,0.3362,-0.2659,-0.3172
2105,856,835,34.422,33.862,-0.0217,0.0314,9.8246,-0.0976,-0.3038,0.204
2110,841,834,34.408,33.856,0.0445,-0.0164,9.8164,-0.3266,0.0214,-0.0538
2115,842,829,34.284,33.82,0.0257,-0.0424,9.8321,0.1471,0.8519,0.1786
2120,820,828,34.38,33.826,0.0262,-0.0332,9.8896,-0.0161,-0.0744,0.7791
2125,823,819,34.391,33.807,-0.0657,-0.0413,9.7813,-0.4362,0.483,-0.1554
2130,811,815,34.386,33.806,-0.0231,-0.0635,9.8166,-0.2319,0.4781,-0.3016
2135,805,814,34.337,33.894,-0.0963,0.0344,9.7948,0.1736,0.3467,-0.7266
2140,795,810,34.317,33.82,-0.092,0.041,9.7515,0.3119,-0.4959,-0.8368
2145,786,812,34.418,33.929,-0.0013,0.0105,9.7538,0.3854,-0.3321,0.4808
2150,790,802,34.253,33.86,0.0485,0.0507,9.8209,-0.0853,-0.3246,-0.3326
2155,778,798,34.272,33.882,0.081,-0.0136,9.8064,-0.0612,-0.653,0.5627
2160,770,796,34.345,33.938,-0.1244,0.0232,9.8268,0.9091,-0.2379,1.0575
2165,760,795,34.331,33.886,0.038,-0.018,9.8163,-0.4423,0.9548,0.0699
2170,763,784,34.348,33.891,0.0304,0.0263,9.8545,0.143,-0.513,-0.2991
2175,759,777,34.292,33.792,0.0038,-0.0633,9.6919,0.2737,0.4066,0.6007
2180,756,772,34.365,33.901,-0.0916,0.1076,9.7484,-0.7006,0.2621,0.7821
2185,743,763,34.263,33.948,-0.0735,0.044,9.917,0.4626,-0.2277,-0.2922
2190,750,762,34.378,33.817,0.0821,-0.0292,9.8092,-0.9056,0.216,0.252
2195,744,760,34.288,33.913,0.0181,-0.0539,9.8118,0.8475,0.501,0.3997
2200,745,751,34.336,33.793,-0.1244,-0.0202,9.8962,0.5991,0.1591,0.5008
2205,757,742,34.41,33.775,0.0617,-0.0267,9.8484,0.403,0.4371,0.1761
2210,753,742,34.365,33.937,0.0149,-0.0213,9.8332,-0.1053,0.173,-0.161
2215,746,732,34.426,33.901,0.0202,0.0357,9.742,-0.0234,-0.6197,-0.4982
2220,754,734,34.325,33.877,0.0055,-0.0065,9.7948,1.2369,-0.7612,0.3356
2225,759,722,34.47,33.911,0.0305,0.0523,9.8092,0.2817,-0.1747,-0.7218
2230,766,716,34.414,33.943,-0.0071,0.0644,9.7856,0.21,0.2062,-0.4494
2235,761,712,34.343,33.846,-0.1026,-0.0025,9.8368,-0.1816,0.1798,0.2473
2240,773,708,34.332,33.919,0.0504,-0.0112,9.8078,-0.1708,-0.0742,0.0279
2245,766,701,34.364,33.935,-0.0126,0.0604,9.8374,-0.041,0.6828,-1.208
2250,774,696,34.326,33.872,-0.0424,0.0484,9.8069,-0.0492,-0.2432,0.0588
2255,779,688,34.314,33.803,0.0225,-0.0586,9.7343,0.7943,0.8683,-1.0197
2260,786,681,34.444,33.853,-0.0745,-0.0556,9.773,0.7159,0.4496,-1.2902
2265,804,673,34.289,33.882,-0.0992,0.02,9.7527,0.1994,-0.3232,0.6246
2270,799,673,34.432,33.878,0.0242,-0.0345,9.7336,0.8477,0.0507,0.0024
2275,821,672,34.469,33.881,0.0578,-0.0122,9.8421,0.091,-0.385,1.1764
2280,816,669,34.372,33.918,0.0489,-0.0495,9.837,-0.0497,0.2657,0.5015
2285,835,664,34.392,33.881,0.0227,0.0052,9.8605,0.2988,-0.3478,0.5718
2290,845,658,34.464,33.76,-0.0005,-0.0875,9.8555,-0.3178,0.068,-0.6006
2295,855,650,34.412,33.821,-0.0535,0.0859,9.7836,-0.7167,0.574,0.7882
2300,860,649,34.377,33.879,0.0004,-0.0397,9.7679,0.1752,-0.1702,1.1334
2305,872,647,34.402,33.883,0.0142,-0.0165,9.7527,-0.2691,0.1347,-0.2326
2310,883,642,34.46,33.928,-0.0501,0.1019,9.7452,0.5333,-0.0229,0.1984
2315,904,642,34.266,33.859,0.0101,0.0034,9.8466,0.1862,0.5797,0.9602
2320,913,640,34.415,33.868,-0.0447,-0.0595,9.903,-0.0493,-0.3425,-0.2892
2325,920,642,34.417,33.899,0.0211,0.0274,9.8433,0.3334,0.4095,0.0909
2330,942,635,34.448,33.895,-0.0247,-0.0053,9.7885,-0.2999,0.1247,-0.8408
2335,945,638,34.458,33.786,-0.059,0.1125,9.6981,-0.0556,-0.4953,0.8184
2340,963,636,34.418,33.928,-0.1116,-0.0318,9.8577,-0.8373,-0.0387,-0.8668
2345,977,639,34.343,33.844,0.0659,-0.043,9.7795,-0.0147,-0.0993,-0.9086
2350,985,640,34.379,33.868,0.0233,0.022,9.8444,-0.2452,-1.1602,-0.4132
2355,986,642,34.297,33.89,0.0099,-0.0136,9.7608,-0.4981,0.5033,-0.0633
2360,1006,641,34.354,33.817,0.0705,-0.0252,9.6865,-0.0695,0.1603,0.1798
2365,1023,647,34.386,33.91,0.0186,0.0459,9.8019,0.4969,0.6119,0.4735
2370,1033,646,34.303,33.905,0.0111,-0.0874,9.8007,-0.4209,0.4539,0.3959
2375,1048,647,34.427,33.834,-0.052,-0.0745,9.8142,0.1897,-0.1572,-0.5139
2380,1053,649,34.321,33.91,-0.0285,-0.0352,9.794,-0.699,0.6644,-0.1472
2385,1057,653,34.433,33.9,-0.0295,0.06,9.7982,0.1499,-0.3806,0.4739
2390,1072,658,34.387,33.858,0.047,0.012,9.775,0.6146,-0.6814,0.089
2395,1079,659,34.44,33.876,0.032,-0.0094,9.8058,0.3942,0.4686,-0.8143
2400,1092,664,34.323,33.88,0.0671,-0.0032,9.8615,-0.3496,-0.5629,0.0297
2405,1101,675,34.289,33.813,0.0247,0.0416,9.8461,0.2385,0.6072,-0.5155
2410,1122,677,34.408,33.903,0.0591,0.0264,9.7828,-0.3243,0.691,-0.1178
2415,1114,685,34.408,33.842,-0.0185,-0.0385,9.8328,-0.3251,0.5112,-0.2018
2420,1130,689,34.356,33.825,-0.0983,0.0254,9.7943,0.4738,-0.7465,-0.0528
2425,1136,701,34.293,33.884,0.0554,0.0847,9.8508,0.0652,-0.0632,0.1121
2430,1144,700,34.341,33.959,0.013,0.0669,9.7738,-0.2878,0.1327,0.5883
2435,1150,712,34.459,33.802,-0.0237,-0.0452,9.7603,-0.5864,-0.4404,-0.4198
2440,1155,719,34.363,33.837,-0.0161,0.012,9.8257,-0.091,-0.1137,-0.8824
2445,1164,726,34.38,33.992,0.0142,0.0639,9.8696,0.0145,-0.149,-0.0641
2450,1160,730,34.364,33.86,-0.022,0.0194,9.9157,0.5501,0.0688,-0.4429
2455,1182,740,34.381,33.834,0.0223,-0.1128,9.821,-0.5111,-0.8742,-0.8743
2460,1173,746,34.346,33.937,0.0769,0.0051,9.8394,0.0585,-1.2628,0.1371
2465,1171,760,34.414,33.881,-0.0076,0.0566,9.7817,0.2692,-0.2355,0.6322
2470,1184,759,34.306,33.916,0.0202,-0.0557,9.7362,-0.4174,0.7385,0.0715
2475,1184,769,34.35,33.897,-0.0234,0.0122,9.9098,0.4012,-0.3149,-0.1444
2480,1183,776,34.414,33.912,0.0233,-0.0523,9.851,-0.1742,-1.2456,-0.3807
2485,1182,789,34.347,33.902,0.0497,0.0617,9.852,0.4942,0.156,0.1172
2490,1192,793,34.339,33.933,-0.0432,0.0427,9.8891,-0.801,-0.4785,-0.2301
2495,1195,799,34.268,33.926,-0.0805,-0.0231,9.8356,-0.1266,-0.4152,-0.1163
2500,1182,803,34.388,33.907,-0.0241,-0.0046,9.8498,0.7136,-0.5458,-1.51
2505,1190,821,34.412,33.872,0.0377,0.0487,9.7219,0.7794,0.2785,-0.3085
2510,1192,818,34.28,33.903,-0.0041,-0.1093,9.8599,0.2288,-1.2895,-0.135
2515,1185,834,34.413,33.901,0.0523,-0.0214,9.8268,-0.8379,0.0703,-1.2129
2520,1184,837,34.419,33.782,-0.0832,-0.0416,9.89,-0.8037,-0.7973,-0.1049
2525,1180,845,34.26,33.856,-0.0177,-0.0014,9.8196,-0.1855,-0.2588,0.1208
2530,1178,856,34.355,33.887,0.0201,-0.0486,9.7415,0.342,0.321,-0.5691
2535,1178,865,34.338,33.882,-0.0218,0.049,9.8348,-0.2669,-0.019,0.5867
2540,1173,868,34.412,33.864,-0.0894,-0.0165,9.864,0.2786,-0.0519,0.4691
2545,1178,867,34.322,33.871,0.0063,-0.0186,9.7914,0.1121,-0.8471,-0.0808
2550,1173,877,34.315,33.865,-0.0107,0.0152,9.8506,-0.1623,0.5395,-0.0918
2555,1166,885,34.277,33.85,0.0182,-0.0246,9.7674,0.2179,0.1925,-0.6752
2560,1171,884,34.377,33.966,-0.0382,-0.0315,9.7489,-0.7253,-1.4918,-0.079
2565,1157,892,34.262,33.815,-0.0181,-0.0979,9.7619,-0.1192,-0.3529,-0.268
2570,1164,896,34.355,33.954,0.0016,0.1018,9.8802,0.2077,-0.1227,-0.5442
2575,1154,897,34.369,33.938,0.0047,0.0342,9.8863,0.5072,0.6364,0.2718
2580,1148,900,34.334,33.937,-0.0526,0.0218,9.8142,0.4412,1.0737,0.6503
2585,1142,905,34.417,33.862,-0.0066,-0.0277,9.8044,-0.1516,-0.2274,-0.3021
2590,1158,911,34.344,33.922,-0.0205,0.0038,9.8535,0.2364,-0.3764,-0.8456
2595,1138,912,34.387,33.803,0.0455,0.0868,9.792,-0.0703,0.39,-0.1124
2600,1140,911,34.418,33.962,0.0156,-0.0063,9.7703,-0.6158,0.6158,-0.2277
2605,1127,914,34.33,33.838,0.051,0.0023,9.8008,0.4779,0.0118,-0.4022
2610,1138,920,34.4,33.842,-0.0112,0.0351,9.8198,-0.6272,0.0701,0.418
2615,1121,921,34.348,33.862,0.0389,0.0507,9.9051,-0.7452,-0.2606,0.5417
2620,1125,923,34.343,33.916,-0.0096,-0.0167,9.7418,0.2303,0.1528,0.521
2625,1125,924,34.405,33.946,-0.0748,0.0125,9.8995,0.2934,-0.1386,-0.4267
2630,1114,925,34.354,33.805,-0.0141,-0.053,9.8163,-0.2084,-0.2788,0.0458
2635,1120,923,34.292,33.84,-0.0115,-0.0165,9.8,0.0477,0.1214,-1.1447
2640,1112,926,34.418,33.949,0.0717,0.0462,9.7445,0.6263,0.1868,0.4875
2645,1105,918,34.329,33.806,0.0491,0.0401,9.7881,-0.6295,0.4902,0.2758
2650,1109,921,34.402,33.897,-0.0448,-0.0346,9.8129,-0.4781,0.1242,0.1979
2655,1105,925,34.381,33.813,0.0288,0.0606,9.8773,0.0704,-0.5056,0.5565
2660,1102,917,34.374,33.956,0.0022,0.0535,9.8261,0.2564,0.1078,0.7911
2665,1099,917,34.328,33.864,-0.1064,-0.001,9.807,0.6594,-0.2069,-0.4082
2670,1106,912,34.385,33.94,-0.1007,0.0048,9.8219,-0.0632,0.2275,-0.3412
2675,1101,911,34.312,33.887,-0.0146,0.0192,9.802,0.1791,0.5841,-0.0698
2680,1096,912,34.39,33.87,0.0018,0.0208,9.8085,0.0437,0.3936,0.652
2685,1095,911,34.352,33.886,-0.0343,-0.0367,9.9093,-0.6114,-0.3742,-0.069
2690,1099,904,34.3,33.947,0.0256,-0.0154,9.7767,0.6628,-1.1304,-0.4058
2695,1089,903,34.301,33.761,0.0287,0.0398,9.7717,-0.485,0.0435,-0.5582
2700,1086,909,34.36,33.806,-0.0642,0.0573,9.7892,-0.4012,-0.5399,0.4391
2705,1091,901,34.395,33.91,-0.0246,0.026,9.8761,0.1875,-0.4402,0.1265
2710,1084,902,34.357,33.808,-0.0214,-0.0279,9.9243,-0.9152,0.1769,0.2919
2715,1076,896,34.377,33.844,-0.0476,-0.0207,9.8803,-0.257,-0.0543,-0.9875
2720,1078,895,34.41,33.926,-0.0376,0.0845,9.7501,0.3474,0.1418,0.8074
2725,1067,895,34.362,33.801,-0.0053,-0.0056,9.9034,-0.1831,-0.4587,0.0174
2730,1070,896,34.41,33.902,-0.0327,0.0354,9.8802,1.0833,0.0233,-0.2531
2735,1071,895,34.402,33.854,0.0623,-0.0672,9.7377,-0.0986,0.2084,-0.1661
2740,1071,890,34.34,33.796,0.0276,0.0079,9.8163,0.9174,-0.5198,0.8938
2745,1066,883,34.273,33.842,-0.0307,0.026,9.806,-0.7215,0.0411,-0.7273
2750,1062,890,34.305,33.869,-0.0381,-0.0141,9.8531,-0.8256,0.3949,0.8867
2755,1050,883,34.399,33.934,-0.0373,0.0267,9.858,0.3311,0.7456,0.7365
2760,1047,879,34.347,33.812,0.0123,-0.0653,9.761,0.9567,-0.172,-0.2024
2765,1047,877,34.384,33.945,0.009,0.0553,9.6825,-0.1089,0.1982,0.4488
2770,1041,873,34.379,33.866,-0.122,0.0175,9.8135,-0.2066,-0.3352,0.056
2775,1038,879,34.356,33.917,-0.0951,-0.037,9.8404,-0.0592,0.0809,0.2051
2780,1029,874,34.337,33.847,-0.0298,-0.0162,9.9042,0.2739,-0.5749,0.189
2785,1026,871,34.393,33.883,-0.0634,-0.0091,9.914,0.9353,-0.7108,-0.3407
2790,1019,873,34.368,33.898,0.0087,-0.0157,9.7866,0.6286,-0.3108,0.0355
2795,1019,875,34.381,33.881,0.0662,-0.0293,9.8214,-0.1293,-0.3632,0.3933
2800,1013,861,34.395,33.947,0.0288,-0.0437,9.8384,0.1516,1.1527,-0.1198
2805,1006,870,34.415,33.894,0.0332,0.09,9.8384,-0.5361,0.1136,-0.0301
2810,999,862,34.42,33.749,-0.0453,0.0123,9.8437,-0.0922,-0.8501,-0.2859
2815,992,866,34.263,33.861,0.0203,0.07,9.7876,-0.4905,-0.4867,0.5933
2820,992,860,34.366,33.82,-0.0403,-0.0215,9.8571,-0.1248,-0.2696,-0.1944
2825,976,858,34.393,33.846,0.0985,0.0565,9.847,-0.1197,0.327,0.1824
2830,969,855,34.382,33.8,-0.0227,-0.0374,9.9037,0.1746,0.3946,0.3894
2835,954,855,34.366,33.878,-0.0516,-0.0508,9.7632,0.0364,0.0232,0.7874
2840,954,852,34.356,33.949,-0.0678,0.0082,9.8107,0.2074,-0.1787,-0.5562
2845,939,854,34.399,33.834,0.0084,0.0686,9.858,0.5941,0.1628,0.386
2850,947,853,34.331,33.902,-0.0616,-0.0086,9.8774,-0.4536,-0.3197,0.0671
2855,926,848,34.38,33.751,-0.0369,0.0201,9.7799,0.438,-0.5689,0.8484
2860,917,851,34.287,33.827,-0.038,0.0837,9.7813,-0.4584,0.8882,0.8295
2865,916,842,34.388,33.807,0.1024,0.0421,9.8137,1.2949,-0.4,0.0888
2870,900,846,34.425,33.846,0.0277,-0.0241,9.7821,-0.264,-0.8606,-0.4814
2875,892,836,34.316,33.99,-0.0469,0.0949,9.7321,0.5743,1.4388,0.449
2880,883,843,34.326,33.892,-0.0221,0.0623,9.7695,-0.0289,-0.35,-1.1598
2885,871,837,34.344,33.857,0.0276,0.0156,9.8772,-0.0304,1.3825,-0.0241
2890,861,841,34.421,33.784,0.013,0.0639,9.7881,-0.1224,0.3898,0.2819
2895,853,834,34.276,33.854,-0.0075,0.0382,9.8371,-0.6623,-0.4566,0.2147
2900,850,836,34.345,33.9,-0.0919,-0.013,9.7806,-0.8298,0.3715,-0.306
2905,841,827,34.368,33.823,-0.0236,-0.0138,9.8569,-0.0404,0.4506,0.3068
2910,831,830,34.38,33.865,0.0076,-0.0354,9.8399,-0.0435,-0.1468,0.3945
2915,818,823,34.367,33.822,0.0619,-0.0842,9.7466,-0.6818,0.0179,0.0283
2920,827,823,34.43,33.905,0.0619,-0.0853,9.8009,0.2118,-0.2985,0.1106
2925,809,814,34.431,33.876,-0.0154,0.0204,9.8577,1.0075,-0.0717,-0.2146
2930,794,814,34.354,33.937,-0.0239,0.0125,9.7794,-0.051,-0.5405,-0.1379
2935,795,809,34.284,33.861,0.0828,-0.0318,9.7361,-0.3122,-0.3587,1.1807
2940,782,802,34.406,33.811,0.0209,0.0007,9.7248,-0.0645,-0.1409,-0.7783
2945,782,800,34.404,33.869,0.0634,0.0021,9.8399,0.0976,-0.4378,0.6145
2950,776,796,34.384,33.839,-0.0396,-0.0144,9.8651,-0.4121,-0.0174,0.1602
2955,769,792,34.443,33.86,-0.0186,0.0349,9.7885,-0.8812,0.0539,0.239
2960,770,788,34.358,33.861,0.0789,-0.0495,9.8006,1.1938,0.5898,0.139
2965,754,778,34.332,33.752,0.0136,0.0676,9.8146,-0.9307,0.1376,0.2151
2970,755,780,34.296,33.741,-0.0612,-0.0221,9.8816,0.5564,0.3649,0.0132
2975,755,768,34.32,33.845,-0.0195,-0.0392,9.8402,1.1331,-0.6573,-0.9073
2980,746,769,34.38,33.849,-0.0695,0.0003,9.8945,-0.3437,0.1672,-1.036
2985,743,755,34.332,33.907,0.0457,-0.0092,9.7534,0.6331,0.355,0.8384
2990,747,761,34.347,33.943,-0.0335,-0.0256,9.8515,0.7433,-0.4181,0.9987
2995,741,748,34.357,33.903,-0.0971,0.0089,9.8259,-0.8858,0.232,-0.254
3000,743,736,34.352,33.906,0.1032,-0.0153,9.8154,0.4256,0.5565,-0.1009
3005,747,737,34.421,33.804,-0.0782,-0.0646,9.8024,0.8716,-0.6874,-0.6939
3010,747,731,34.438,33.855,-0.0133,-0.0571,9.8315,-0.6688,0.1738,0.1551
3015,759,726,34.369,33.886,-0.0012,0.0381,9.8969,-1.2058,-1.0915,-0.2432
3020,753,726,34.357,33.868,-0.0126,0.0532,9.7901,-0.1992,0.5489,-0.2921
3025,754,709,34.335,33.902,-0.0519,0.0417,9.8036,0.5476,0.779,-0.0597
3030,754,710,34.35,33.92,-0.0577,0.009,9.7598,-0.6428,0.4229,-0.6669
3035,774,705,34.262,33.855,-0.0312,-0.0032,9.7986,0.659,-0.3106,0.2721
3040,774,700,34.327,33.947,0.0848,-0.0059,9.9288,-1.0696,-0.4085,-0.9834
3045,781,689,34.397,33.857,0.0445,0.0128,9.7887,0.5293,-0.0345,0.2525
3050,790,684,34.45,33.933,-0.0459,-0.022,9.856,-0.0904,-1.1584,0.2726
3055,784,683,34.455,33.841,-0.0566,-0.0458,9.8043,0.1444,0.2166,-0.2016
3060,805,671,34.474,33.897,-0.0088,0.1053,9.819,0.3108,-0.1843,-0.7964
3065,808,675,34.331,33.907,-0.0079,-0.0211,9.8032,-0.1267,0.3681,0.0246
3070,823,665,34.438,33.908,0.0126,0.0512,9.8491,-0.0525,0.141,0.2783
3075,833,656,34.359,33.943,0.0161,-0.0411,9.8843,-0.1036,0.1029,0.3269
3080,836,651,34.357,33.853,0.0896,0.077,9.8344,-0.1578,0.2452,-0.5949
3085,851,655,34.334,33.837,0.0359,0.0081,9.8414,1.0374,-0.102,-0.0322
3090,860,647,34.361,33.868,-0.0317,-0.003,9.7953,0.3084,-1.2462,0.4689
3095,868,650,34.224,33.961,-0.0424,-0.031,9.7576,-0.4538,-0.1431,-0.2115
3100,880,644,34.363,33.852,-0.0062,-0.0122,9.798,0.6784,0.0439,-0.4696
3105,893,638,34.362,33.855,-0.0665,-0.0081,9.8654,0.3375,-0.191,-0.0373
3110,896,637,34.401,33.818,-0.0093,0.0545,9.8259,0.5195,-0.5771,-0.3622
3115,914,641,34.424,33.959,-0.024,0.0221,9.8854,-0.0186,0.0219,0.0937
3120,932,638,34.416,33.772,-0.0205,-0.0486,9.8215,0.4925,-0.0142,0.6121
3125,946,637,34.383,33.884,0.0897,0.0245,9.8372,0.3727,-0.045,-0.1192
3130,954,640,34.353,33.81,-0.0709,0.0267,9.9273,0.0939,0.0022,0.4403
3135,957,639,34.424,33.953,-0.021,-0.0172,9.7751,0.0666,-0.6956,0.4058
3140,989,642,34.382,33.837,-0.0167,0.0919,9.796,-0.3879,0.0048,-0.1277
3145,992,638,34.337,33.782,0.081,0.1007,9.8164,0.1599,0.4022,-0.5872
3150,1001,642,34.353,33.945,0.1371,0.0085,9.8091,-0.1289,0.1533,0.0846
3155,1013,640,34.302,33.821,0.0287,0.0197,9.7335,-0.3479,-0.4105,-0.0364
3160,1023,642,34.364,33.905,-0.0176,-0.0354,9.7765,1.0617,-0.2026,-0.4106
3165,1034,642,34.373,33.892,-0.0055,0.0382,9.8017,0.0516,0.6914,-0.0952
3170,1055,646,34.349,33.903,0.0027,-0.0075,9.8329,-0.5561,-0.1641,0.1311
3175,1064,657,34.37,33.911,-0.0808,-0.0686,9.8522,0.0939,-0.4095,0.4531
3180,1070,651,34.366,33.871,0.1144,0.0729,9.7605,0.123,0.2124,0.0158
3185,1090,658,34.309,33.862,-0.0027,0.0604,9.8913,-0.157,-0.2142,0.4818
3190,1093,664,34.434,33.816,-0.0857,0.0002,9.7603,0.2676,0.0275,0.3759
3195,1103,670,34.406,33.826,0.0078,-0.1097,9.8961,0.1438,0.491,-0.3781
3200,1109,671,34.295,33.801,0.0184,-0.0505,9.7855,-0.238,-0.5099,-0.887
3205,1115,682,34.32,33.815,0.0299,-0.0618,9.8184,0.2647,-0.7139,0.0607
3210,1131,686,34.439,33.868,0.0275,0.0036,9.8577,0.6591,0.489,0.2935
3215,1130,696,34.362,33.891,-0.0514,0.0049,9.7985,0.8172,-0.4516,0.0181
3220,1142,702,34.33,33.861,0.0014,-0.0836,9.7506,0.1998,-0.4119,0.2596
3225,1146,709,34.381,33.814,-0.0141,0.0704,9.6683,0.2401,0.1971,1.0354
3230,1149,716,34.339,33.819,0.0169,0.0128,9.8032,0.4637,0.0121,0.4873
3235,1160,714,34.434,33.998,-0.1042,-0.0069,9.8546,0.4383,-0.0178,-0.1001
3240,1160,723,34.409,33.888,-0.0244,-0.0225,9.8288,-0.3159,-0.0689,0.0081
3245,1175,730,34.346,33.837,-0.0395,0.0787,9.8516,0.5937,-0.2153,-1.2396
3250,1175,748,34.349,33.92,0.1153,-0.0122,9.8385,1.0147,-0.9389,-0.754
3255,1180,752,34.372,33.897,0.0063,-0.004,9.752,-0.3547,-0.254,-0.1801
3260,1180,759,34.295,33.913,-0.0015,0.1025,9.769,-0.0966,0.3344,0.4054
3265,1182,767,34.429,33.885,0.0445,-0.0692,9.741,0.0336,0.62,0.4144
3270,1186,773,34.409,33.859,0.0365,-0.0291,9.8143,-0.2343,0.4322,0.0566
3275,1182,785,34.457,33.815,0.0036,0.0475,9.6857,-0.4911,0.3791,-0.1387
3280,1197,796,34.479,33.853,-0.0134,0.0077,9.7677,0.1852,-0.7975,0.0431
3285,1186,802,34.362,33.826,0.0181,-0.0362,9.7368,0.0345,0.3413,0.6637
3290,1193,810,34.326,33.827,0.0501,0.0673,9.8823,-0.4404,-0.4831,-0.1768
3295,1180,817,34.375,33.868,-0.0565,0.0797,9.8411,-0.5151,0.1795,-0.2513
3300,1181,822,34.396,33.94,0.0687,-0.0453,9.9075,-0.3295,-0.1898,-1.1698
3305,1201,834,34.36,33.854,-0.0606,0.0465,9.8385,-0.5738,0.3967,0.0245
3310,1176,840,34.387,33.899,-0.0197,0.0125,9.7338,0.1604,-0.1907,0.0027
3315,1172,842,34.446,33.866,0.0415,0.0154,9.8092,0.2565,-0.3945,0.7152
3320,1186,846,34.389,33.884,0.0714,0.0082,9.7,0.0641,-0.0199,-0.8516
3325,1179,859,34.392,33.886,-0.0064,0.0684,9.741,0.507,0.5663,0.5289
3330,1183,862,34.383,33.797,-0.0276,0.0751,9.8496,0.5744,0.0922,0.1996
3335,1165,868,34.348,33.931,-0.0599,-0.0916,9.8151,-0.8615,-0.7309,-0.2571
3340,1174,874,34.312,33.847,-0.1535,0.0071,9.8147,0.1566,-0.1403,0.1052
3345,1173,877,34.409,33.892,0.075,-0.045,9.7449,0.7636,-0.027,0.4113
3350,1172,881,34.327,33.804,-0.0112,-0.0284,9.8071,-0.2653,-0.6565,0.6503
3355,1162,890,34.412,33.863,0.0686,0.0206,9.8015,-0.4709,-0.4373,-0.6299
3360,1163,892,34.293,33.783,-0.0614,-0.0244,9.8004,-0.9664,0.0101,-0.3337
3365,1160,896,34.374,33.872,0.0456,0.0198,9.8186,0.4632,0.857,-0.5882
3370,1156,904,34.399,33.881,-0.0493,0.0184,9.7988,0.432,0.4724,-0.2726
3375,1152,902,34.319,33.86,-0.021,-0.0061,9.7689,0.0483,0.5804,0.216
3380,1147,907,34.386,33.931,-0.0042,0.0243,9.8096,-0.0012,0.6419,-0.204
3385,1143,910,34.364,33.828,-0.0484,0.0228,9.8105,1.1015,-0.7011,1.1491
3390,1138,914,34.376,33.813,-0.023,-0.0229,9.8089,0.5002,-0.2001,0.0237
3395,1127,911,34.396,33.959,-0.0287,0.1008,9.7682,-0.1381,0.773,-1.1063
3400,1125,918,34.446,33.876,0.0141,-0.057,9.8576,0.4809,0.218,0.6734
3405,1136,922,34.297,33.838,0.0547,-0.0551,9.8067,0.5349,0.107,0.4485
3410,1123,914,34.396,33.789,-0.0489,0.0078,9.7799,0.5988,0.1672,0.1366
3415,1123,923,34.334,33.876,-0.0621,-0.1275,9.7964,0.7866,0.016,0.0781
3420,1127,918,34.309,33.971,0.0785,0.0614,9.8971,0.1238,0.194,-0.3363
3425,1115,917,34.489,33.896,-0.0285,0.0358,9.7852,0.4005,0.5009,0.2212
3430,1110,920,34.354,33.781,0.0024,0.0318,9.8233,-0.5668,0.5415,-0.2979
3435,1108,925,34.337,33.83,-0.0446,0.0418,9.7378,-0.06,0.278,-0.7485
3440,1114,919,34.287,33.858,-0.0463,0.0543,9.8992,-0.337,0.0744,-0.1116
3445,1108,918,34.395,33.862,-0.0187,-0.0122,9.8637,0.6111,0.3029,-0.0944
3450,1101,920,34.439,33.853,-0.0221,0.09,9.7652,-0.5764,-0.168,-0.9799
3455,1097,920,34.38,33.861,-0.0204,0.0282,9.7872,-0.4396,0.9052,-0.5026
3460,1108,918,34.369,33.85,0.0055,-0.0543,9.8653,-0.3351,0.2637,-1.2353
3465,1098,917,34.393,33.953,-0.006,-0.0642,9.7363,-0.0332,1.0708,0.4253
3470,1106,913,34.435,33.822,-0.0174,-0.013,9.7546,-0.4201,-0.1067,-0.3946
3475,1092,908,34.438,33.802,0.0285,-0.0292,9.8192,-0.609,-0.4788,-0.7829
3480,1091,908,34.431,33.804,-0.0464,-0.0113,9.7426,0.9776,-0.1393,-0.7481
3485,1089,911,34.408,33.958,-0.0956,-0.0157,9.818,0.32,0.6067,0.3418
3490,1093,905,34.336,33.83,-0.0382,0.041,9.7832,0.6203,0.0973,-0.2405
3495,1081,904,34.313,33.755,-0.0653,-0.0991,9.7776,-0.6795,0.8681,0.2552
3500,1090,901,34.396,33.83,0.0153,-0.0215,9.7815,-0.3788,-0.5698,-0.4283
3505,1077,901,34.378,33.859,0.0622,-0.0454,9.8283,-0.4244,-0.5996,-0.4552
3510,1084,901,34.307,33.864,-0.0008,0.0497,9.8389,0.5352,-0.0122,-0.4568
3515,1076,893,34.464,33.909,0.0121,-0.0565,9.7864,0.7133,0.6748,0.2448
3520,1079,892,34.443,33.966,0.0128,0.0101,9.8213,0.1661,0.151,0.0864
3525,1076,894,34.415,33.913,-0.0614,0.0305,9.8377,0.476,-0.3396,-0.5511
3530,1065,890,34.352,33.906,0.0026,0.0248,9.8103,0.6675,0.0613,0.4561
3535,1064,886,34.307,33.913,-0.0315,0.0269,9.7618,1.1077,-0.2079,-0.6191
3540,1058,887,34.431,33.835,0.0547,-0.0511,9.772,-0.4019,0.4948,-0.2053
3545,1063,883,34.285,33.867,-0.0785,-0.0346,9.8562,0.172,-0.0433,-0.0531
3550,1054,874,34.353,33.868,0.0457,0.044,9.8777,0.2981,-0.0555,-0.5479
3555,1051,875,34.257,33.884,0.024,0.0456,9.7656,-0.1743,0.4005,-0.1694
3560,1045,874,34.334,33.861,-0.0219,-0.0542,9.816,-0.8247,-0.4967,-0.7432
3565,1040,871,34.347,33.868,-0.0168,-0.0273,9.8571,-0.0028,0.1731,-0.3686
3570,1032,874,34.329,33.77,0.0072,-0.0562,9.7818,-0.5403,0.9458,-0.1822
3575,1029,866,34.415,33.92,0.0005,-0.0029,9.7978,0.4593,0.7448,0.2007
3580,1023,870,34.419,33.913,0.0167,0.0246,9.8341,0.752,0.2122,0.3496
3585,1018,866,34.4,33.813,-0.0051,0.031,9.7742,-0.7854,-0.0003,-0.1559
3590,1013,868,34.313,33.85,0.0718,-0.0538,9.7875,-0.4892,1.1945,0.668
3595,1008,860,34.416,33.837,0.0961,0.089,9.7872,-0.7742,0.2856,0.2234
3600,1003,863,34.392,33.888,0.0205,-0.0227,9.796,0.0306,-0.9167,0.2794
3605,993,868,34.383,33.882,0.0194,-0.0011,9.7652,-0.2666,0.4509,-0.1589
3610,984,862,34.37,33.88,-0.0461,-0.0354,9.7301,-0.8888,0.9184,-0.581
3615,985,860,34.41,33.902,-0.0787,-0.0821,9.9137,0.0079,-0.8827,-0.0916
3620,973,855,34.323,33.916,-0.035,-0.0652,9.6754,0.5202,0.5962,0.2217
3625,960,854,34.37,33.885,0.0434,-0.0402,9.7407,-0.2783,-0.7126,1.3654
3630,947,858,34.386,33.83,-0.098,0.0019,9.8269,0.5511,0.4902,0.1639
3635,950,853,34.404,33.811,-0.031,0.1177,9.8593,-0.3848,-0.0894,0.0496
3640,935,853,34.325,33.902,0.0514,-0.0124,9.7917,0.3896,0.5686,-0.8649
3645,925,854,34.355,33.949,-0.0277,0.0033,9.796,-0.5407,-0.5753,0.3525
3650,918,852,34.434,33.876,-0.0022,0.0386,9.7137,0.0838,-0.4591,0.4708
3655,911,847,34.339,33.881,0.0329,-0.0352,9.7561,-0.4886,-0.4348,0.8104
3660,905,846,34.297,33.884,0.0363,0.1135,9.8091,0.3014,-0.1372,-0.6318
3665,892,843,34.333,33.878,0.0772,0.0154,9.8375,0.3147,-0.4361,0.2283
3670,880,839,34.376,33.862,-0.0455,0.1253,9.8608,0.0768,0.3309,-0.1526
3675,879,838,34.404,33.893,0.048,-0.0551,9.7608,-0.1829,0.6369,0.1676
3680,871,837,34.371,33.895,0.0242,-0.0474,9.8945,-0.9724,0.5798,0.0493
3685,863,835,34.41,33.846,0.0826,-0.0314,9.6677,0.7586,0.3358,-0.5329
3690,849,837,34.385,33.925,-0.0415,0.0235,9.8164,-0.7747,0.0532,0.5071
3695,846,829,34.439,33.835,-0.0578,-0.0593,9.8311,-0.915,-0.1759,-0.1982
3700,824,835,34.42,33.917,-0.052,0.0248,9.757,-0.2045,-0.5646,-0.3511
3705,825,823,34.329,33.875,0.0038,0.0005,9.8026,1.0324,-0.3182,-0.0471
3710,814,819,34.489,33.899,-0.0315,-0.0414,9.7718,-0.477,0.4428,0.8213
3715,810,814,34.348,33.901,0.0173,-0.0609,9.91,0.1106,-0.6521,0.376
3720,791,812,34.37,33.873,0.0089,0.0414,9.8803,0.0074,0.1093,0.0819
3725,789,810,34.447,33.959,0.0157,0.1302,9.8786,-0.2139,-0.1666,-0.2111
3730,783,808,34.384,33.823,0.0481,-0.0133,9.7809,0.1145,-1.7896,-0.288
3735,787,802,34.365,33.8,0.0855,-0.0121,9.8904,0.1193,0.0961,-0.4712
3740,779,798,34.4,33.837,-0.0021,-0.014,9.8256,0.0841,0.5042,0.3374
3745,774,797,34.282,33.908,-0.0086,0.0188,9.8348,0.1495,0.3383,0.3721
3750,760,786,34.419,33.79,0.0501,0.1294,9.8068,0.3841,0.8792,1.0473
3755,763,784,34.361,33.823,-0.1362,-0.121,9.7677,-0.5062,-0.7394,-0.3514
3760,765,774,34.385,33.871,-0.004,-0.0382,9.8005,-0.0278,-0.1685,-0.5943
3765,756,772,34.462,33.888,-0.0644,-0.0378,9.7691,-0.1193,0.0843,-0.6455
3770,747,769,34.393,33.85,0.0121,-0.067,9.7813,0.7708,0.1932,-0.0754
3775,753,766,34.405,33.857,0.0535,0.0467,9.7746,-0.1227,-0.0045,0.3863
3780,757,765,34.35,33.969,-0.0775,0.0375,9.8514,0.3158,-0.6906,-0.4694
3785,755,749,34.347,33.928,-0.0486,-0.0336,9.8266,0.1551,0.5195,0.4207
3790,747,746,34.456,33.894,0.035,-0.03,9.7915,-0.5783,-0.0117,-0.4649
3795,747,733,34.425,33.882,-0.0656,0.0518,9.7888,0.01,0.4659,0.4597
3800,757,738,34.342,33.879,-0.029,-0.0246,9.8105,-1.3346,0.1251,0.4547
3805,749,734,34.291,33.945,0.0776,-0.019,9.742,0.5306,-0.0772,0.9382
3810,757,718,34.319,33.985,0.0071,0.0472,9.7454,0.4577,-0.5595,0.3539
3815,764,714,34.411,33.822,-0.0243,-0.0086,9.8172,-1.1857,0.7269,0.3272
3820,762,711,34.334,33.902,0.0022,0.0278,9.7575,0.7942,0.2359,0.648
3825,759,700,34.346,33.894,-0.0398,0.0521,9.7669,0.5117,-1.2962,-0.0279
3830,775,705,34.412,33.813,0.0148,-0.0933,9.7634,-0.157,-0.039,-0.0492
3835,778,692,34.32,33.826,-0.0773,0.0456,9.7882,-0.2687,-0.7016,-0.1467
3840,784,692,34.425,33.853,-0.013,0.0834,9.8625,0.1527,0.4277,-0.2845
3845,789,678,34.336,33.821,0.0079,0.0006,9.8443,0.1635,0.2899,0.1199
3850,806,680,34.344,33.792,-0.0406,-0.0523,9.6763,-0.6507,0.1291,0.3694
3855,815,671,34.324,33.808,-0.067,-0.0188,9.8417,-0.1762,0.438,-0.1994
3860,816,667,34.379,33.882,-0.0377,0.0301,9.8286,-0.3124,-0.161,0.4342
3865,827,664,34.499,33.877,0.0134,-0.0071,9.7856,-0.3528,0.3729,-0.6405
3870,837,661,34.429,33.884,-0.0082,0.0394,9.8133,0.3774,0.3422,-0.8016
3875,850,654,34.363,33.927,-0.0027,0.0794,9.8112,-0.9369,-0.549,-0.1275
3880,857,657,34.37,33.923,-0.1218,-0.0595,9.834,0.4283,1.8115,-0.8454
3885,864,655,34.389,33.961,0.0694,-0.0163,9.7868,0.5362,0.0865,0.1505
3890,876,639,34.463,33.893,0.0608,0.0821,9.8876,-0.4733,-0.027,0.5328
3895,891,646,34.422,33.77,-0.0532,-0.0826,9.738,0.4038,-0.4611,0.1037
3900,912,640,34.345,33.943,-0.1175,-0.0327,9.8476,-0.4917,1.4821,-0.0714
3905,914,638,34.393,33.805,-0.0418,0.0626,9.8402,-0.0543,-0.6888,0.7067
3910,936,642,34.405,33.906,-0.031,0.1294,9.8481,-0.8918,0.3438,-0.3244
3915,944,635,34.364,33.927,-0.0145,-0.0396,9.8337,-0.1855,0.0206,-0.4801
3920,959,637,34.403,33.9,-0.0447,0.0691,9.8091,-0.0953,0.0843,0.8618
3925,968,635,34.371,33.897,-0.0264,0.0108,9.8239,0.0872,0.3823,0.431
3930,973,635,34.426,33.825,-0.0156,0.0161,9.7965,0.468,-0.5839,0.1734
3935,996,636,34.358,33.894,-0.0384,-0.0363,9.761,0.1964,0.3679,-0.7125
3940,1005,639,34.424,33.923,0.0139,0.0218,9.7758,-0.0589,0.4473,0.6535
3945,1014,642,34.415,33.868,0.0479,0.0401,9.8637,-0.6261,0.6787,-0.2334
3950,1028,639,34.4,33.935,-0.0375,0.0041,9.8246,-0.8461,-0.4259,-0.2614
3955,1033,645,34.336,33.895,0.0269,-0.0289,9.8234,-0.0861,0.0156,0.4821
3960,1042,644,34.468,33.868,-0.0557,-0.043,9.749,-0.0652,-0.2769,-0.03
3965,1057,654,34.356,33.774,-0.0965,-0.0368,9.8234,-0.5006,-0.4002,-0.1473
3970,1070,655,34.357,33.927,-0.0495,-0.0322,9.9006,1.0342,-0.098,-0.5648
3975,1085,663,34.317,33.864,0.0266,-0.0785,9.827,0.7706,-0.6784,0.0296
3980,1084,661,34.326,33.885,-0.0643,0.068,9.8023,0.3713,0.1392,-0.9145
3985,1099,671,34.335,33.966,0.016,-0.0062,9.785,0.0207,0.0256,0.2651
3990,1111,676,34.422,33.919,0.0149,0.0202,9.8428,0.5562,-0.8801,0.459
3995,1124,677,34.393,33.881,0.0179,0.0631,9.7731,0.1907,0.1992,0.3271
4000,1142,687,34.506,33.866,0.0653,0.0101,9.7996,0.182,0.0028,0.7259
4005,1128,694,34.505,33.825,-0.0572,0.1063,9.8074,-0.422,-0.3952,0.1366
4010,1145,695,34.278,33.881,-0.0075,0.0109,9.7917,-0.3652,0.2147,0.2247
4014,1142,705,34.421,33.799,0.0391,-0.0128,9.8448,0.0292,0.6099,-0.4219
4019,1146,707,34.338,33.746,-0.04,0.0123,9.819,0.2062,0.1209,-0.3639
4025,1157,719,34.382,33.887,0.0191,0.0197,9.8325,-0.5518,0.008,0.1801
4030,1164,726,34.409,33.854,-0.042,-0.0148,9.8304,-0.3462,0.0579,0.3926
4035,1172,725,34.24,33.952,-0.0453,-0.0088,9.8578,0.3573,-0.5585,-0.8989
4040,1175,739,34.304,33.78,-0.0057,0.0051,9.808,-0.2594,0.2405,0.0745
4045,1182,752,34.458,33.91,0.0279,0.0475,9.7909,-0.4823,1.1118,0.0214
4050,1181,757,34.414,33.917,0.0636,-0.0862,9.8745,0.159,-0.3271,0.5446
4054,1174,768,34.413,33.907,0.0175,0.0521,9.8274,0.0231,-0.8092,0.4546
4059,1185,771,34.431,33.799,0.0043,-0.038,9.7467,0.1434,0.0917,0.6206
4065,1193,782,34.195,33.914,0.0701,0.026,9.8368,-0.0148,0.3784,0.933
4070,1186,788,34.308,33.881,-0.0698,0.036,9.8679,-0.1386,0.6141,-0.3401
4075,1188,799,34.356,33.845,0.0269,-0.0974,9.8508,-1.1345,-0.8078,0.5636
4080,1195,805,34.297,33.868,0.0023,0.0446,9.8106,0.6676,-0.1479,-0.1402
4085,1189,815,34.295,33.867,-0.0455,-0.0006,9.75,1.052,-0.1648,-0.5658
4090,1187,823,34.35,33.827,-0.0008,0.0743,9.8167,-0.4405,0.1951,-0.7187
4094,1186,833,34.381,33.924,0.0518,0.0566,9.8253,-0.672,0.2286,1.0777
4100,1191,839,34.353,33.85,0.0003,-0.018,9.8504,-0.0434,0.4029,1.5627
4105,1183,836,34.41,33.88,0.0773,0.0704,9.8835,-0.0338,0.2664,0.7074
4110,1184,849,34.378,33.823,0.0326,-0.0077,9.7624,-0.4651,-0.6575,0.0459
4115,1185,852,34.4,33.904,0.0725,0.0168,9.7792,1.0383,0.8754,-0.021
4120,1177,863,34.439,33.928,0.0398,-0.0472,9.8139,1.1425,0.3201,-0.5159
4125,1164,873,34.386,33.949,0.0676,0.0374,9.8062,0.4515,-0.8011,0.3015
4130,1174,871,34.394,33.795,0.0704,0.0239,9.7834,-0.5179,0.6438,0.607
4135,1176,881,34.331,33.816,0.0345,-0.0863,9.7751,0.0373,-0.5349,0.2653
4140,1165,887,34.357,33.852,-0.03,-0.0893,9.8624,-0.4898,-0.3746,0.674
4145,1165,887,34.38,33.819,0.033,-0.0888,9.7766,0.6271,0.1134,0.156
4150,1170,896,34.347,33.851,0.0271,0.0004,9.8451,-0.2507,-0.0835,0.1806
4155,1161,896,34.35,33.878,0.0625,0.0091,9.9179,1.1219,-0.5746,-0.2387
4160,1155,899,34.327,33.879,-0.0068,-0.0451,9.8218,0.7657,0.4667,-0.2243
4165,1157,898,34.331,33.927,0.0109,-0.0155,9.7692,-0.08,-0.8432,-0.5835
4170,1138,904,34.387,33.939,0.0189,0.0212,9.8554,0.2959,0.2287,-0.206
4175,1153,908,34.416,33.925,-0.055,-0.0043,9.8429,-0.4898,1.1903,0.261
4180,1127,913,34.405,33.939,-0.0563,0.0089,9.9103,0.8552,0.9125,0.5439
4185,1138,914,34.439,33.803,-0.0167,0.0267,9.8652,0.7437,-0.1191,-1.3392
4190,1136,917,34.38,33.934,0.0654,-0.0282,9.7678,0.3705,0.431,-0.3914
4195,1134,913,34.46,33.826,0.0372,-0.0077,9.737,-0.0144,0.6958,0.5173
4200,1124,918,34.463,33.873,-0.0908,-0.0327,9.7496,-0.3132,0.3326,0.4309
4205,1123,919,34.42,33.979,-0.0486,-0.0279,9.8268,-0.1421,0.2778,0.1821
4210,1117,923,34.434,33.819,-0.0108,-0.0071,9.8287,0.7094,0.5745,0.2717
4215,1117,919,34.322,33.983,-0.1078,-0.0792,9.7401,-0.1794,0.3996,-0.0161
4220,1116,918,34.398,33.899,0.0107,-0.0011,9.8014,-0.0688,0.1362,-0.3424
4225,1118,924,34.398,33.94,-0.0593,0.082,9.7876,-0.2718,0.0224,0.1709
4230,1115,918,34.388,33.917,0.0544,-0.0145,9.8219,-0.1778,-0.6187,-0.931
4235,1111,923,34.436,34.004,0.0447,-0.0404,9.8758,0.3696,-0.0912,-0.9902
4240,1110,924,34.4,33.922,-0.0227,0.0703,9.9123,0.0915,0.1169,0.1897
4245,1100,918,34.398,33.744,-0.0161,-0.1083,9.8676,-0.1397,-0.8846,-0.7337
4250,1104,917,34.331,33.889,-0.0376,0.059,9.8297,0.492,-0.1199,-0.0848
4255,1092,915,34.386,33.79,-0.0385,-0.0073,9.8547,0.0568,0.1607,0.0517
4260,1097,914,34.362,33.872,-0.0143,-0.0549,9.8136,1.1867,0.5646,0.1395
4265,1088,912,34.341,33.876,-0.0338,-0.0292,9.8403,-0.4761,-1.1726,0.1589
4270,1093,911,34.435,33.758,-0.1215,0.0291,9.9043,-0.219,0.1372,1.2384
4275,1084,908,34.401,33.887,0.0293,-0.0354,9.8114,0.6263,0.3175,0.4908
4280,1095,906,34.486,33.891,-0.0099,-0.0188,9.8586,0.5368,-0.022,0.3259
4285,1093,909,34.394,33.929,0.0042,0.0609,9.8383,0.2312,-0.7075,-0.1609
4290,1089,901,34.46,33.998,0.0155,-0.0409,9.7045,0.4176,-0.2411,-0.7431
4295,1082,899,34.409,33.885,-0.037,0.073,9.8795,-0.0746,-0.4278,0.2006
4300,1079,901,34.458,33.859,0.0018,0.0613,9.7789,1.0604,-0.1446,0.5264
4305,1083,894,34.495,33.865,-0.0053,0.0532,9.8299,-0.0604,-1.0754,0.42
4310,1071,891,34.315,33.804,-0.0261,-0.0099,9.8166,0.2669,0.399,0.6814
4315,1072,894,34.332,33.908,0.0809,-0.1093,9.8408,0.083,0.1316,-0.391
4320,1070,891,34.395,33.878,0.0526,0.048,9.7896,0.1132,-0.5674,0.9988
4325,1067,889,34.352,33.83,-0.0556,-0.0331,9.8125,-0.2851,-0.0411,-0.3781
4330,1060,884,34.412,33.892,0.0522,0.0025,9.8152,0.0146,-0.3127,0.127
4335,1056,878,34.319,33.936,-0.1246,0.0157,9.8418,0.2846,0.2791,-0.0655
4340,1051,881,34.377,33.818,-0.0819,-0.0455,9.8412,0.4857,0.0549,-0.9561
4345,1051,876,34.399,33.917,0.008,0.1041,9.8225,0.1202,0.0754,-0.2252
4350,1049,885,34.494,33.818,0.0328,-0.0468,9.8062,0.6381,-0.3749,0.0655
4355,1043,877,34.354,33.885,-0.0897,0.0033,9.8305,0.4791,-0.3164,-0.4292
4360,1045,872,34.422,33.889,-0.0607,-0.0232,9.8939,-0.6059,-0.2404,0.3001
4365,1043,878,34.321,33.85,0.0243,0.0102,9.7904,0.0601,0.3192,-1.1017
4370,1038,875,34.445,33.848,0.0332,0.0568,9.7513,-0.4412,0.3752,0.7553
4375,1021,872,34.333,33.732,-0.0856,-0.0144,9.7688,0.3807,-0.3391,-0.0222
4380,1021,860,34.418,33.829,0.007,0.0179,9.8456,-0.1667,-0.5327,0.7996
4385,1010,865,34.428,33.945,-0.0553,0.0377,9.8427,-0.0361,-0.2286,0.5299
4390,1004,860,34.435,33.85,0.0597,0.0284,9.8362,-0.7045,-0.2516,-0.0407
4395,989,864,34.427,33.803,-0.0197,0.0117,9.8579,0.2939,0.4414,0.2692
4400,993,855,34.432,33.899,0.0286,-0.0549,9.7879,0.5908,-0.1399,-0.4569
4405,991,863,34.389,33.905,-0.0198,-0.0286,9.6985,-0.1174,-0.3162,-0.5142
4410,972,860,34.404,33.957,-0.0397,-0.0442,9.8037,0.2321,-0.3246,0.9961
4415,965,860,34.431,33.796,0.026,0.0047,9.8283,-0.2452,-0.3915,-0.2968
4420,958,859,34.351,33.891,-0.097,0.0369,9.8162,0.782,-0.5607,0.1702
4425,963,850,34.381,33.813,-0.0584,-0.0462,9.7905,0.0879,0.4598,0.5448
4430,942,851,34.357,33.857,0.011,-0.0032,9.8007,0.21,0.0005,0.1687
4435,933,854,34.449,33.925,0.0611,-0.0641,9.7454,-0.3247,0.1621,0.8133
4440,930,852,34.453,33.821,-0.0136,0.0044,9.8441,-0.1324,-0.3473,-0.4917
4445,921,846,34.379,33.856,0.0353,-0.0664,9.8482,-0.6418,0.2908,0.4091
4450,907,849,34.319,33.891,-0.1067,0.0152,9.7853,-0.3109,0.1216,-0.4153
4455,895,842,34.424,33.88,-0.0823,-0.0568,9.8903,0.4659,0.5579,-0.3168
4460,881,842,34.358,33.948,-0.026,0.0717,9.8009,0.7224,-0.2952,-0.6366
4465,876,838,34.389,33.909,-0.0223,-0.1124,9.7191,-0.3681,-0.5067,-0.4397
4470,864,842,34.433,33.889,-0.0016,-0.0148,9.8139,-0.5448,-0.1217,0.687
4475,866,837,34.43,33.894,0.0104,0.0052,9.9119,0.5661,0.9798,0.2307
4480,852,836,34.351,33.879,0.0465,0.004,9.806,-0.1996,-0.3608,0.2791
4485,845,831,34.324,33.957,0.022,-0.0497,9.8265,0.9609,0.4681,0.7628
4490,829,824,34.3,33.858,-0.0658,0.0104,9.8257,0.7578,0.3417,0.2679
4495,826,828,34.349,33.944,0.0225,0.0658,9.8248,0.4594,-0.5155,0.0461
4500,829,824,34.364,33.88,-0.0301,0.041,9.8162,-0.5014,0.2483,-0.9212
4505,802,815,34.368,33.888,-0.0087,0.035,9.8207,-0.0869,0.191,0.5277
4510,800,814,34.388,33.91,0.0212,0.0097,9.8474,0.0475,-0.4258,-0.9379
4515,799,810,34.324,33.982,0.0841,0.0374,9.8681,-0.4638,-0.1848,1.3819
4520,793,809,34.417,33.878,0.0408,-0.0222,9.7625,-0.4157,0.1224,-0.0748
4525,784,802,34.348,33.816,-0.0729,0.0726,9.8223,-0.6192,-0.5776,-0.4941
4530,774,801,34.386,33.904,0.0205,-0.047,9.763,0.0299,-0.1185,-0.5614
4535,766,794,34.44,33.903,-0.0099,0.0609,9.7838,0.3127,-0.0235,-0.6659
4540,761,785,34.289,33.807,0.0178,-0.0118,9.7012,-0.159,0.8189,-0.1941
4545,761,786,34.291,33.905,0.025,0.0728,9.85,0.1488,0.4687,-0.3826
4550,757,782,34.406,33.894,0.037,-0.1011,9.8283,0.0751,0.3285,-0.154
4555,757,774,34.351,33.932,-0.0123,-0.0621,9.7398,0.421,-0.164,0.8186
4560,750,769,34.419,33.913,-0.0321,-0.0135,9.7978,-0.0501,-1.0201,0.2237
4565,753,768,34.439,33.804,0.0277,0.0077,9.8302,-0.7543,0.3308,-0.6294
4570,745,758,34.385,33.826,-0.0144,-0.0186,9.8304,0.8413,0.2982,0.2859
4575,753,753,34.323,33.879,0.0128,-0.0169,9.8267,-1.2075,1.0144,0.8077
4580,750,748,34.362,33.943,0.0248,-0.0215,9.7769,-0.242,-0.0993,-0.3519
4585,745,740,34.507,33.873,0.0103,-0.032,9.7677,-0.0542,0.9539,-0.3155
4590,753,730,34.369,33.856,-0.077,0.1035,9.7872,-0.1485,-0.4184,-1.0485
4595,756,728,34.415,33.824,-0.057,0.0621,9.8665,-0.6946,-0.1174,-0.0059
4600,762,721,34.402,33.834,0.062,-0.045,9.7747,-0.1265,0.3845,0.297
4605,761,716,34.294,33.905,0.0384,-0.0109,9.8671,0.6658,-0.4846,-0.5175
4610,757,708,34.359,33.878,-0.0412,-0.0584,9.7547,0.0007,-0.0542,0.0786
4615,761,706,34.439,33.863,-0.0072,0.0127,9.8203,-0.0316,-0.2448,-0.3239
4620,770,700,34.305,33.971,0.0026,-0.0286,9.778,0.5919,-0.043,-0.6626
4625,769,693,34.424,33.922,0.0302,0.0803,9.7358,0.025,1.2259,-0.4494
4630,791,693,34.411,33.869,-0.0116,0.0995,9.871,-0.4763,-0.1898,-0.0966
4635,782,683,34.505,33.851,0.0185,0.0183,9.8284,0.1012,-0.1793,-0.6501
4640,795,679,34.325,33.871,0.0317,-0.0091,9.8492,0.6531,0.4483,0.1027
4645,804,675,34.339,33.908,-0.0986,-0.0295,9.8271,-0.3278,-0.7603,0.1646
4650,807,667,34.427,33.884,-0.0459,0.0197,9.8105,-0.1865,0.4583,-0.0545
4655,814,668,34.408,33.895,-0.0524,0.0819,9.8406,0.531,0.6889,0.1198
4660,829,661,34.412,33.962,0.0252,0.0071,9.8074,0.7207,0.0228,-0.2087
4665,844,651,34.386,33.857,0.0269,-0.0501,9.7844,0.1856,-0.5769,0.6219
4670,855,655,34.401,33.803,-0.0005,-0.0691,9.7879,-0.5179,0.4683,-0.1441
4675,866,650,34.419,33.875,0.0766,-0.0666,9.7937,0.125,-0.3725,1.0483
4680,876,644,34.346,33.926,-0.0476,-0.0196,9.7761,0.2422,0.2005,0.9881
4685,883,645,34.41,33.867,-0.0921,0.0771,9.7537,0.5134,-0.2864,-0.0833
4690,895,646,34.376,33.848,-0.0168,0.0851,9.8036,0.8688,0.2798,-0.3323
4695,913,642,34.384,33.928,-0.022,0.0504,9.8197,-0.6006,0.2222,-0.2517
4700,925,646,34.36,33.928,-0.0963,0.0052,9.7007,-0.5906,0.3011,-0.6706
4705,924,638,34.367,33.833,0.0087,0.1165,9.8647,-0.3974,-0.0978,-0.4297
4710,949,639,34.366,33.863,0.0635,-0.024,9.7948,0.6593,-0.1321,-0.4229
4715,964,638,34.434,33.913,-0.0221,0.0121,9.8385,-0.1396,0.641,-0.7369
4720,970,635,34.449,33.907,0.0034,0.0728,9.9175,0.3997,0.0232,0.144
4725,977,635,34.392,33.843,0.0104,0.0552,9.7734,0.24,0.301,0.9173
4730,996,637,34.366,33.841,0.025,0.0364,9.7484,-0.6782,-0.034,0.3651
4735,1008,644,34.286,33.865,0.0502,0.0242,9.838,-0.0489,-0.1061,-0.0556
4740,1015,643,34.43,33.904,0.0103,0.0602,9.7783,0.3131,0.1149,-0.5649
4745,1021,646,34.39,33.892,-0.0162,-0.022,9.6978,0.7868,0.2241,0.2782
4750,1046,648,34.439,33.875,0.0638,-0.0085,9.8147,0.253,0.1333,0.0208
4755,1055,646,34.368,33.867,0.0564,0.041,9.8541,0.0119,0.44,0.1271
4760,1066,654,34.316,33.906,0.0606,-0.0638,9.8143,-0.2807,-1.2353,1.3408
4765,1063,662,34.419,33.93,-0.0356,0.035,9.8636,-0.8785,0.8587,-0.0569
4770,1086,655,34.355,33.849,0.0239,0.0558,9.6991,0.5576,0.1875,-0.35
4775,1096,662,34.365,33.918,0.0277,-0.0332,9.8264,-0.2697,-0.5311,-0.0
4780,1104,672,34.527,33.774,-0.0204,-0.1088,9.8371,0.6099,0.7796,0.2265
4785,1108,679,34.4,33.869,0.0301,0.0667,9.8622,-0.1563,-0.4644,-0.5582
4790,1122,678,34.463,33.842,-0.0217,0.005,9.7894,0.1042,0.3947,-0.1012
4795,1137,687,34.36,33.833,-0.0009,-0.0724,9.7609,0.4954,0.0121,0.0302
4800,1141,696,34.406,33.914,-0.0188,-0.0031,9.81,-0.182,-0.1295,0.0715
4805,1148,702,34.372,33.872,-0.036,-0.0897,9.7693,-0.4622,-0.2807,-0.1261
4810,1153,706,34.369,33.921,0.0016,0.0109,9.8363,-0.3552,0.128,0.5877
4815,1158,713,34.303,33.914,0.0355,0.0118,9.7518,0.3813,-1.3693,-0.1032
4820,1161,722,34.336,33.92,0.0098,0.0084,9.8125,-0.564,0.8667,0.043
4825,1172,726,34.399,33.789,0.0334,-0.0219,9.8165,0.3653,0.0578,0.4013
4830,1167,739,34.308,33.949,-0.053,-0.0614,9.8691,0.2628,-0.5454,-0.4452
4835,1167,739,34.338,33.952,-0.0237,-0.0029,9.913,1.2758,-0.0111,-0.6176
4840,1169,759,34.464,33.888,-0.018,-0.005,9.7434,1.0659,0.1682,0.6313
4845,1178,765,34.401,33.995,-0.0104,0.1187,9.8009,0.7614,0.5394,-0.0658
4850,1179,771,34.461,34.0,0.0312,0.0024,9.808,-0.4558,-0.6087,-0.3404
4855,1189,777,34.322,33.98,-0.0519,0.0067,9.8162,0.075,-0.0449,-0.5647
4860,1185,788,34.405,33.922,0.0574,0.0827,9.7589,0.3127,-0.3485,0.2523
4865,1184,793,34.478,33.851,0.0453,0.0452,9.874,0.2762,-0.5065,0.0887
4870,1188,803,34.35,33.868,0.0015,0.0174,9.8109,-0.5332,-0.7829,-0.5344
4875,1192,806,34.407,33.843,-0.012,0.0393,9.8511,-0.1393,-0.5178,-0.1415
4880,1197,819,34.426,33.902,0.036,-0.0122,9.7795,-0.0463,0.2873,-0.3115
4885,1182,825,34.288,33.833,0.0337,-0.0336,9.7229,0.2172,-0.3595,0.8898
4890,1189,829,34.351,33.86,-0.0629,-0.0501,9.754,0.2358,0.0542,-0.4579
4895,1184,841,34.444,33.878,0.0192,-0.0892,9.7762,0.2218,0.2459,-0.4084
4900,1190,844,34.498,33.79,-0.0743,-0.007,9.7193,-0.1329,-0.565,0.3079
4905,1184,847,34.321,33.887,-0.0429,0.0307,9.7773,-0.0902,0.0177,0.255
4910,1172,858,34.398,33.868,-0.0746,0.0584,9.8102,-0.0482,-0.4643,-0.2715
4915,1169,867,34.336,33.874,0.0296,-0.0242,9.8263,0.6304,1.1126,-0.0484
4920,1172,868,34.489,33.937,0.0012,-0.0744,9.832,0.2498,-0.0493,-0.1121
4925,1167,871,34.392,33.857,0.022,-0.034,9.8057,0.3494,0.4934,-0.5094
4930,1167,878,34.425,33.88,0.0624,0.0487,9.7344,0.6192,0.0284,-0.3797
4935,1164,886,34.35,33.881,-0.0462,-0.0113,9.9091,0.4117,-0.3956,0.259
4940,1169,896,34.375,33.833,0.0191,0.0236,9.7847,-0.3444,-0.1832,-0.6553
4945,1159,896,34.413,33.928,0.0164,-0.006,9.829,0.4593,0.3689,0.7022
4950,1160,894,34.402,33.811,-0.005,-0.0734,9.7856,-0.6208,-0.014,0.0562
4955,1142,904,34.426,33.9,-0.0413,-0.0353,9.869,0.2369,-0.5951,0.2875
4960,1154,905,34.433,33.848,0.0718,-0.0875,9.8014,-0.072,0.0899,-0.4049
4965,1140,906,34.457,33.812,-0.0334,-0.0491,9.7385,-0.4005,0.6384,-0.0689
4970,1143,910,34.389,33.869,0.0137,-0.0662,9.7321,-0.6294,-0.2472,0.0995
4975,1141,914,34.404,33.862,-0.0372,0.0202,9.8559,0.0387,-1.0659,-0.6791
4980,1130,918,34.368,33.873,-0.001,-0.0075,9.7248,0.212,0.3832,2.0321
4985,1133,919,34.433,33.747,0.019,0.0066,9.8062,0.8137,0.3131,-0.1384
4990,1129,920,34.394,33.875,-0.0615,-0.0628,9.8086,1.1392,0.3725,0.4575
4995,1122,921,34.384,34.007,0.0812,-0.0497,9.7964,0.0902,0.4504,0.6059
5000,1126,924,34.371,33.806,0.0175,-0.0159,9.8423,-0.5073,0.3343,0.4144
5005,1114,920,34.392,33.932,0.1332,0.0822,9.8274,-0.2648,-0.436,-0.5156
5010,1120,919,34.419,33.897,-0.0098,0.0112,9.819,-0.8178,0.2736,0.5141
5015,1122,920,34.419,33.818,-0.0144,0.0442,9.7411,-0.1696,-0.3736,-0.4597
5020,1109,923,34.356,33.85,-0.0001,0.0043,9.7817,-0.657,0.7536,1.0183
5025,1103,923,34.323,33.852,0.0312,-0.036,9.8233,-0.1853,0.6362,0.1244
5030,1109,917,34.383,33.876,-0.0929,0.0194,9.815,0.0442,-0.2006,-0.0162
5035,1107,914,34.344,34.016,-0.0531,-0.0573,9.8184,0.284,-0.6357,-0.4967
5040,1097,918,34.395,33.878,-0.0165,-0.1149,9.7567,1.2097,-0.3355,1.0027
5045,1104,915,34.448,33.919,0.0728,-0.0447,9.8671,0.305,0.6795,-0.5176
5050,1096,917,34.423,33.863,-0.0737,0.013,9.7912,-0.0931,0.0533,-0.7577
5055,1091,915,34.354,33.907,0.1269,0.0187,9.8631,-1.0377,-0.8103,-0.7477
5060,1095,910,34.448,33.885,0.0795,-0.0061,9.7556,0.1203,0.2377,0.4367
5065,1086,906,34.422,33.89,-0.0358,-0.1216,9.8188,-0.3111,0.2012,-1.2013
5070,1087,904,34.432,33.903,0.002,0.0399,9.818,-0.7975,0.5452,1.3851
5075,1092,906,34.482,33.813,0.0843,-0.0227,9.7643,-0.0909,-0.2081,-0.6286
5080,1079,907,34.402,33.912,0.0714,-0.0137,9.831,-0.4307,0.0094,-0.4841
5085,1080,900,34.442,33.985,0.063,-0.0264,9.8678,-0.635,-0.1169,-0.6398
5090,1082,898,34.386,33.857,-0.0247,-0.0181,9.6868,-0.1363,0.5586,-0.4025
5095,1077,898,34.341,33.855,-0.0285,-0.0326,9.6925,-0.3971,0.5863,0.415
5100,1070,895,34.424,33.893,-0.0205,-0.0503,9.9044,0.138,-0.5714,0.0972
5105,1077,895,34.409,33.908,0.0556,0.0692,9.8176,-0.4803,-0.5669,-0.257
5110,1070,888,34.399,33.904,0.0029,-0.0272,9.7974,1.027,-0.9478,0.168
5115,1064,888,34.449,33.887,0.025,-0.0106,9.8245,-0.8731,-0.4463,0.4848
5120,1057,884,34.329,33.898,-0.0336,-0.0439,9.8066,0.5851,-0.0239,-0.238
5125,1060,885,34.357,33.846,-0.0368,-0.0547,9.7943,0.1493,-0.0143,0.4692
5130,1052,883,34.331,33.889,0.0492,-0.014,9.7574,0.631,0.1851,-0.1864
5135,1057,880,34.276,33.951,0.0217,0.0074,9.7541,0.0496,0.0689,-0.3386
5140,1047,879,34.392,33.859,-0.0528,-0.0651,9.7573,-1.3409,0.4361,-0.7213
5145,1037,880,34.436,33.772,-0.0419,0.014,9.8095,0.2956,0.2024,0.2567
5150,1041,873,34.476,33.928,0.0487,0.0501,9.7328,0.0216,0.0993,0.0144
5155,1033,871,34.335,33.931,-0.0376,-0.108,9.7962,-0.5174,0.2053,-0.2849
5160,1022,872,34.442,33.867,0.0429,-0.012,9.9176,1.2752,-0.3057,0.6341
5165,1033,872,34.36,33.981,0.0544,0.0017,9.8297,0.2616,0.426,0.5968
5170,1012,867,34.431,33.89,-0.0896,0.0577,9.8047,-0.6752,0.4946,-0.2377
5175,1015,866,34.407,33.91,-0.0439,0.0268,9.9424,0.9141,0.1151,-0.4731
5180,1004,866,34.342,33.937,-0.0224,-0.0851,9.8298,0.3743,-1.3928,0.1728
5185,996,868,34.438,33.926,0.0439,0.0359,9.8413,0.1738,-1.0069,0.6099
5190,995,862,34.412,33.869,0.0006,0.099,9.8425,-1.0966,-0.3068,-0.1906
5195,978,861,34.467,33.865,0.0125,0.0296,9.8356,0.7946,0.4216,-0.1858
5200,971,856,34.438,33.933,-0.0764,0.0226,9.8044,-0.5006,0.105,0.591
5205,968,858,34.324,33.949,-0.0258,-0.0003,9.7527,0.0017,0.4325,-0.2157
5210,958,857,34.454,33.878,0.0538,0.0727,9.8078,-0.2477,-0.6112,-0.2486
5215,947,859,34.362,33.947,0.009,-0.0,9.8595,0.0905,-0.0726,-0.0511
5220,958,852,34.295,33.935,-0.0302,0.0363,9.7522,-0.0067,0.1871,-0.1273
5225,933,853,34.372,33.863,-0.0204,0.0327,9.7352,-0.0388,-0.199,0.0165
5230,929,854,34.432,33.876,-0.0405,0.0082,9.792,0.5386,0.6482,-0.1583
5235,919,849,34.46,33.915,0.0319,-0.0249,9.911,0.2408,-0.4344,0.8341
5240,901,848,34.396,33.852,0.0115,0.0438,9.8458,0.3486,-0.3413,0.3082
5245,900,845,34.472,33.866,-0.0069,-0.0131,9.78,0.1646,0.8581,-0.3879
5250,891,839,34.367,33.925,-0.0968,-0.086,9.8311,0.2038,-0.4307,0.4
5255,878,844,34.357,33.925,0.0088,-0.0014,9.7586,-0.1616,-0.3369,0.1646
5260,868,841,34.376,33.868,0.0728,0.0123,9.8055,-0.3748,0.1799,-0.8221
5265,860,835,34.511,33.833,0.1,-0.0522,9.8227,0.0812,0.6143,0.685
5270,853,831,34.4,33.763,-0.0282,0.0004,9.8102,0.5252,-0.7439,-0.1484
5275,850,829,34.394,33.868,0.0393,0.055,9.8108,-0.5607,0.5138,0.087
5280,831,830,34.443,33.822,0.0188,0.08,9.8389,-0.9761,0.4408,0.6561
5285,831,826,34.391,33.871,-0.0378,-0.0009,9.8465,0.231,0.1548,-0.1799
5290,820,823,34.396,33.877,0.0182,0.021,9.8365,-0.2151,0.252,0.6301
5295,813,822,34.433,33.825,-0.0001,0.0507,9.7814,-0.1464,-0.5321,-0.2345
5300,805,812,34.497,33.862,0.0031,0.0564,9.8243,-0.606,0.1372,-0.1968
5305,799,810,34.419,33.912,-0.1233,-0.0892,9.858,-0.9404,-0.0888,0.8034
5310,791,810,34.538,33.914,-0.0783,0.0752,9.8385,0.3224,-1.0448,0.2899
5315,783,805,34.303,33.953,-0.0266,0.0146,9.7671,0.3069,-0.2215,-0.0746
5320,779,799,34.418,33.893,0.0337,-0.0575,9.7978,-0.3646,0.4375,-0.5641
5325,782,796,34.464,33.792,0.1313,-0.0158,9.7822,0.1444,-0.2282,0.0515
5330,766,788,34.428,33.852,-0.0299,0.0019,9.7602,-0.2258,0.356,-0.7004
5335,764,786,34.384,33.874,0.1098,-0.0397,9.8586,-0.338,-0.2627,-0.5968
5340,758,781,34.379,33.901,0.0766,-0.0042,9.7325,-0.528,-0.4899,-0.0401
5345,754,779,34.441,33.956,-0.0458,0.0135,9.8386,-0.0416,0.5011,-0.2309
5350,755,774,34.383,33.933,0.0247,-0.031,9.794,0.1146,0.4615,0.1991
5355,745,765,34.431,33.925,-0.0402,-0.0072,9.7677,0.2373,-0.1274,-0.8101
5360,751,761,34.468,33.757,-0.0149,0.0001,9.8609,0.2109,1.1029,0.4756
5365,743,758,34.44,33.9,-0.0437,-0.0324,9.7482,0.8917,0.1932,-0.0423
5370,738,754,34.342,33.932,-0.0154,0.0036,9.8941,0.3552,-1.2048,-0.2436
5375,748,745,34.405,33.9,-0.0484,-0.0798,9.7896,-0.6084,-0.041,-0.2621
5380,752,737,34.304,33.919,0.0037,-0.0101,9.7873,-0.7806,-0.6329,0.1157
5385,734,737,34.363,33.959,-0.0938,-0.0617,9.8211,0.7955,0.0892,0.5764
5390,752,728,34.356,33.836,-0.0279,-0.0538,9.7595,-0.2967,0.7084,-0.4035
5395,757,722,34.423,33.834,0.0306,-0.0791,9.8653,0.3508,-0.397,0.3952
5400,758,718,34.343,33.909,0.0055,-0.058,9.7553,-0.0102,-0.7294,0.6992
5405,755,709,34.366,33.937,0.0493,0.0654,9.7259,-0.5561,0.8445,0.4265
5410,767,698,34.442,33.888,-0.0146,0.0661,9.7693,-0.2335,-0.6748,0.0944
5415,771,692,34.335,33.808,0.0169,-0.0144,9.8875,0.307,0.6234,0.1213
5420,783,690,34.363,33.811,0.0156,0.0663,9.7851,0.4567,-0.1824,-0.2695
5425,786,686,34.43,33.86,0.0283,0.0017,9.7795,0.3236,-0.4152,-0.0051
5430,793,678,34.433,33.885,0.0463,0.0545,9.7483,-0.455,-0.7526,0.0996
5435,807,681,34.375,33.89,-0.0588,-0.0282,9.8623,-0.0452,0.3048,-0.5631
5440,817,673,34.361,33.929,0.0225,0.0289,9.7517,-0.029,-0.5596,0.6638
5445,824,667,34.349,33.879,0.0494,0.0476,9.9216,0.1482,-0.1349,0.3134
5450,833,655,34.439,33.87,0.0126,-0.0015,9.8028,0.2502,-0.1777,-0.034
5455,833,660,34.375,33.883,-0.0083,0.0213,9.8506,0.2518,0.455,-0.2053
5460,852,661,34.446,33.921,-0.0788,0.0242,9.7874,-0.3999,-0.4053,-0.1415
5465,864,657,34.442,33.917,-0.0474,0.076,9.7328,-0.6693,0.4559,0.1513
5470,873,651,34.376,33.861,-0.0213,0.0205,9.851,-0.3271,-0.3919,-0.1924
5475,887,650,34.328,33.885,-0.0297,-0.0646,9.893,1.0767,-0.2985,0.1865
5480,893,642,34.445,33.827,0.0648,0.0399,9.8616,0.2931,0.525,0.6571
5485,898,638,34.404,33.925,-0.035,0.0354,9.7513,-0.3574,0.0051,0.5866
5490,915,640,34.46,33.849,0.0559,-0.0179,9.7958,-0.8352,0.1051,-0.3289
5495,939,637,34.381,33.838,0.0914,-0.0282,9.7994,-0.2279,-0.2396,-0.583
5500,948,635,34.373,33.866,-0.0838,-0.0206,9.755,0.4987,-0.4889,0.497
5505,949,639,34.286,33.863,0.0785,-0.0294,9.7606,0.1424,-0.1614,-0.2369
5510,969,633,34.477,33.874,0.0196,0.0365,9.8739,0.4159,0.3375,-0.352
5515,974,641,34.397,33.837,-0.0747,-0.0868,9.7594,-0.4178,-0.1986,-0.3362
5520,995,635,34.433,33.871,-0.0331,-0.023,9.8187,-0.1954,-0.7213,0.1766
5525,993,645,34.395,33.855,-0.0406,-0.0436,9.7188,0.0045,-1.3096,-0.3432
5530,1006,646,34.314,33.935,-0.0854,0.0487,9.7474,0.4286,-0.1787,-0.3353
5535,1030,648,34.336,33.865,0.0181,-0.037,9.844,0.7303,-0.3567,-0.3999
5540,1042,643,34.372,33.859,0.0515,-0.0104,9.7661,0.5024,-0.4398,-0.5078
5545,1049,650,34.373,33.927,0.012,0.0566,9.8504,1.2208,0.8168,-0.0796
5550,1051,657,34.368,33.883,0.0374,-0.0001,9.7427,0.1514,0.0803,0.1885
5555,1074,651,34.384,33.94,-0.0798,-0.0343,9.713,-0.355,0.0916,-0.0097
5560,1078,664,34.275,33.966,0.0653,0.0136,9.8809,0.2127,0.5553,0.0841
5565,1092,670,34.497,33.885,-0.0167,-0.0319,9.82,-0.4307,0.5869,0.5376
5570,1096,672,34.436,33.903,-0.0405,-0.0283,9.7929,0.6086,0.077,0.4994
5575,1112,672,34.346,33.989,-0.0001,-0.01,9.7463,0.3703,0.237,0.4513
5580,1126,682,34.335,33.91,0.1169,-0.0997,9.8047,0.1501,0.4641,0.0172
5585,1124,687,34.27,33.834,-0.078,-0.0516,9.7592,-0.0474,0.9732,0.1206
5590,1128,692,34.392,33.887,-0.0508,0.0016,9.9084,0.641,-0.9238,0.1565
5595,1134,700,34.4,33.913,0.0106,0.0507,9.7438,-0.3752,0.9079,0.3563
5600,1156,705,34.387,33.927,0.0232,-0.0232,9.833,0.2877,0.9716,0.1412
5605,1154,716,34.406,33.979,-0.0251,-0.0305,9.7881,-0.0475,0.2952,-0.7518
5610,1167,719,34.369,33.806,-0.0167,-0.0145,9.9061,0.421,-0.2612,-0.6043
5615,1168,727,34.379,33.93,-0.0442,-0.0018,9.8177,-0.412,-0.4871,-0.405
5620,1167,734,34.489,33.966,0.0329,0.0491,9.8275,0.0556,0.2786,0.0828
5625,1171,738,34.39,33.961,0.0043,-0.0257,9.8946,0.1147,0.4958,-0.007
5630,1189,751,34.352,33.979,-0.0053,-0.0099,9.8213,-0.4795,0.7737,-0.5355
5635,1180,762,34.298,33.934,0.0046,-0.0119,9.8086,1.1851,0.4062,-0.6721
5640,1175,771,34.465,33.842,0.1174,-0.0243,9.8278,0.535,0.216,-0.1362
5645,1176,780,34.375,33.929,0.0182,-0.0125,9.8365,-0.4172,1.6724,-0.4847
5650,1189,784,34.308,34.018,-0.0099,-0.0794,9.8471,-0.005,0.4657,0.9365
5655,1184,791,34.387,33.897,0.0198,-0.0219,9.7985,0.1077,0.4226,-0.4704
5660,1184,805,34.435,33.885,0.0816,0.0373,9.6942,0.3541,0.5272,0.6516
5665,1189,806,34.402,33.896,0.0009,0.0192,9.7862,-0.5781,-0.1396,-0.6365
5670,1191,816,34.425,33.907,-0.0208,0.1044,9.7605,0.2244,0.1397,0.1462
5675,1184,818,34.456,33.874,0.0196,-0.0294,9.8114,0.4656,-0.375,-0.1505
5680,1186,828,34.329,33.9,-0.0044,0.0064,9.7655,-0.2531,-0.6146,-0.7255
5685,1180,834,34.43,33.898,-0.0044,0.0057,9.6958,-0.5766,0.8872,0.021
5690,1171,847,34.372,33.791,-0.0168,0.0651,9.777,-0.7237,0.258,0.2487
5695,1185,848,34.339,33.842,0.077,0.0353,9.7256,-0.4427,0.454,0.8765
5700,1176,857,34.413,33.773,-0.0451,0.0135,9.7732,-0.6297,0.7844,0.4305
5705,1171,859,34.409,33.838,0.0139,-0.0006,9.767,0.4417,-0.2869,0.5577
5710,1167,867,34.415,33.921,0.0164,0.0567,9.7861,0.3884,0.2193,-0.3556
5715,1180,872,34.362,33.872,0.0277,0.0061,9.8041,0.5894,0.172,0.4759
5720,1170,880,34.464,33.853,-0.0983,-0.0455,9.8051,0.2905,-0.5078,0.637
5725,1153,883,34.443,33.922,-0.0354,-0.0119,9.8568,0.1086,-0.3131,0.4371
5730,1158,891,34.479,33.919,-0.0657,0.0072,9.8192,0.476,-0.1863,-0.0455
5735,1156,887,34.451,33.901,-0.0116,0.0533,9.7953,0.4025,-0.3131,0.2266
5740,1151,897,34.396,33.892,-0.0229,0.0155,9.752,0.0531,0.1752,0.6247
5745,1153,900,34.418,33.835,0.016,-0.0303,9.7863,0.8931,0.5091,0.1278
5750,1151,901,34.449,33.905,-0.0278,0.0164,9.8273,-0.224,-0.417,-0.4419
5755,1145,909,34.433,33.815,0.0551,0.0315,9.8705,0.4945,-0.0724,0.3023
5760,1145,914,34.378,33.864,0.0061,-0.0727,9.8646,-0.3326,-0.3944,-0.4717
5765,1128,913,34.449,34.035,0.0785,0.0892,9.8736,0.0237,0.1464,0.6824
5770,1139,915,34.453,33.844,-0.0523,-0.0472,9.8096,0.1444,0.1909,0.6179
5775,1129,915,34.421,33.891,-0.0406,0.0413,9.757,-0.2269,-0.4599,-0.6153
5780,1129,915,34.41,33.822,0.027,-0.0325,9.8767,-0.2147,0.4464,0.3796
5785,1130,920,34.402,33.91,0.1094,-0.038,9.805,-0.1615,-0.0261,-0.1271
5790,1132,921,34.374,33.943,0.0336,0.0056,9.8555,-0.1267,-0.3324,0.2931
5795,1123,918,34.407,33.882,0.078,-0.0129,9.848,0.4796,-0.4491,0.5153
5800,1116,924,34.366,33.913,-0.0068,-0.0798,9.7371,0.561,-0.4257,0.4123
5805,1114,916,34.396,33.915,0.0614,-0.0107,9.8244,-0.0635,0.7996,-0.2013
5810,1108,926,34.339,33.842,0.0624,-0.0265,9.8141,0.0114,0.5923,-0.3227
5815,1117,914,34.468,33.917,0.0537,-0.0657,9.8004,0.1063,0.5372,0.6125
5820,1100,919,34.359,33.888,0.1255,0.0401,9.7906,0.1182,0.025,0.0478
5825,1110,911,34.349,33.904,0.0545,0.0589,9.7772,0.6064,-0.3173,-0.0738
5830,1111,914,34.413,33.834,0.0557,-0.0634,9.8203,0.2553,0.2916,0.769
5835,1097,915,34.393,33.878,0.0498,-0.0401,9.7951,-0.7335,-0.8082,-0.2872
5840,1095,911,34.444,33.992,-0.0483,-0.0132,9.8432,0.7528,0.0558,-0.0693
5845,1090,917,34.47,33.835,0.0046,-0.0765,9.8959,-0.1893,1.0317,-0.0821
5850,1091,913,34.408,33.896,0.075,0.0574,9.7581,-0.2401,0.0909,0.5246
5855,1086,912,34.497,33.906,0.0678,-0.0491,9.7505,0.5264,-0.1951,0.5869
5860,1097,914,34.381,33.875,0.0747,-0.0253,9.7322,0.327,0.2595,0.5054
5865,1087,909,34.377,33.908,-0.0105,0.0347,9.7712,0.1084,-0.2568,0.0616
5870,1080,897,34.423,33.919,0.0047,-0.0468,9.7452,0.6971,-0.1083,1.6044
5875,1082,899,34.333,33.849,-0.0139,0.0392,9.6842,-0.4423,-0.5025,0.1716
5880,1077,898,34.428,33.963,0.0191,0.0602,9.871,-0.872,-0.0581,-0.1228
5885,1081,901,34.405,33.922,-0.041,0.0112,9.7247,-0.304,0.598,-0.3766
5890,1072,896,34.391,33.931,-0.0405,0.0548,9.7881,0.5338,0.0662,0.2987
5895,1070,892,34.399,33.892,0.0569,-0.0909,9.7828,0.2258,-0.1582,0.2151
5900,1072,889,34.395,33.803,-0.0,-0.0263,9.7868,0.3107,0.0727,-0.8831
5905,1073,882,34.412,33.914,-0.0529,0.0571,9.8375,-0.1507,0.8953,0.7609
5910,1060,886,34.433,33.824,0.0655,-0.0562,9.7938,-0.2249,-0.3535,0.015
5915,1054,884,34.471,33.87,0.0441,-0.0175,9.7946,0.3551,0.3895,-0.0502
5920,1063,883,34.421,33.828,-0.0483,0.1281,9.8038,0.0567,-0.2076,-1.2239
5925,1049,881,34.43,33.924,0.0722,0.0259,9.8326,0.8533,-0.251,-0.8271
5930,1052,881,34.51,33.959,-0.028,0.1113,9.8075,-0.292,0.1063,-0.3205
5935,1054,874,34.314,33.97,-0.0097,0.0148,9.8431,-0.3726,-0.7197,-0.3135
5940,1039,876,34.308,33.917,-0.0358,-0.0062,9.8093,-0.1626,0.2719,-0.1805
5945,1044,873,34.478,33.815,-0.0407,-0.0311,9.7648,0.3333,0.1016,-0.7896
5950,1029,871,34.347,33.89,0.0046,0.0161,9.8681,0.0965,-0.6037,1.0131
5955,1016,867,34.449,33.928,0.0266,0.0627,9.7634,0.0274,-0.1002,-0.7591
5960,1020,866,34.423,33.825,-0.0546,0.02,9.8136,-0.2188,0.9466,0.5848
5965,1014,864,34.374,33.824,0.0244,-0.0735,9.7728,0.7115,0.2055,-0.7784
5970,1001,867,34.295,33.937,0.1064,-0.0315,9.7351,0.3861,-0.3572,0.4225
5975,994,866,34.345,33.868,0.0123,0.0723,9.8679,0.1775,0.4785,0.0856
5980,993,861,34.309,33.927,0.0152,-0.077,9.7185,-1.4606,-0.155,0.0892
5985,984,866,34.375,33.875,-0.056,-0.0323,9.8939,-0.0897,0.3167,-0.4142
5990,975,863,34.322,33.907,0.0378,0.0974,9.8529,-0.2607,-0.3351,-0.2595
5995,972,863,34.374,33.817,-0.0205,-0.0153,9.8639,0.1788,-0.5588,-0.1287
6000,966,858,34.422,33.858,0.0122,-0.0255,9.8198,-0.0814,-0.6543,-0.446
6005,952,859,34.429,33.897,0.0263,0.0039,9.8887,-0.0611,-0.3134,-0.3502
6010,947,850,34.327,33.868,0.0301,-0.0038,9.8289,-0.3473,-0.125,-0.2469
6015,946,856,34.374,33.869,-0.0246,0.0818,9.7085,0.5586,-0.6631,-0.4094
6020,920,848,34.402,34.027,-0.0427,0.0166,9.7555,-1.3099,0.5123,0.1876
6025,924,847,34.426,33.816,0.0003,0.0335,9.8015,0.1598,-0.2103,-0.056
6030,917,855,34.391,33.94,0.0256,-0.0019,9.8353,-0.0602,0.4208,0.2488
6035,904,839,34.456,33.879,0.0063,0.0229,9.8365,-0.7046,-0.3436,-0.2763
6040,896,841,34.455,33.834,-0.1026,0.0385,9.7307,0.8923,-0.1768,-0.2166
6045,886,844,34.384,33.893,-0.0333,0.0159,9.8091,-0.6729,-0.1223,0.0667
6050,872,844,34.322,33.825,-0.0027,0.0594,9.7524,0.7826,-0.3875,0.5026
6055,866,835,34.362,33.908,-0.0293,0.0587,9.8268,0.4051,0.1917,0.2213
6060,854,840,34.426,33.905,0.0085,0.0258,9.8187,1.0487,-0.5272,-0.4955
6065,858,840,34.398,33.883,0.0008,-0.0164,9.8168,-0.0643,0.1285,0.1028
6070,834,833,34.403,33.866,0.0083,0.0299,9.8385,0.4653,0.5198,0.077
6075,826,825,34.395,33.96,0.0358,0.0929,9.8087,0.0782,0.5981,-0.1132
6080,816,823,34.324,33.856,-0.0525,-0.0457,9.8273,0.0281,-0.1667,0.6055
6085,821,821,34.488,33.918,0.1296,0.0257,9.7825,0.5177,-0.8593,0.5774
6090,801,817,34.384,33.855,-0.0058,-0.0441,9.8018,0.4532,1.2883,0.0151
6095,800,815,34.364,33.94,0.0745,0.1078,9.7253,-0.5107,-0.5219,0.368
6100,790,812,34.379,33.84,-0.0299,0.028,9.8018,0.2825,-0.3874,0.6625
6105,785,801,34.36,33.849,-0.0168,-0.0116,9.7564,0.4751,0.3108,-0.5414
6110,785,804,34.366,33.86,-0.0757,-0.0162,9.7646,-0.1968,-0.1944,-0.3138
6115,782,794,34.461,33.871,0.0133,-0.0271,9.7723,0.415,-0.4499,0.2572
6120,767,793,34.403,33.8,0.0324,0.0288,9.8438,-0.1927,-0.5855,0.2379
6125,774,791,34.45,33.816,-0.0224,0.0977,9.7701,-0.2329,0.1619,-0.6639
6130,758,783,34.426,33.944,0.0142,-0.0368,9.7303,0.9,-0.045,-1.2496
6135,755,780,34.388,33.866,-0.0025,-0.068,9.8055,0.4046,-0.4994,0.2596
6140,752,770,34.448,33.93,-0.0723,0.0003,9.849,0.2958,-0.0956,0.7966
6145,761,766,34.417,33.968,0.0148,-0.0564,9.8264,0.3201,-0.0329,-0.0591
6150,752,759,34.475,33.936,0.0064,-0.0669,9.8331,-0.2092,0.5324,0.1414
6155,752,751,34.44,33.887,-0.0669,0.0668,9.7976,0.3092,1.051,-0.002
6160,740,758,34.478,33.943,-0.0012,-0.0004,9.8497,0.206,0.014,0.2762
6165,747,747,34.422,33.956,-0.0386,0.0398,9.822,-0.2145,0.8009,0.3137
6170,748,738,34.437,33.89,-0.0178,0.0194,9.7733,-0.1929,0.0941,0.2202
6175,754,734,34.41,33.926,0.0474,0.0168,9.8274,-0.5134,-0.131,0.1312
6180,746,730,34.401,33.864,0.0334,0.0348,9.7367,0.9944,0.1389,0.4089
6185,755,724,34.322,33.89,-0.0264,-0.0458,9.7517,0.5536,-0.3534,0.4808
6190,758,716,34.45,33.971,-0.0465,-0.0158,9.7966,-0.0031,0.4204,-0.0773
6195,763,706,34.424,33.799,0.0314,0.0407,9.8757,-0.3159,-0.0329,0.2296
6200,773,708,34.397,33.83,-0.0429,-0.0823,9.9047,-0.6244,-0.3913,0.7365
6205,775,693,34.456,33.892,-0.0308,-0.0114,9.8727,-0.5221,0.7078,0.371
6210,780,699,34.39,33.922,0.0667,-0.0703,9.8401,-0.6876,0.0924,0.071
6215,788,693,34.432,33.936,0.0221,-0.0062,9.7684,0.8135,-0.734,-0.3571
6220,796,682,34.372,33.894,-0.0128,-0.0035,9.84,-0.1858,-0.4486,-0.0423
6225,806,680,34.359,33.967,-0.0784,0.055,9.8552,0.5566,-0.6524,0.9125
6230,801,671,34.36,33.828,0.0465,0.0392,9.8232,0.1883,-0.4389,-0.0754
6235,819,673,34.374,33.92,-0.0611,-0.0817,9.8207,-0.3525,0.35,-0.7712
6240,827,663,34.307,33.874,-0.081,0.0177,9.8935,-0.0682,0.692,0.1578
6245,832,660,34.462,33.847,-0.0695,-0.0231,9.8332,-0.2074,-0.1238,1.062
6250,847,656,34.437,33.898,-0.0738,-0.0113,9.8557,-1.1994,0.0952,-0.6557
6255,853,649,34.4,33.868,0.0212,0.0677,9.8456,0.3077,-0.3478,0.5907
6260,863,649,34.401,33.832,-0.0387,-0.1034,9.8691,0.6081,-0.5164,-0.0456
6265,880,644,34.444,33.933,0.0081,-0.0995,9.9086,-0.8931,0.6422,-0.5156
6270,897,640,34.41,33.962,-0.0328,-0.0439,9.8198,0.211,0.0666,1.2163
6275,895,644,34.488,33.896,0.0115,-0.0957,9.7163,-0.2218,0.194,-0.2812
6280,914,640,34.414,33.929,0.095,-0.0514,9.8158,0.4089,0.6775,-0.1127
6285,927,639,34.442,33.951,0.0839,0.0374,9.7995,0.0094,0.2998,0.1962
6290,938,632,34.396,33.952,-0.0065,-0.011,9.7885,-0.6215,0.0828,0.3547
6295,943,636,34.319,33.911,0.011,-0.037,9.9032,-0.5856,0.2908,-0.2181
6300,968,633,34.37,33.963,0.0041,0.0138,9.7923,0.1355,0.1131,-0.7486
6305,978,635,34.402,33.905,0.0508,-0.0484,9.9053,0.0432,-0.3338,-1.0621
6310,984,635,34.356,33.908,0.0495,0.0637,9.7907,0.6098,0.4082,0.4636
6315,1004,640,34.387,33.852,-0.0509,0.009,9.8579,0.1204,-0.1701,0.5411
6320,1008,638,34.372,33.863,0.0525,0.0004,9.8562,-0.2082,-0.1509,-0.3721
6325,1026,642,34.405,33.923,-0.0439,-0.0417,9.8404,0.3072,-0.6967,0.8289
6330,1039,647,34.32,33.929,-0.0786,0.0374,9.8198,0.2233,-1.2051,0.5852
6335,1046,647,34.314,33.989,-0.104,0.0912,9.8744,0.53,0.7932,0.6505
6340,1066,646,34.335,33.87,-0.0314,0.0236,9.7031,-0.8657,0.3014,0.4941
6345,1068,663,34.443,33.787,0.1167,-0.0385,9.8357,-0.1053,-0.0025,-0.4774
6350,1074,659,34.396,33.797,0.0247,-0.0499,9.8927,0.3381,-0.2454,0.1063
6355,1090,664,34.343,33.885,-0.0328,0.0582,9.9018,1.0544,-0.2105,-0.2606
6360,1090,668,34.403,33.875,-0.0875,0.0226,9.7364,-0.7006,-0.1607,-0.5315
6365,1105,670,34.459,33.947,-0.0015,-0.0622,9.7998,-0.1765,-0.0049,-0.171
6370,1118,677,34.375,33.917,0.0925,0.0299,9.7448,-0.8442,0.5449,-0.6652
6375,1117,688,34.452,33.858,-0.0379,-0.017,9.7962,-0.818,-0.3922,0.5076
6380,1137,692,34.435,33.899,-0.1058,-0.0294,9.845,1.1595,0.9006,-0.5217
6385,1140,692,34.434,33.942,0.0277,-0.1105,9.8144,-0.0092,0.4419,0.5712
6390,1152,707,34.329,33.979,0.0528,-0.0613,9.7978,-0.669,0.4799,-0.2975
6395,1151,709,34.441,33.852,-0.062,0.058,9.8656,0.0425,0.1408,-0.014
6400,1155,719,34.395,33.83,0.025,0.002,9.7341,0.1176,-0.4572,0.9026
6405,1156,724,34.407,33.822,0.0239,0.0783,9.8124,-0.1918,-0.233,-0.3239
6410,1171,730,34.455,33.903,-0.007,-0.0518,9.8871,-0.2163,-0.1644,-0.6614
6415,1169,745,34.451,33.907,0.0443,-0.0199,9.8371,0.594,-0.0694,0.9048
6420,1174,748,34.381,33.942,0.0041,0.0651,9.8274,0.8152,0.7696,-0.0904
6425,1181,762,34.434,33.845,0.0434,0.0239,9.7838,-0.5084,0.6157,-0.6569
6430,1176,765,34.481,33.826,-0.0645,0.0402,9.7988,0.094,0.9796,-0.645
6435,1183,778,34.345,33.914,0.0743,-0.0251,9.879,0.105,-0.3981,0.8063
6440,1187,779,34.47,33.894,0.0264,0.0313,9.8156,0.4809,-1.2106,-0.5713
6445,1192,789,34.364,33.85,-0.0234,-0.0486,9.7846,0.8464,0.2585,-0.2226
6450,1187,795,34.4,33.9,0.1014,-0.0163,9.8251,0.5905,-0.0031,0.364
6455,1183,801,34.422,33.891,-0.0637,0.0699,9.9004,0.2831,0.5362,-0.3415
6460,1183,812,34.423,33.944,-0.0309,-0.0517,9.8543,-0.0557,-0.5639,0.4399
6465,1184,821,34.357,33.917,-0.0091,-0.0143,9.7697,0.3025,0.3342,0.2567
6470,1186,831,34.363,33.967,0.0245,-0.016,9.8143,0.031,0.2512,-0.2378
6475,1186,835,34.434,33.874,-0.037,-0.0512,9.9121,0.0029,-0.2694,-0.558
6480,1182,837,34.466,33.872,-0.014,-0.0056,9.7984,0.0224,-0.2985,0.312
6485,1183,847,34.477,33.899,-0.0623,0.0085,9.7842,0.2726,-0.5918,-0.1264
6490,1182,852,34.499,33.851,0.0904,0.0322,9.8682,-0.3241,-0.2905,-1.0131
6495,1184,858,34.376,33.927,-0.0036,0.0375,9.8191,-0.6508,0.0142,-0.2656
6500,1180,864,34.34,33.894,0.0589,-0.0315,9.8395,0.4631,1.1006,-0.2038
6505,1173,877,34.423,33.816,-0.0179,-0.068,9.82,-0.4073,0.0083,-0.9327
6510,1175,881,34.379,33.868,-0.0566,0.0162,9.7837,0.408,-0.1323,0.4323
6515,1169,884,34.345,33.866,0.0962,0.0115,9.8173,0.4226,-1.0794,0.1376
6520,1163,891,34.354,33.98,-0.0452,-0.0887,9.8,-0.8027,-0.036,0.3473
6525,1153,892,34.51,33.986,0.0043,0.0137,9.8548,0.4976,0.1442,0.1617
6530,1156,896,34.397,33.935,-0.0047,0.0907,9.7913,-1.2064,-0.3686,0.4913
6535,1146,901,34.395,33.841,0.0894,0.1001,9.8665,-0.1359,-0.188,0.6359
6540,1152,900,34.396,33.918,-0.0105,-0.0412,9.747,-0.406,-0.5961,-0.3466
6545,1145,906,34.381,33.754,0.03,0.0556,9.8752,0.3431,-0.9626,0.125
6550,1141,909,34.437,33.884,0.0133,-0.0771,9.8057,-0.5751,0.4809,-0.7597
6555,1134,910,34.442,33.847,0.0484,-0.045,9.7454,0.4303,0.2138,0.0505
6560,1137,918,34.406,33.864,0.0143,0.026,9.7085,-0.2294,-0.5411,0.4333
6565,1134,914,34.375,33.933,-0.0098,0.0578,9.7351,0.0499,-0.6824,-0.3261
6570,1129,915,34.427,33.871,-0.0323,-0.0237,9.7444,0.2147,-0.2172,-0.3805
6575,1129,925,34.384,33.926,0.0348,-0.0059,9.9249,0.6722,-0.3297,0.2439
6580,1130,918,34.456,33.862,0.0217,-0.0116,9.8483,0.6162,0.8597,0.7504
6585,1120,924,34.354,33.886,-0.0346,0.0665,9.828,0.3329,0.2818,-0.4073
6590,1111,918,34.316,33.887,-0.0625,0.0919,9.791,-0.5087,0.0824,-0.2059
6595,1118,926,34.342,33.987,0.0437,0.0368,9.8368,0.1559,-0.974,0.8872
6600,1110,923,34.351,33.964,0.0871,0.0019,9.7698,-0.449,-0.1446,1.5682
6605,1115,920,34.456,33.884,0.1103,-0.0199,9.8944,-0.0392,0.3778,0.5839
6610,1108,918,34.423,33.932,-0.0558,0.0204,9.789,0.5074,0.3722,-0.523
6615,1101,920,34.426,33.838,0.0475,0.0234,9.7974,0.3628,-0.536,-0.5127
6620,1104,914,34.439,33.914,-0.0353,0.0749,9.7788,0.4314,0.2754,0.0405
6625,1105,919,34.398,33.974,-0.0893,-0.0263,9.8159,-0.2708,0.1458,-0.9541
6630,1104,924,34.323,33.916,-0.0197,-0.0204,9.867,0.5949,-0.181,0.2025
6635,1111,921,34.394,33.85,-0.0078,-0.085,9.7338,-0.7467,-0.6966,0.1104
6640,1101,913,34.476,33.897,0.0362,-0.0367,9.8081,-0.4717,-0.1178,0.7058
6645,1099,911,34.424,33.862,0.0115,-0.0146,9.7846,0.6282,-0.2726,-0.2782
6650,1103,916,34.358,33.886,-0.0314,0.0869,9.7808,0.0436,-0.264,0.0616
6655,1086,905,34.482,33.852,-0.086,-0.0571,9.7904,0.5503,-0.5502,0.3848
6660,1087,910,34.434,33.967,-0.1022,0.0628,9.7873,0.0469,0.2238,-0.402
6665,1087,908,34.372,33.927,-0.0288,0.0273,9.8044,-0.3001,-0.1086,-0.4945
6670,1073,904,34.343,33.793,-0.0668,-0.0364,9.8538,0.4326,0.3712,-0.2758
6675,1091,899,34.435,33.901,0.0428,0.0712,9.8403,0.2742,-1.3127,0.3905
6680,1075,896,34.498,33.886,0.0612,-0.0565,9.8586,0.0176,-0.7801,-0.1478
6685,1076,896,34.399,33.999,0.0039,-0.0426,9.7469,-0.8252,0.1156,-0.1007
6690,1076,891,34.525,33.955,-0.0235,-0.0093,9.7561,-0.4047,0.1409,1.3659
6695,1062,885,34.374,33.873,0.0411,0.0017,9.8218,-0.2135,0.0446,-0.2918
6700,1061,889,34.489,33.838,-0.0181,0.0572,9.868,-0.8815,-0.7283,-0.7734
6705,1061,885,34.465,33.929,0.0769,-0.0268,9.7875,0.8909,-0.4457,-0.3213
6710,1054,881,34.393,33.886,-0.01,0.0295,9.7883,-0.647,0.7399,-0.483
6715,1061,881,34.402,33.987,-0.0253,-0.0645,9.8175,0.1727,-0.1359,-0.5506
6720,1050,883,34.397,33.895,0.0446,0.0363,9.9228,-0.2593,0.3145,-0.0752
6725,1046,871,34.294,33.91,-0.0178,0.0058,9.7417,-0.3167,-0.1813,0.2643
6730,1046,877,34.423,33.896,0.0042,0.05,9.8139,-0.5906,0.0529,-0.3033
6735,1045,870,34.353,33.862,0.0815,0.0066,9.8814,0.3899,0.3644,-0.007
6740,1028,871,34.387,33.841,-0.0041,-0.0017,9.8324,-0.0585,0.5084,-0.2732
6745,1029,875,34.37,33.96,-0.0509,0.0332,9.7837,-0.113,0.4534,0.9106
6750,1019,867,34.371,33.835,-0.0916,0.0142,9.7899,0.483,0.189,0.6554
6755,1013,874,34.458,33.958,-0.0784,0.0529,9.7136,-0.3567,0.3426,0.3457
6760,1005,870,34.229,33.882,-0.0005,-0.09,9.8599,0.4753,0.4337,-0.4825
6765,1008,863,34.497,33.817,0.0271,0.0198,9.7225,0.3578,-0.4318,0.0876
6770,986,866,34.363,33.949,0.1339,-0.0499,9.7948,-0.0308,-0.6513,0.115
6775,996,862,34.371,33.91,0.0222,-0.0169,9.8108,0.4689,-0.5642,-0.1508
6780,986,859,34.408,33.884,0.0368,-0.0224,9.7896,-0.5719,-0.1522,0.1076
6785,977,862,34.378,33.9,-0.0807,-0.0086,9.8534,0.0093,-0.0568,0.4578
6790,960,849,34.356,33.966,0.0362,0.0628,9.73,-0.913,0.5353,-0.7778
6795,968,856,34.406,33.903,0.0144,0.0015,9.793,0.6347,-0.5555,-0.1076
6800,955,860,34.434,33.91,0.0198,-0.019,9.7602,0.7938,0.1069,-0.1926
6805,939,857,34.376,33.908,-0.0727,0.0276,9.7735,-0.5253,-0.9359,-0.5218
6810,923,850,34.454,33.915,-0.0763,-0.0306,9.8269,0.7222,-0.7267,0.2967
6815,918,848,34.45,33.817,-0.0385,-0.0678,9.8051,0.4404,-0.2856,0.5001
6820,911,850,34.439,33.886,0.0319,0.0712,9.7139,-0.6591,-0.8376,0.4412
6825,904,849,34.494,33.944,-0.0828,-0.0006,9.7664,-0.019,-0.5727,-0.7949
6830,895,845,34.463,33.917,-0.039,0.0192,9.8197,0.7755,0.44,-0.081
6835,895,845,34.412,33.897,0.0261,-0.0532,9.8179,-0.2409,0.6923,-0.4179
6840,876,839,34.354,33.892,0.0581,-0.0302,9.7959,0.0141,-0.2795,-0.3363
6845,871,841,34.321,33.936,-0.0576,-0.0365,9.793,0.1795,0.0607,0.4802
6850,862,836,34.398,33.89,-0.0146,0.0293,9.8191,-0.2826,-0.7645,0.4604
6855,852,836,34.357,33.791,-0.0207,-0.0961,9.8206,0.5488,-0.4813,-0.1693
6860,845,831,34.401,33.927,-0.042,0.028,9.7965,-0.1946,-0.5143,-0.3187
6865,835,831,34.381,33.844,0.0507,-0.0216,9.845,-0.1614,0.1717,-0.1678
6870,821,825,34.322,33.92,-0.0182,0.035,9.7653,-0.2016,-0.4188,-0.0182
6875,822,821,34.411,33.877,-0.0524,0.0398,9.7706,-0.1426,-0.0428,-0.7356
6880,810,823,34.36,33.992,0.0344,0.0502,9.8643,0.5797,-0.7973,1.0494
6885,805,818,34.501,33.953,-0.0286,0.0235,9.9179,-0.3208,0.2855,0.4853
6890,795,809,34.451,33.905,0.0213,0.0226,9.7917,0.3136,-0.3097,0.0478
6895,789,805,34.393,33.862,-0.1029,0.0734,9.854,-0.0747,-0.795,-0.111
6900,784,801,34.444,33.816,-0.0174,-0.0335,9.7824,-0.4142,0.6412,-0.5642
6905,772,803,34.358,33.949,0.0727,-0.1057,9.8465,-0.8345,-0.2636,1.0416
6910,775,796,34.375,33.864,0.0935,0.018,9.8206,0.7228,-1.0425,0.101
6915,769,790,34.474,33.912,0.0041,0.0653,9.7606,0.1631,-0.3347,0.5979
6920,765,784,34.428,33.922,0.057,-0.0483,9.876,0.3522,0.5298,0.1162
6925,761,779,34.493,33.909,-0.0088,-0.0056,9.8937,-0.3089,1.2454,-0.0181
6930,748,770,34.419,33.939,0.1025,-0.0169,9.8201,0.1394,-1.0287,0.4857
6935,761,767,34.398,33.856,-0.0047,-0.0412,9.7164,-1.3494,-0.4482,-0.3689
6940,742,764,34.4,33.964,0.0099,-0.0992,9.8503,-0.4549,0.3125,-0.6446
6945,747,762,34.589,33.832,-0.0203,-0.0314,9.7509,0.406,0.6984,0.0625
6950,743,752,34.355,33.907,-0.048,-0.04,9.7733,-0.3781,0.4319,-0.5762
6955,747,747,34.421,33.945,0.0591,-0.0315,9.8671,1.0435,-0.9627,-1.5669
6960,750,743,34.419,33.945,-0.0277,0.0135,9.7845,-0.3868,0.083,-0.4644
6965,752,738,34.496,33.96,-0.0287,0.0504,9.8455,0.7541,-0.178,-0.5307
6970,758,731,34.354,33.886,-0.05,-0.0393,9.8247,0.3746,-0.1926,-0.9972
6975,751,722,34.448,33.899,-0.0811,-0.0246,9.8513,0.213,-0.3177,0.2356
6980,757,720,34.381,33.877,0.0139,0.096,9.8366,0.6221,-1.203,0.3921
6985,758,706,34.321,33.907,-0.0013,0.0737,9.8893,-0.4608,-0.0804,0.3438
6990,768,701,34.387,33.97,0.0597,0.0736,9.9014,-1.2001,-0.0596,-0.5515
6995,771,704,34.374,33.884,-0.0017,-0.0002,9.7557,0.5167,0.2061,-0.1299
7000,771,700,34.422,33.933,0.0565,-0.0009,9.793,-0.1246,0.5418,1.0297
7005,788,690,34.466,33.941,0.0568,0.0094,9.822,0.4241,-0.5136,0.5308
7010,790,683,34.426,33.869,-0.0418,-0.0068,9.7563,-0.6709,-0.9823,0.1336
7015,786,677,34.413,33.793,0.0955,-0.0405,9.8426,0.119,-0.051,0.392
7020,810,677,34.436,33.916,0.0086,-0.086,9.7776,0.1045,-0.1644,-0.2402
7025,818,670,34.463,33.869,0.0394,-0.0576,9.7536,-0.1606,-0.173,-0.3301
7030,830,665,34.388,33.913,-0.0623,-0.0119,9.8015,-0.3537,0.0156,-0.3802
7035,839,665,34.439,33.902,0.0279,-0.1305,9.7872,0.774,-0.3565,-0.1362
7040,847,655,34.398,34.017,-0.0077,-0.017,9.7261,-0.7542,0.7748,0.4838
7045,848,649,34.529,33.889,0.0626,0.0358,9.8231,-0.0369,-0.2328,0.3207
7050,871,651,34.429,33.928,-0.0018,-0.0678,9.7596,0.0759,0.7753,0.0035
7055,873,645,34.429,34.011,0.0596,-0.0543,9.8445,-0.8572,0.1425,0.1221
7060,882,646,34.427,33.878,-0.0549,0.0085,9.9088,0.191,-0.3662,0.5029
7065,896,640,34.401,33.936,0.0731,0.0062,9.8798,0.4243,0.1764,-0.2588
7070,908,640,34.436,33.843,0.0357,0.0411,9.7888,0.0881,-0.096,0.0482
7075,919,640,34.451,33.942,0.1358,-0.0088,9.9155,-0.4551,0.2656,-0.2811
7080,933,637,34.447,33.925,-0.0329,-0.01,9.7865,-0.0412,1.1528,-0.3405
7085,945,635,34.462,33.973,0.0373,-0.0358,9.7847,1.0583,0.6825,-0.2967
7090,954,640,34.314,33.87,-0.0968,0.1238,9.8184,0.1896,-0.1565,-0.5523
7095,971,638,34.464,33.899,0.0531,0.0209,9.7555,-0.0391,-0.294,-0.26
7100,988,635,34.455,33.908,0.0645,0.086,9.7962,-0.1708,-0.0437,-0.3292
7105,1003,639,34.382,33.849,0.0429,0.1012,9.7544,-1.3722,-0.4155,0.1578
7110,1003,635,34.433,33.929,-0.1043,-0.012,9.857,-1.0499,-0.087,-0.284
7115,1021,643,34.354,33.922,-0.0071,-0.005,9.7981,-0.2703,-0.494,-0.8791
7120,1027,646,34.368,33.959,-0.0356,0.0152,9.763,1.0597,0.1477,0.8081
7125,1048,646,34.333,33.97,-0.0428,-0.0409,9.8241,0.3596,0.0436,-0.521
7130,1050,651,34.339,33.921,-0.0628,-0.0195,9.7997,-1.4346,-0.2658,0.12
7135,1065,652,34.385,33.889,0.0038,-0.0488,9.8303,-0.1948,-1.0603,0.8092
7140,1082,659,34.402,33.873,-0.0088,0.0226,9.8081,0.3731,0.4831,0.0983
7145,1076,663,34.363,33.934,-0.0468,-0.0539,9.7858,-0.8007,-0.2806,0.2155
7150,1099,667,34.412,33.958,-0.083,0.0642,9.7698,0.0715,-0.009,-0.4916
7155,1105,675,34.523,33.873,-0.0363,-0.0608,9.7573,0.5488,0.6695,-0.3426
7160,1114,677,34.377,33.935,-0.0317,0.0432,9.7394,0.1719,-0.0518,-0.0119
7165,1123,688,34.367,34.029,-0.0557,-0.0975,9.8374,0.1864,-0.372,0.8273
7170,1129,689,34.471,33.941,0.0456,0.0043,9.7887,-0.2747,0.1397,0.8844
7175,1136,695,34.479,33.894,0.1662,-0.0565,9.8058,-0.4317,0.4713,-0.7732
7180,1139,703,34.422,33.8,-0.0306,-0.0693,9.7381,0.7023,-0.0428,1.3187
7185,1154,709,34.394,33.782,0.058,-0.0165,9.794,-0.8963,-0.5791,-0.3432
7190,1152,714,34.43,33.851,0.0193,0.0404,9.862,-0.0453,-0.4555,-0.6298
7195,1160,724,34.485,33.956,0.0239,0.0304,9.739,-0.0311,0.0097,-0.7872
7200,1163,727,34.477,33.866,0.0067,0.0241,9.7878,-0.9538,0.3551,0.2041
7205,1172,739,34.491,33.948,0.0681,-0.0328,9.842,0.671,0.0334,0.1444
7210,1167,743,34.461,33.887,0.0353,0.0115,9.7218,0.2013,-0.2696,-0.6347
7215,1174,755,34.332,33.989,-0.0394,-0.0073,9.796,0.5207,-0.3606,0.004
7220,1181,766,34.368,33.935,-0.1209,0.0502,9.869,-0.7476,-0.6145,-0.6574
7225,1185,772,34.353,33.891,-0.0099,0.0301,9.841,-0.8244,0.2624,-0.2184
7230,1191,773,34.445,33.901,0.0808,-0.0244,9.8155,-1.1417,-0.3192,0.5447
7235,1191,788,34.433,33.901,-0.0336,-0.0848,9.8461,0.2706,0.0958,0.5019
7240,1181,792,34.421,33.865,-0.0136,0.0309,9.8713,-0.0145,-0.3353,-0.4677
7245,1180,796,34.45,33.915,-0.08,0.031,9.8421,-0.0791,-0.4082,-0.178
7250,1183,811,34.404,33.976,-0.0041,-0.1129,9.8523,0.1369,-0.3045,-0.1673
7255,1194,819,34.458,33.841,-0.0067,-0.0312,9.7067,-0.9667,0.4876,0.1553
7260,1180,831,34.424,33.936,-0.0311,-0.1359,9.8456,-0.3187,-0.525,-0.0602
7265,1183,831,34.48,33.928,0.0475,0.0308,9.8437,-0.6332,0.8203,0.8674
7270,1183,841,34.35,33.931,0.0224,-0.0455,9.7326,-0.6817,-0.2248,0.1058
7275,1178,844,34.473,33.898,0.0814,0.0099,9.8044,0.5845,-0.1792,0.0755
7280,1174,851,34.424,33.91,-0.0268,0.0733,9.7812,0.3866,-0.3823,-0.3705
7285,1183,863,34.502,33.94,-0.0861,-0.0237,9.8436,0.1021,0.8731,0.5475
7290,1182,863,34.513,33.993,0.0668,0.0005,9.799,0.4952,-0.7242,0.3303
7295,1177,866,34.334,33.878,0.0201,0.0111,9.7531,0.266,0.4798,0.0764
7300,1175,875,34.358,33.843,0.0066,-0.018,9.8565,0.7905,-0.1336,-0.0642
7305,1167,884,34.484,33.918,0.0893,-0.0018,9.7476,0.4706,0.7269,0.0572
7310,1170,885,34.397,33.919,-0.0286,0.0014,9.8338,-0.0585,-0.4325,1.1148
7315,1159,894,34.454,33.977,0.0406,-0.0468,9.7583,-0.2629,0.4745,0.1141
7320,1164,900,34.523,34.005,0.0558,0.0644,9.8184,-0.9175,-0.5285,1.1465
7325,1161,898,34.427,33.867,-0.0297,-0.0089,9.7424,0.303,-0.7854,0.0896
7330,1156,905,34.414,33.915,0.0354,0.0525,9.7834,-0.045,-0.715,0.0763
7335,1141,903,34.581,33.908,-0.0263,0.0207,9.7647,0.217,0.545,0.1929
7340,1145,909,34.517,33.941,0.0219,0.0341,9.7969,-0.649,-0.489,-0.4675
7345,1138,911,34.379,33.853,-0.0233,0.0819,9.6768,1.1196,-0.1701,-0.4249
7350,1128,910,34.503,34.008,0.0249,-0.0358,9.7024,-0.3618,-0.1069,0.5278
7355,1132,912,34.403,33.904,-0.0841,-0.0138,9.8043,-0.426,0.2732,-0.2242
7360,1128,918,34.41,33.928,0.0667,0.0173,9.8246,-0.0735,0.1245,-0.1264
7365,1133,918,34.45,33.884,-0.0469,-0.0663,9.8413,0.9529,0.3768,0.8656
7370,1128,920,34.368,33.857,0.0241,0.0703,9.8527,-0.2356,0.6077,0.2919
7375,1119,928,34.405,33.856,-0.0101,-0.049,9.7892,0.5551,0.0303,-0.0097
7380,1117,923,34.35,33.868,0.0455,-0.0019,9.7958,-0.2683,-0.1568,0.1394
7385,1116,922,34.406,33.829,0.0343,-0.0036,9.8932,-0.0753,-0.6027,-0.1471
7390,1113,922,34.371,34.013,-0.0108,0.0337,9.8544,0.1167,-0.1393,0.136
7395,1112,927,34.392,33.823,0.0685,0.0299,9.8461,-0.7399,0.6157,0.2676
7400,1107,922,34.368,33.896,0.0214,-0.0194,9.8089,0.2069,-0.4819,-0.1445
7405,1102,921,34.378,33.934,0.0167,-0.0291,9.8129,-0.1104,0.1576,-0.286
7410,1103,916,34.369,33.925,-0.0292,-0.0023,9.9186,-1.3421,-0.2095,0.3177
7415,1101,916,34.382,33.882,-0.0304,0.0088,9.8022,0.5127,-0.4061,0.0711
7420,1090,917,34.477,33.913,0.0222,0.0826,9.8195,-0.0783,-0.5408,-0.528
7425,1099,913,34.343,33.931,0.077,-0.0307,9.8162,-1.1948,-0.4897,1.151
7430,1098,916,34.52,33.814,0.0537,0.0704,9.8153,-0.0017,-0.153,-0.1359
7435,1091,913,34.414,33.954,-0.0228,-0.0098,9.7648,0.6266,0.3518,0.4972
7440,1089,910,34.482,33.868,0.06,0.0054,9.8516,-0.2706,-0.1068,0.2104
7445,1083,904,34.475,33.935,0.0569,-0.0061,9.8975,0.4306,-0.8547,-0.4951
7450,1085,906,34.469,33.933,-0.023,-0.045,9.7708,0.8452,-0.5612,0.1821
7455,1087,908,34.372,33.86,-0.0238,-0.0239,9.7915,0.3304,0.6976,-0.3141
7460,1093,902,34.429,33.881,0.0772,-0.0183,9.8187,-0.1576,-0.0168,-0.2358
7465,1075,900,34.352,33.867,-0.0066,-0.0473,9.7661,0.1781,0.6769,0.353
7470,1072,899,34.486,33.836,-0.0338,-0.0535,9.9108,0.0116,-1.0739,-0.2815
7475,1067,892,34.378,33.895,-0.0214,-0.0588,9.7488,-1.5213,-0.1313,0.1553
7480,1079,896,34.448,33.959,-0.0675,-0.0581,9.7981,-0.1153,-0.5985,-0.2417
7485,1068,888,34.458,33.895,-0.021,0.0227,9.8378,0.3478,0.0319,0.4615
7490,1058,888,34.382,33.964,0.0434,0.0519,9.7648,-0.405,0.9614,0.5292
7495,1068,887,34.449,34.0,-0.0499,-0.1096,9.8206,1.0167,0.4821,0.3126
7500,1057,884,34.403,33.841,-0.0247,0.0056,9.7506,1.0863,0.0247,-0.8674
7505,1055,888,34.504,33.921,0.0368,-0.0312,9.8543,-0.5761,0.2372,-0.0663
7510,1053,879,34.445,33.962,0.0283,0.0205,9.9205,-1.1386,0.508,0.1061
7515,1045,880,34.388,33.87,0.0068,-0.0159,9.7631,1.09,-0.1229,-0.0533
7520,1042,879,34.417,33.956,-0.0083,-0.0244,9.7793,-0.9184,-0.0201,0.6008
7525,1037,879,34.452,33.976,-0.0478,0.0524,9.8269,0.4067,-0.1099,0.6759
7530,1028,876,34.418,33.89,-0.0171,-0.0428,9.8058,0.3142,-0.3375,0.6587
7535,1023,871,34.467,33.929,-0.0148,-0.0139,9.775,-0.8336,0.1344,-0.2997
7540,1021,867,34.395,33.925,-0.011,-0.0922,9.9189,0.2902,-0.0359,0.3294
7545,1016,868,34.353,33.88,0.0047,0.0096,9.8113,-0.3874,-0.5589,-0.6734
7550,1000,871,34.439,33.909,0.0731,0.0514,9.8639,0.1894,-0.6246,0.3533
7555,1009,869,34.372,33.882,-0.0572,-0.0107,9.8607,-0.1519,-0.0194,0.5623
7560,989,862,34.368,33.918,-0.0762,0.0996,9.8059,-1.3073,0.1781,-0.4237
7565,989,861,34.413,33.997,0.1095,-0.0704,9.8838,-0.8236,0.3247,0.0862
7570,982,857,34.384,33.895,0.0469,0.0417,9.8238,-0.011,0.3033,-0.3334
7575,980,859,34.378,33.892,-0.0356,-0.0703,9.9179,-0.2845,0.2233,0.3333
7580,964,857,34.315,33.925,0.0094,-0.0818,9.7856,-0.35,0.0147,-0.6306
7585,955,853,34.365,33.891,-0.0622,-0.0328,9.8158,-0.4145,-0.1106,-0.5346
7590,955,855,34.359,33.964,0.0289,0.0325,9.7646,1.3834,-0.2529,-0.3149
7595,947,855,34.394,33.917,-0.0134,0.0635,9.8748,0.6425,0.1243,0.021
7600,924,855,34.448,33.945,-0.034,0.0267,9.7783,-0.3338,-0.2158,-0.6828
7605,926,853,34.432,33.97,0.0351,0.0503,9.831,1.3111,-0.0359,0.3865
7610,910,851,34.49,33.936,-0.0035,0.0424,9.8549,1.5159,-1.1491,0.574
7615,905,848,34.432,33.889,0.0176,-0.0127,9.7952,0.8242,-0.785,-0.5144
7620,914,847,34.466,33.892,0.075,-0.1626,9.8451,0.5737,-0.8678,0.104
7625,899,842,34.376,33.969,0.0118,0.0127,9.7373,0.5015,-0.8124,-0.1241
7630,885,841,34.371,33.922,0.058,-0.0694,9.7651,0.3272,-0.3152,0.094
7635,869,842,34.397,33.936,0.0369,0.0112,9.8055,0.2463,0.5989,-0.1447
7640,878,839,34.39,33.882,0.0382,-0.0041,9.7647,0.6931,0.3351,0.2184
7645,846,834,34.403,33.937,0.0123,-0.0103,9.8817,0.5908,0.5667,0.1289
7650,846,832,34.333,33.922,0.0004,0.0136,9.8622,-0.4168,-0.2632,-0.2542
7655,844,831,34.401,33.916,-0.0094,0.0605,9.8158,-0.2775,-0.3659,0.2901
7660,831,824,34.363,33.854,-0.1301,0.0499,9.8746,0.1395,0.2561,-0.6951
7665,819,824,34.387,33.889,0.0138,0.1097,9.9193,0.4716,0.1629,0.4741
7670,815,816,34.467,33.905,-0.0452,0.0486,9.8032,0.3491,1.0083,0.4169
7675,804,814,34.403,33.89,-0.0541,0.0111,9.8257,-1.1611,-0.4401,-0.8758
7680,808,816,34.337,33.921,0.0415,0.0058,9.7483,-0.5217,0.8473,-0.0726
7685,797,808,34.401,33.899,0.0721,0.0139,9.7892,0.5785,0.5003,-0.2287
7690,788,806,34.421,33.816,0.0078,-0.0159,9.818,-0.4085,-0.4686,0.7658
7695,782,799,34.369,33.957,-0.0491,0.0445,9.8438,-0.6129,-0.2323,0.51
7700,772,797,34.445,33.921,0.0762,-0.0001,9.7664,1.7593,-0.1531,0.5131
7705,767,794,34.336,33.815,-0.0275,-0.0815,9.8754,0.193,-0.1933,-0.1541
7710,761,787,34.326,33.949,0.0112,-0.0503,9.7271,0.0426,0.2317,0.2146
7715,757,776,34.417,33.839,0.0289,0.0577,9.7082,0.5323,0.2911,-0.1154
7720,765,773,34.319,33.844,0.0063,0.0265,9.9042,0.3549,0.1701,-0.2655
7725,757,769,34.407,33.921,-0.0211,-0.0032,9.8962,1.2239,-0.0427,0.5536
7730,748,760,34.39,33.894,-0.0621,-0.0378,9.6996,-1.2556,0.316,0.195
7735,747,762,34.472,33.873,-0.0886,0.0657,9.7628,0.1932,-0.2493,-0.4851
7740,752,756,34.405,33.918,-0.0901,-0.0291,9.8613,0.728,-1.6609,0.4004
7745,742,748,34.48,33.952,-0.0707,-0.0642,9.7972,0.168,-0.0075,-0.1896
7750,745,735,34.519,33.92,0.0482,-0.0641,9.7611,-0.0765,-0.5589,-0.4625
7755,754,734,34.392,33.914,0.0283,-0.0233,9.7787,0.6036,0.3578,0.0879
7760,744,729,34.449,33.916,0.0681,0.0518,9.8724,0.134,-0.8809,-0.4263
7765,753,724,34.42,33.88,0.0158,0.0957,9.8314,-0.1453,-0.476,-0.0973
7770,754,724,34.411,33.852,0.0456,0.0003,9.8514,-0.2579,0.0041,-0.4096
7775,753,713,34.505,33.88,0.0209,0.0041,9.8702,0.3739,-0.191,-0.1227
7780,771,712,34.421,33.843,-0.0072,-0.0759,9.8591,-0.875,0.4487,-0.3298
7785,769,705,34.359,33.973,-0.0763,0.0185,9.7661,0.1615,0.366,-0.6996
7790,773,696,34.488,33.889,0.018,-0.0659,9.8568,0.2453,0.3422,-0.2309
7795,773,688,34.435,34.04,0.0215,0.0527,9.8763,-0.0914,0.6654,-0.7693
7800,784,686,34.393,33.891,0.0596,0.0109,9.8773,0.1232,0.8356,-0.7006
7805,795,681,34.489,33.916,-0.0753,-0.0416,9.7816,0.663,-0.259,0.202
7810,806,672,34.481,33.866,-0.0943,0.0243,9.9049,0.0864,0.2091,0.255
7815,803,675,34.402,33.889,0.0004,0.0727,9.7745,0.124,-0.1468,0.3541
7820,816,672,34.402,33.94,0.0162,-0.0074,9.7904,-0.0274,-0.2455,0.0025
7825,826,660,34.346,33.917,0.0459,-0.0361,9.8323,0.3885,-0.2104,-0.5501
7830,843,661,34.405,33.829,-0.013,-0.0539,9.8159,-0.477,-0.1214,0.7362
7835,846,650,34.461,33.93,0.035,0.0531,9.7943,-0.0195,-0.1342,0.0683
7840,864,648,34.434,34.002,-0.0027,0.0361,9.7608,0.0641,-0.074,-0.6605
7845,869,643,34.375,33.892,0.0673,-0.003,9.7897,-0.2086,0.7132,-0.1287
7850,885,642,34.426,33.848,0.0628,-0.0691,9.8195,0.7098,0.7976,0.1412
7855,900,636,34.5,33.95,0.0101,-0.0495,9.9435,0.1569,-0.3979,-0.9527
7860,899,637,34.414,33.906,-0.0294,0.0292,9.7518,0.1811,-0.361,-0.0578
7865,909,642,34.492,34.001,0.0156,-0.0365,9.7945,-0.5734,0.6956,-1.0114
7870,928,640,34.515,33.843,0.0275,-0.0354,9.7983,0.291,-0.3839,0.1485
7875,951,637,34.471,33.959,-0.0175,0.0023,9.7715,0.0059,0.0428,0.6112
7880,956,638,34.525,33.901,0.034,0.0185,9.8264,0.8495,0.7063,0.26
7885,965,633,34.438,33.928,-0.0296,-0.001,9.7963,0.0362,-0.4376,-0.1177
7890,985,634,34.335,33.973,-0.0065,0.0309,9.8526,-0.2726,0.032,0.5552
7895,989,638,34.426,33.91,-0.0602,-0.0274,9.884,-0.0857,0.1286,0.4381
7900,1008,643,34.315,33.93,-0.0701,-0.0023,9.7155,-1.3614,-0.5887,0.6889
7905,1019,640,34.478,33.981,-0.0007,0.0042,9.7877,0.5861,-0.067,-0.4584
7910,1031,650,34.461,33.944,0.0278,0.0454,9.9201,-0.1298,0.258,-0.5228
7915,1034,644,34.424,33.885,-0.0454,0.0803,9.8365,-0.1053,0.7134,0.2628
7920,1053,652,34.411,33.997,-0.0743,-0.0529,9.7714,-0.8359,0.0251,0.0709
7925,1065,656,34.396,33.904,0.0024,-0.0753,9.8154,0.1619,0.0289,-0.0356
7930,1063,659,34.419,33.919,0.0047,0.0074,9.7079,0.6731,0.2057,-0.0811
7935,1088,661,34.48,33.985,-0.0701,0.053,9.7372,0.3103,-0.2567,0.354
7940,1090,669,34.365,34.009,0.0058,0.0296,9.8124,0.797,-0.3414,-0.4772
7945,1097,674,34.372,33.937,-0.0186,-0.0087,9.7718,-0.363,-0.358,0.6433
7950,1112,675,34.465,33.846,-0.0494,-0.0178,9.8663,0.5222,0.892,-0.0256
7955,1115,682,34.43,33.921,-0.0551,0.0032,9.8684,0.5861,0.4592,0.4127
7960,1121,686,34.453,33.942,0.0129,-0.0403,9.8548,0.3263,0.5852,-0.0476
7965,1142,688,34.416,33.911,0.0356,0.0969,9.8059,-0.35,0.0715,-1.3526
7970,1145,698,34.393,33.936,0.0332,-0.0749,9.8129,0.3859,0.145,0.5272
7975,1159,708,34.374,33.973,-0.0276,-0.0132,9.8467,0.0728,-0.2101,0.213
7980,1150,708,34.452,33.843,-0.046,0.0814,9.8738,0.5787,-0.4797,-0.4697
7985,1159,725,34.432,33.859,-0.0155,-0.026,9.7995,0.3529,0.7862,0.2971
7990,1160,730,34.362,33.893,0.0752,-0.0221,9.7577,0.2387,-0.2435,-0.1757
7995,1176,736,34.419,33.975,-0.0368,0.0797,9.7822,-0.1121,0.7733,0.2945
8000,1178,744,34.387,33.966,-0.009,0.0563,9.8149,0.0887,0.0762,-0.0218
8005,1172,753,34.456,33.886,-0.0189,-0.0054,9.7268,0.1188,0.6284,-0.278
8010,1179,760,34.405,33.965,0.0123,0.0036,9.8721,0.065,-0.472,-0.3042
8015,1184,770,34.384,34.055,-0.0272,0.0001,9.767,0.6469,0.3057,0.0802
8020,1179,774,34.498,33.931,0.0802,0.0122,9.8231,-0.0699,-0.4066,1.2909
8025,1188,779,34.406,33.92,-0.0544,0.0612,9.8358,0.5936,0.278,0.1919
8029,1192,792,34.389,33.866,-0.095,-0.0632,9.799,0.1417,-0.0875,-0.1557
8035,1183,800,34.385,33.874,0.0022,-0.0532,9.7542,-0.1125,0.5451,-0.493
8039,1191,809,34.345,33.908,0.0097,-0.0107,9.7702,-0.0161,-0.7722,-0.348
8045,1181,810,34.486,33.888,0.0025,0.0592,9.8151,0.0349,0.3492,-0.4598
8050,1187,828,34.406,33.879,0.0088,-0.0143,9.8118,0.116,0.7437,-0.3766
8055,1196,827,34.486,33.898,0.0248,-0.0075,9.9208,-0.1212,0.3033,0.297
8060,1182,838,34.447,33.923,-0.0202,-0.0577,9.7839,0.1184,0.3814,-0.6862
8064,1191,845,34.293,33.921,0.0523,-0.0279,9.7842,-0.0988,0.8283,0.2537
8070,1187,850,34.424,33.86,0.0447,0.022,9.7955,-0.1416,0.0071,0.0962
8074,1186,852,34.511,33.891,0.0237,-0.029,9.806,-0.2701,-0.4306,0.4697
8080,1171,858,34.379,33.877,-0.0473,-0.0462,9.8326,-0.1122,-0.2704,0.2171
8085,1171,870,34.4,33.893,0.0314,-0.0445,9.7654,-0.9461,-1.0904,0.1139
8090,1165,880,34.374,33.875,0.0151,-0.0369,9.7884,-0.265,0.2478,0.1024
8095,1160,875,34.388,33.859,0.0249,0.0983,9.8384,-0.2539,0.216,0.5089
8100,1173,878,34.473,33.861,-0.0012,0.0158,9.8798,0.1918,0.5081,-0.6362
8105,1165,890,34.449,33.895,-0.0136,0.0411,9.7714,0.6594,-0.0947,0.2687
8109,1154,890,34.404,33.928,0.0299,-0.0961,9.8482,0.2085,-0.4085,-0.3451
8115,1152,901,34.514,33.953,0.0614,-0.0892,9.7456,-0.1012,-0.8256,0.1811
8119,1154,904,34.451,33.865,-0.0503,-0.0512,9.8362,-0.474,0.1893,0.3614
8125,1162,909,34.373,33.929,-0.0288,-0.0083,9.7747,-0.4068,0.1181,0.1068
8130,1140,911,34.392,33.931,-0.0813,0.0838,9.7951,-0.6355,0.8156,0.4019
8135,1143,917,34.471,33.967,0.1142,-0.0791,9.764,-0.7293,-0.2125,-0.3439
8140,1146,914,34.454,33.912,0.0796,-0.0518,9.8169,0.0327,-0.5128,-0.9521
8145,1138,916,34.381,33.998,0.0141,-0.0285,9.9463,-0.7464,0.0006,0.5272
8150,1135,919,34.389,33.97,-0.0245,0.0276,9.7353,-1.6248,0.7047,0.2046
8154,1138,918,34.404,33.924,-0.0511,0.0089,9.8611,0.0883,-0.1842,0.3181
8160,1130,916,34.396,34.016,-0.0725,0.0005,9.8819,-0.175,0.0567,-0.0987
8164,1126,919,34.43,33.853,0.0243,0.0472,9.8657,-0.6403,0.7835,-0.9696
8170,1118,917,34.421,33.962,-0.0516,-0.0279,9.882,0.293,0.4567,0.7567
8175,1114,924,34.476,33.997,-0.0284,-0.017,9.8101,-0.2252,-0.2141,-0.5395
8180,1118,928,34.568,33.93,-0.0163,0.033,9.8567,0.0607,-0.1928,0.3445
8185,1116,922,34.412,33.892,-0.0684,-0.0368,9.7722,0.3635,0.2619,-0.3931
8189,1102,922,34.362,33.978,0.0195,0.0729,9.8733,-0.9672,-1.1265,0.0199
8195,1112,918,34.428,33.897,-0.0525,-0.0098,9.8377,-0.2059,-1.0373,0.0249
8200,1106,919,34.512,33.965,-0.0546,-0.0177,9.9175,0.3499,0.8292,-0.2617
8205,1103,918,34.449,33.814,0.123,0.0025,9.7853,-0.0342,0.2589,-0.4541
8210,1103,916,34.464,34.0,-0.0782,0.041,9.8336,0.7231,-0.52,0.8893
8215,1096,913,34.381,33.915,-0.0669,0.0493,9.847,-0.4843,0.5094,0.5091
8220,1092,915,34.4,33.952,-0.0008,-0.0041,9.8136,-0.8342,-0.15,0.1097
8225,1091,905,34.444,33.872,0.0719,0.0411,9.8235,0.5224,-0.4196,-0.629
8230,1087,914,34.462,33.996,0.0008,-0.0504,9.8821,0.5323,0.4547,-0.0758
8235,1094,907,34.437,33.874,0.0401,0.0011,9.8063,0.0189,-0.0888,0.208
8240,1083,904,34.375,33.966,-0.0394,0.0657,9.7199,0.2922,-0.4302,-0.2682
8245,1083,899,34.389,33.881,-0.0279,-0.0687,9.7957,0.4251,0.6884,0.3012
8250,1088,905,34.401,33.852,0.0475,0.055,9.8042,0.7777,0.4176,0.2157
8255,1078,903,34.414,33.961,0.0349,0.0204,9.7362,-0.4452,-0.2032,0.567
8260,1078,898,34.32,33.858,-0.0122,0.0513,9.7668,-0.7247,-0.0359,-0.9586
8265,1071,900,34.386,33.92,-0.0636,0.0328,9.7779,-0.2258,-0.0071,0.3656
8270,1081,890,34.5,33.908,-0.0126,0.0507,9.8604,0.3362,0.6205,0.5589
8275,1065,889,34.415,33.981,-0.0629,0.0825,9.7713,0.1647,0.9981,0.6263
8280,1070,888,34.418,33.96,0.062,0.0102,9.8553,-0.4028,-0.5246,-0.3182
8285,1066,886,34.404,33.889,0.0418,-0.0516,9.8657,-0.2777,0.3023,0.073
8290,1063,884,34.414,33.895,0.0397,0.0126,9.8385,0.0504,-0.5348,-0.0489
8295,1059,882,34.436,33.799,0.0392,0.0313,9.8344,0.677,0.4965,-1.2865
8300,1064,882,34.372,33.895,0.0208,0.0241,9.7388,0.1777,-0.3998,0.3081
8305,1048,875,34.355,33.927,0.0564,-0.0367,9.7267,0.1024,0.2005,-0.3648
8310,1048,877,34.437,33.86,-0.048,0.0028,9.7655,0.2542,-0.2288,-0.866
8315,1044,883,34.307,33.925,-0.0193,0.0434,9.7838,0.9157,0.3696,0.1918
8320,1038,871,34.426,34.004,0.0681,0.087,9.8043,-0.106,-0.8266,-0.1631
8325,1042,873,34.532,33.893,-0.0387,-0.0607,9.8026,0.0411,0.3489,-0.2512
8330,1028,866,34.443,33.963,-0.0726,-0.0796,9.9009,0.5075,-0.7672,-0.058
8335,1023,870,34.355,33.982,-0.0616,-0.0044,9.8018,-0.5547,-0.1733,0.0797
8340,1002,863,34.421,33.971,0.0056,-0.0536,9.7745,0.0365,0.9393,0.8414
8345,1001,866,34.401,33.954,0.0087,0.0493,9.8099,-0.6543,0.0374,-0.1032
8350,999,866,34.414,33.88,0.0247,0.0088,9.8163,0.0907,-0.0744,0.9538
8355,992,860,34.338,33.954,-0.0297,0.0006,9.9259,0.1273,0.1722,0.4781
8360,991,860,34.412,33.889,0.0617,-0.033,9.7864,-0.2825,-0.2406,0.2436
8365,986,862,34.388,33.858,-0.0722,0.0269,9.7645,-0.1666,-0.0769,-1.0357
8370,977,860,34.404,34.016,0.053,-0.0493,9.9263,0.7251,-0.7763,-0.304
8375,961,859,34.417,33.967,-0.0875,-0.0672,9.8255,-0.3209,0.5965,-0.6786
8380,961,856,34.418,33.844,-0.039,0.0263,9.8014,-1.1999,0.0568,-0.0757
8385,954,858,34.411,33.908,-0.0159,-0.0782,9.8834,0.1823,-0.441,0.685
8390,953,853,34.377,33.797,0.0034,0.0221,9.891,0.998,-0.6076,-0.1525
8395,921,854,34.502,33.939,-0.0591,-0.0153,9.743,0.2434,-0.16,0.4228
8400,922,851,34.399,33.862,0.0391,-0.0369,9.7903,-0.0632,0.1562,-0.1355
8405,920,846,34.373,33.908,0.0734,-0.0507,9.8224,0.4474,0.6302,0.4871
8410,896,849,34.409,33.912,0.0186,0.0551,9.761,0.3565,-0.9219,0.2033
8415,891,846,34.394,33.934,-0.0435,0.0027,9.8247,0.098,-0.742,-0.493
8420,875,840,34.419,33.908,-0.0096,-0.0268,9.8382,-0.1044,-0.4279,-0.508
8425,873,840,34.481,33.971,0.0291,0.0118,9.7345,0.2373,0.2027,0.5386
8430,873,839,34.484,33.797,0.0126,-0.0169,9.8319,-0.3356,-0.5446,-0.9822
