timestamp_ms,ir_finger,ir_toe,temp_finger,temp_toe,ax,ay,az,gx,gy,gz
0,1039,798,34.002,27.278,-0.0215,0.0114,9.8187,-0.0514,-0.4875,0.7884
5,1056,795,33.96,27.272,0.0428,0.0147,9.8589,0.7025,-0.0457,0.5006
10,1072,791,33.926,27.209,0.0056,0.028,9.819,0.1591,-0.3997,-1.198
15,1077,794,33.95,27.211,-0.0664,-0.0372,9.8238,-0.4199,0.0922,0.3941
20,1085,791,33.901,27.306,-0.1252,-0.0489,9.7386,-1.2154,0.6995,-0.2073
25,1102,787,33.918,27.24,0.0715,0.0203,9.8383,0.5358,0.0242,0.5206
30,1117,780,33.864,27.229,0.0088,-0.0712,9.8499,0.1023,0.3517,0.5798
35,1135,783,33.885,27.152,-0.0615,-0.1117,9.7766,-0.6736,-0.1443,-0.4593
40,1127,780,33.907,27.279,-0.0074,0.0325,9.8205,-0.4133,1.0906,0.9228
45,1145,774,33.845,27.257,-0.0075,0.0732,9.8401,-0.2125,0.5388,-0.0554
50,1152,777,33.953,27.313,0.0036,-0.0803,9.9458,0.234,-0.2776,-0.4997
55,1153,770,33.963,27.29,-0.0609,-0.1215,9.7758,0.6122,-0.1878,0.7511
60,1162,768,33.868,27.28,-0.0695,0.0448,9.8428,0.2168,0.2948,0.2703
65,1158,764,33.941,27.255,0.0554,0.0127,9.836,-0.7904,-0.3742,-0.3511
70,1171,767,33.911,27.249,-0.0414,0.0227,9.8,-0.441,-0.3935,0.6391
75,1168,763,33.982,27.233,0.0862,-0.0831,9.7785,-0.7849,0.4146,-0.7381
80,1179,758,34.103,27.222,0.0519,0.0049,9.7106,0.7647,-0.7892,0.3687
85,1175,759,34.044,27.19,-0.0279,-0.0075,9.8127,0.3919,-0.4387,-0.6656
90,1187,758,33.904,27.294,0.0251,0.0201,9.7994,-0.3604,0.4601,0.3157
95,1189,752,33.919,27.278,-0.0549,0.0188,9.8105,-0.7047,-0.6117,0.3223
100,1195,750,33.848,27.288,0.0072,0.0477,9.7933,-0.196,1.1819,0.8715
105,1190,748,33.892,27.242,0.0666,-0.0328,9.7923,0.3251,-0.5522,-0.176
110,1196,743,33.9,27.21,-0.0455,0.0321,9.8119,0.1309,-0.2719,0.0971
115,1189,744,33.827,27.147,-0.02,-0.0039,9.8836,0.9024,0.8779,-0.0271
120,1191,744,33.9,27.144,-0.0122,0.0357,9.8331,0.0036,-0.7409,0.2207
125,1193,741,33.926,27.302,-0.0396,-0.089,9.8668,0.4806,0.2129,-0.0458
130,1181,739,33.94,27.21,0.016,0.0628,9.8153,-0.484,-0.0663,-0.3018
135,1178,739,33.867,27.155,-0.0247,-0.0027,9.7713,0.1116,0.0696,-0.1513
140,1182,735,33.899,27.345,0.0942,-0.0096,9.7419,0.8063,-0.7738,-0.0992
145,1182,742,33.989,27.237,-0.03,-0.0612,9.8532,0.1578,0.0845,-0.407
150,1172,736,33.899,27.177,-0.0793,0.0454,9.7979,0.4163,0.0257,-0.2819
155,1169,741,33.934,27.232,0.0469,0.0475,9.8104,0.6399,0.4453,0.5463
160,1175,735,33.925,27.133,-0.0682,-0.0182,9.7988,0.8079,0.1684,-0.0243
165,1168,744,33.93,27.3,-0.0794,0.0217,9.8366,-0.1749,0.1784,-0.0381
170,1164,736,33.882,27.301,0.0319,0.0368,9.7799,-0.0176,-0.5585,0.0986
175,1156,739,33.878,27.243,-0.036,-0.0998,9.7426,-1.0518,0.0791,0.7463
180,1149,740,33.917,27.237,0.04,-0.0548,9.7974,-0.5772,0.3872,0.9269
185,1138,736,33.968,27.204,0.0369,-0.052,9.8193,-0.2023,0.1453,0.1315
190,1146,740,33.943,27.235,0.0399,0.0874,9.8612,0.0138,0.4241,-0.2412
195,1146,746,33.935,27.233,-0.0697,-0.1149,9.7256,-0.7427,-0.4623,-0.0059
200,1132,743,33.932,27.193,0.0791,0.0195,9.8018,0.5968,0.0759,-0.2879
205,1135,745,34.035,27.182,0.0138,-0.0144,9.8103,-0.0072,0.3385,-0.0796
210,1133,751,33.942,27.262,0.0722,-0.0415,9.876,-1.1102,0.6704,0.014
215,1133,749,33.933,27.252,0.011,0.0534,9.8009,0.273,-0.6097,0.1966
220,1124,752,33.923,27.186,0.0428,0.0272,9.8794,0.0482,0.7007,-0.2834
225,1120,758,33.939,27.162,-0.0548,-0.0783,9.8153,-0.1549,0.1508,0.3512
230,1116,752,33.876,27.164,-0.0304,-0.0004,9.7604,0.677,-0.3047,-0.666
235,1113,760,33.922,27.163,-0.0644,0.0164,9.8377,0.3245,0.0304,-0.3576
240,1118,767,34.022,27.212,0.0097,0.0153,9.856,0.5562,-0.4685,0.0485
245,1115,769,33.989,27.195,0.0485,-0.0283,9.8649,0.4163,0.3991,0.1726
250,1107,770,33.929,27.159,0.038,-0.0092,9.7513,0.3115,-0.1235,0.0939
255,1100,775,33.888,27.166,0.07,-0.0333,9.9314,-0.4904,-0.6355,0.0882
260,1095,777,33.932,27.312,-0.0955,0.0393,9.7749,0.6304,-0.0762,-0.6659
265,1093,782,33.87,27.151,-0.0638,-0.0035,9.9178,-0.2523,-0.3934,-0.6256
270,1103,775,33.895,27.284,-0.0227,0.051,9.7728,1.0031,0.2421,0.4919
275,1090,791,33.836,27.254,-0.0523,-0.022,9.871,0.009,-1.0376,0.59
280,1089,792,33.861,27.192,-0.035,-0.0122,9.7851,-0.6495,0.3284,0.0493
285,1085,790,33.988,27.263,-0.0111,-0.028,9.7503,0.1898,0.393,0.4125
290,1093,795,33.852,27.224,-0.0126,0.0097,9.7713,0.0148,-0.3576,-1.1152
295,1085,803,34.017,27.289,0.0285,-0.0619,9.8179,0.4865,-0.0683,-0.0727
300,1079,806,33.974,27.249,-0.056,-0.0273,9.8641,0.8967,-0.2167,-0.4551
305,1080,803,33.934,27.26,-0.0841,-0.0933,9.7463,-0.1854,0.4578,0.2769
310,1070,807,33.972,27.269,-0.0278,-0.052,9.811,0.5387,-0.1841,-0.1119
315,1076,813,34.042,27.146,-0.0244,0.0097,9.8206,-0.9474,-1.2599,0.661
320,1079,817,33.843,27.232,0.0095,0.0515,9.7993,-0.6011,-0.6841,0.1479
325,1065,821,33.872,27.288,0.0731,-0.0704,9.8828,0.5682,-0.9538,-0.6429
330,1060,821,33.91,27.238,-0.0046,-0.0028,9.822,-0.6657,0.3187,-0.7976
335,1055,826,33.876,27.264,0.0941,-0.0357,9.7949,-0.0877,-0.0801,0.0883
340,1052,825,33.932,27.21,0.0196,-0.1021,9.7598,0.3971,0.7543,1.1773
345,1046,826,33.907,27.193,0.0257,-0.0383,9.855,0.1205,0.7302,-0.2887
350,1039,830,33.789,27.2,0.0066,-0.0334,9.7815,0.536,0.1842,0.7492
355,1030,828,33.877,27.268,0.0011,-0.0553,9.858,-0.6895,0.8378,0.4127
360,1023,836,33.882,27.265,-0.1113,0.0698,9.8789,0.6553,0.3801,-0.4814
365,1021,841,33.921,27.204,-0.006,-0.0017,9.7014,-0.776,0.3766,-0.2575
370,1020,837,33.914,27.175,0.0392,-0.0717,9.8373,-0.2573,-0.4599,0.9457
375,1009,840,33.988,27.185,-0.0458,0.0144,9.7574,0.3484,0.2608,-0.4578
380,996,841,33.874,27.286,0.0495,-0.052,9.8783,-0.1351,-0.4471,-0.3305
385,994,841,33.952,27.255,-0.0641,-0.055,9.7879,-0.0874,-0.832,-0.1805
390,976,848,33.958,27.18,0.0076,-0.0437,9.8352,0.6689,-0.3147,-0.3232
395,984,843,33.998,27.257,-0.1028,-0.0123,9.8769,-0.5132,0.6755,1.1357
400,961,845,33.874,27.242,-0.0562,-0.0048,9.8286,0.6108,-0.5911,-0.5898
405,962,847,33.885,27.237,-0.0932,0.0327,9.7585,0.3366,-0.7363,-0.2085
410,956,845,33.942,27.279,0.0521,-0.0254,9.8147,1.1911,0.1964,0.0085
415,935,844,33.885,27.2,-0.0069,-0.0234,9.7366,-0.4042,0.0085,0.1651
420,932,843,33.923,27.254,0.0261,-0.0036,9.841,0.6828,-0.4534,-0.1013
425,924,842,33.884,27.29,0.013,0.0002,9.9096,0.0243,0.5054,0.7399
430,909,850,33.864,27.202,0.0722,-0.0824,9.7966,-0.1027,0.0891,-0.7582
435,908,840,33.83,27.212,0.0894,0.0875,9.7508,-0.0091,0.1967,0.1475
440,888,845,33.975,27.341,0.0422,-0.0568,9.8226,0.2615,0.0663,-0.7571
445,870,845,33.938,27.234,-0.0853,-0.1108,9.7546,-0.1824,-0.222,-0.4574
450,871,844,33.905,27.159,-0.0124,-0.0023,9.7614,-0.2249,0.2078,0.5322
455,859,842,33.977,27.169,-0.0594,0.1114,9.8041,0.2534,0.5683,-0.6699
460,849,843,33.995,27.228,-0.0093,-0.0276,9.816,0.1229,0.1184,-0.0732
465,835,840,34.023,27.264,-0.0074,0.0439,9.8776,-0.0075,-0.1461,-0.0827
470,830,841,33.871,27.301,0.0364,-0.1188,9.8707,-0.1828,-0.2192,-0.5115
475,824,842,33.992,27.171,-0.0625,-0.0247,9.7907,0.0362,0.2907,-0.549
480,808,840,33.927,27.172,-0.0317,0.0151,9.7863,-0.2254,0.2226,0.34
485,805,834,33.935,27.125,0.0312,0.03,9.7845,-0.2559,0.3086,-0.7769
490,801,836,33.928,27.288,0.0252,-0.0599,9.7468,0.2689,-0.0012,0.1265
495,795,840,33.834,27.268,0.0993,0.024,9.8378,-0.3439,-0.1882,-0.2719
500,781,836,34.016,27.193,0.0619,-0.0049,9.8487,0.3545,-0.3817,0.1232
505,765,830,33.898,27.2,0.0551,-0.0434,9.8026,0.4127,-0.3092,0.306
510,767,831,33.889,27.318,-0.0285,0.0267,9.9404,-1.1069,-0.9151,-0.153
515,769,832,33.961,27.176,-0.0525,-0.0781,9.7696,-0.3941,0.9423,0.9944
520,764,835,33.871,27.245,-0.0344,0.06,9.7244,0.6598,0.0453,-0.1095
525,748,833,33.983,27.361,0.0083,-0.0424,9.7819,0.2397,0.2876,-0.5978
530,751,832,33.895,27.284,0.0326,-0.0907,9.755,0.901,-0.1929,-0.0638
535,756,831,34.006,27.214,-0.0711,-0.0376,9.8107,0.1232,-0.1108,-0.3836
540,750,828,33.834,27.223,0.0162,-0.022,9.7971,0.2028,0.6534,-0.426
545,747,825,33.898,27.179,-0.0274,0.0067,9.7846,0.1825,0.1977,-0.2994
550,740,828,33.974,27.166,0.0076,0.0136,9.8894,0.3249,-0.2594,-0.3992
555,753,828,33.863,27.18,0.0438,0.0809,9.8326,-0.6684,0.4709,0.0883
560,751,826,33.926,27.233,0.0929,0.0036,9.7628,0.2442,0.6569,-0.3628
565,759,824,33.902,27.195,-0.0124,-0.0208,9.7616,-0.2088,0.5721,-0.5722
570,763,819,33.966,27.169,0.0002,0.0919,9.7662,0.7447,-0.4417,-0.5367
575,764,818,33.975,27.226,0.0703,-0.0385,9.8101,1.127,-0.2055,-0.0645
580,764,825,33.996,27.182,-0.1014,-0.0666,9.8058,-0.1081,-0.2352,0.4768
585,774,820,33.912,27.179,0.0282,0.0288,9.7323,-0.292,-0.2586,-0.7114
590,774,823,33.996,27.215,-0.0731,0.0028,9.8312,-0.2311,0.0076,-0.1998
595,792,819,33.904,27.176,-0.0075,0.0435,9.8055,0.4074,0.2841,0.2851
600,796,817,33.961,27.241,0.0166,-0.0961,9.8803,0.4649,-0.9564,0.3502
605,805,819,33.924,27.161,-0.023,0.0088,9.7354,0.0408,-0.0293,0.2096
610,823,817,33.948,27.207,-0.0171,0.0221,9.8888,-0.27,1.1452,-0.1017
615,830,816,33.952,27.171,-0.0099,0.1331,9.764,0.1215,-0.2868,0.0514
620,829,818,33.91,27.229,0.0374,0.0244,9.8441,0.3259,0.0136,-0.2218
625,863,819,33.971,27.23,-0.0013,-0.0376,9.7818,0.4454,0.6065,-0.333
630,862,811,34.031,27.161,0.0581,-0.0151,9.7996,-0.3533,0.1077,-0.0589
635,874,815,33.901,27.271,0.0343,0.0411,9.8279,-0.1428,0.5599,0.2322
640,885,815,33.96,27.222,0.024,-0.1028,9.7543,-1.2284,-0.247,-0.152
645,896,820,33.93,27.218,-0.0518,-0.001,9.8015,-0.2841,-0.2206,0.0481
650,922,811,33.934,27.139,-0.045,-0.0322,9.8229,1.0989,0.4433,0.191
655,927,809,33.892,27.239,-0.0454,0.1115,9.782,0.0358,0.1487,-0.9642
660,941,807,33.906,27.216,0.0236,0.0054,9.7832,0.3472,0.3912,-0.322
665,955,809,33.929,27.226,-0.0601,0.0902,9.8585,-0.0731,-0.3414,-0.8598
670,975,807,34.001,27.154,-0.0109,0.0443,9.8082,-0.2015,0.1447,-0.3346
675,984,809,34.004,27.225,0.0727,-0.0498,9.9385,-0.1363,-0.0859,0.4349
680,1005,806,33.959,27.19,-0.1069,-0.039,9.761,0.4868,-0.7194,-0.6584
685,1016,797,33.891,27.219,-0.0264,0.0495,9.7867,-0.1131,-0.8426,0.0405
690,1021,800,33.951,27.188,-0.0334,0.0739,9.7781,0.2452,0.4413,-0.1521
695,1049,798,33.9,27.201,0.0495,0.0567,9.7864,-0.0653,0.9293,0.1929
700,1050,797,34.018,27.216,-0.0296,0.0679,9.8375,-0.1211,0.2858,-0.6996
705,1078,794,33.925,27.24,0.0241,-0.0632,9.8295,-0.4306,-0.7136,-0.4926
710,1077,791,33.981,27.182,0.0425,0.0545,9.7519,0.0924,-0.2579,0.2684
715,1093,796,33.914,27.225,0.0507,-0.0338,9.7845,-0.4548,-0.3323,-0.2893
720,1089,784,33.972,27.204,0.0422,-0.057,9.8637,-0.3265,-0.5686,-1.1421
725,1103,786,33.96,27.258,-0.0977,-0.0691,9.9086,-0.6828,0.4274,0.5897
730,1114,781,33.866,27.254,0.0092,-0.0226,9.7712,0.964,-0.3369,0.5882
735,1131,779,33.934,27.186,-0.0269,0.0849,9.7675,0.0445,0.2222,-0.1639
740,1135,774,33.938,27.293,-0.0347,-0.0823,9.7065,0.4935,0.2595,0.7546
745,1147,775,33.898,27.254,-0.003,-0.0082,9.8542,0.5481,0.1578,-0.2936
750,1146,771,33.922,27.249,0.041,-0.037,9.7345,-0.3213,-0.2898,-0.8816
755,1153,775,34.017,27.225,0.0631,-0.0029,9.8074,0.2602,0.4846,1.2479
760,1168,769,33.916,27.224,0.015,0.0227,9.8571,-0.4048,0.7334,-0.3661
765,1171,765,33.974,27.14,0.0656,-0.142,9.8093,-0.9562,-0.294,-0.2957
770,1183,763,33.904,27.131,-0.0082,0.0025,9.8153,-0.7867,0.4425,-0.0744
775,1175,762,33.905,27.227,-0.1138,0.0386,9.8489,0.1879,0.5403,0.5843
780,1187,757,33.916,27.227,0.0116,0.0412,9.8382,-0.19,0.4598,0.0523
785,1187,761,33.928,27.363,-0.0751,0.0119,9.7784,-0.5355,0.4429,0.1848
790,1184,749,33.955,27.187,-0.0791,-0.0127,9.8521,0.1306,-0.5925,-0.0579
795,1189,749,33.932,27.203,0.1388,-0.0633,9.7754,0.1088,0.1153,-0.0824
800,1196,746,33.919,27.159,0.0731,0.0007,9.798,-0.7861,0.0652,1.4562
805,1179,749,33.959,27.138,0.0083,0.0614,9.8028,-0.7235,-0.1578,-0.8313
810,1187,740,33.899,27.251,0.0447,0.0094,9.7505,-0.0236,0.5764,0.1118
815,1189,741,34.045,27.176,-0.0014,-0.0537,9.8145,0.5056,-0.2208,0.2869
820,1181,741,33.877,27.247,0.0124,-0.1622,9.825,0.0879,-0.4857,0.4261
825,1183,741,33.949,27.303,0.0364,0.048,9.8662,-1.162,-0.3867,-0.3071
830,1181,741,33.909,27.171,-0.0476,0.0287,9.7513,0.3812,-0.5602,-0.4946
835,1181,737,33.962,27.252,0.0124,0.037,9.8286,0.0943,0.1548,-0.2116
840,1176,735,33.935,27.181,0.0324,-0.0735,9.8216,0.218,-0.6832,0.461
845,1179,741,33.919,27.159,-0.042,0.1067,9.8275,-0.2179,0.4089,0.5334
850,1171,737,33.963,27.317,-0.0052,0.0284,9.789,0.4074,-0.0853,-0.4131
855,1173,739,34.022,27.112,-0.0613,-0.0064,9.8618,0.823,0.3347,-0.1745
860,1167,740,33.962,27.251,-0.0243,-0.0136,9.7969,0.0938,-0.4866,-0.277
865,1171,736,33.997,27.239,0.011,0.0816,9.8206,0.0981,-0.6571,0.1035
870,1157,740,33.873,27.21,0.0643,0.0076,9.7903,-0.8175,0.8699,0.0669
875,1152,740,33.929,27.243,0.0003,-0.0142,9.8203,-0.2987,0.3713,0.013
880,1149,737,33.9,27.191,-0.0055,-0.051,9.814,-1.0698,-0.5239,1.1193
885,1140,742,33.92,27.178,-0.1026,0.0507,9.8397,0.4595,0.3342,-1.0412
890,1147,749,33.941,27.262,0.0663,-0.001,9.7936,0.8105,0.3229,-0.0371
895,1141,737,33.898,27.282,-0.0513,-0.0154,9.8605,0.4287,-0.3369,-0.3927
900,1137,743,33.921,27.243,-0.0106,-0.0405,9.8469,0.0309,-0.3731,0.4915
905,1131,743,33.939,27.175,0.0199,0.0371,9.8678,-0.3309,0.5945,0.0007
910,1130,748,33.907,27.265,-0.0403,0.064,9.8549,0.0887,-0.1264,0.0647
915,1125,748,33.95,27.227,-0.043,0.0459,9.7868,0.2285,-0.2514,-0.447
920,1120,752,33.903,27.271,-0.0475,-0.0114,9.8691,-0.1488,-0.4731,0.2206
925,1110,761,33.912,27.24,-0.0246,0.0302,9.8263,0.0824,-0.1979,-0.0862
930,1109,754,33.868,27.27,-0.0348,0.0581,9.835,1.4128,-0.4262,-0.0028
935,1111,764,33.96,27.221,0.0596,-0.0232,9.7971,-0.0097,0.3375,-0.6846
940,1106,772,33.878,27.164,0.0694,0.0306,9.787,-0.1444,-0.3101,0.0499
945,1102,763,33.878,27.297,-0.0458,-0.0071,9.7971,-0.3989,-0.0467,0.0744
950,1104,772,33.868,27.233,-0.0703,0.0118,9.7852,-0.3864,-0.4137,0.4017
955,1101,778,33.894,27.276,0.0576,-0.0854,9.6966,-0.5059,0.5417,0.2164
960,1097,774,33.887,27.229,-0.0338,-0.0086,9.8297,0.3062,0.5022,0.0351
965,1100,779,33.871,27.236,0.0277,-0.0042,9.8737,-0.8505,0.0009,-1.1253
970,1088,784,33.958,27.233,-0.0368,0.0241,9.8663,-0.3056,-0.3543,-0.4152
975,1093,786,33.961,27.212,0.0169,-0.0504,9.8116,-0.105,-0.2339,-0.4308
980,1082,789,33.893,27.231,-0.1024,-0.0484,9.8677,-0.6125,-0.3603,0.5194
985,1080,793,33.926,27.129,-0.0131,-0.0034,9.799,0.6139,-0.5229,-1.0673
990,1077,794,33.902,27.216,0.0509,0.0218,9.8503,0.5323,-1.0927,0.5496
995,1084,801,33.884,27.319,-0.012,0.0592,9.7604,-0.6063,-0.5991,0.5341
1000,1083,803,33.946,27.217,-0.0153,-0.0899,9.8004,-0.8443,0.6177,0.1095
1004,1076,808,33.886,27.236,-0.0618,0.0337,9.8636,-0.4155,-0.4625,-0.1935
1010,1067,810,33.984,27.203,-0.0042,-0.073,9.7639,-0.1011,-1.1905,-0.0437
1014,1060,818,33.939,27.328,-0.0622,0.0272,9.8336,0.3888,0.0045,0.2129
1020,1065,814,33.977,27.378,0.0695,-0.0105,9.8588,-0.5696,0.2798,-0.5365
1025,1060,818,33.899,27.246,0.0665,0.0371,9.833,0.1281,0.0929,-0.2932
1030,1060,817,33.975,27.19,0.0158,0.055,9.8961,-0.0653,-0.1961,-0.1623
1035,1049,825,33.899,27.233,0.0293,-0.0437,9.8076,-0.3898,0.086,0.5146
1040,1047,834,33.967,27.196,0.0069,-0.0725,9.8041,-0.4222,0.3777,-0.3249
1045,1041,828,33.929,27.17,-0.0731,0.0748,9.8233,-0.0893,0.9791,0.6993
1050,1040,836,33.993,27.156,0.1086,-0.0827,9.7819,0.0279,-0.6767,0.6456
1055,1023,833,33.936,27.257,-0.0018,0.0262,9.9086,-0.6153,-0.1539,0.5173
1060,1025,842,33.938,27.157,0.0048,-0.0038,9.7704,0.2559,0.3627,0.1065
1065,1009,839,34.0,27.245,0.0139,0.0402,9.861,-0.1605,-0.4014,-0.3443
1070,1012,843,33.889,27.237,-0.05,-0.0051,9.8931,0.1807,0.9222,0.5385
1075,1013,842,34.022,27.225,0.0725,0.0922,9.7861,0.0971,-0.5824,0.2097
1080,994,845,33.929,27.253,-0.0106,-0.0273,9.8811,0.1438,0.4382,-0.3368
1085,993,844,33.792,27.226,0.0097,-0.0206,9.8042,-0.1108,-0.5693,0.1816
1090,979,845,33.952,27.173,0.0519,-0.0351,9.8016,0.1711,0.1954,0.0455
1095,972,841,34.092,27.172,-0.1223,-0.0897,9.8139,0.7478,0.1982,-1.0601
1100,968,848,33.927,27.12,0.0389,0.0193,9.7725,-0.5713,0.0281,0.2615
1105,946,853,33.933,27.242,-0.0662,0.083,9.7798,0.1599,0.2661,0.6042
1110,940,848,33.84,27.333,0.0158,0.0412,9.8061,0.2613,0.0673,-1.0738
1115,931,847,34.005,27.222,-0.0803,-0.0366,9.875,0.4671,0.5537,-0.4515
1120,914,846,33.871,27.235,0.0212,0.0181,9.7628,-0.1707,0.02,-0.1054
1125,908,849,33.995,27.285,-0.0057,-0.046,9.8866,-0.0773,0.3242,0.2222
1130,908,843,33.944,27.212,0.0566,0.0134,9.7308,0.7276,-0.0032,-0.3862
1135,891,849,33.986,27.146,0.0213,-0.0725,9.8014,-0.2391,-0.2764,0.0394
1140,886,847,33.93,27.202,0.0395,-0.0079,9.7495,-0.8344,0.8167,0.7056
1145,870,845,33.902,27.232,-0.0619,0.0355,9.8558,-0.0536,-0.5652,-0.0415
1150,862,839,33.964,27.25,-0.0065,0.011,9.7808,-0.7262,0.0959,-0.172
1155,848,846,33.984,27.219,-0.0932,-0.0416,9.8546,-0.6846,-0.1766,-0.5294
1160,838,842,33.952,27.226,0.0631,0.0069,9.8912,0.0449,-0.9283,0.0062
1165,826,840,33.922,27.244,0.0281,-0.0417,9.6736,0.2994,-0.2101,-0.7712
1170,823,845,33.897,27.169,0.064,0.0275,9.819,1.177,0.9851,-0.7337
1175,825,842,33.89,27.264,0.0169,0.0097,9.818,0.3932,-1.5376,-0.2141
1180,811,839,33.892,27.242,-0.0052,0.0142,9.7444,-0.1505,0.2512,-0.2728
1185,795,841,33.959,27.249,-0.0422,0.0015,9.7573,-0.599,0.6066,-0.1773
1190,787,839,33.902,27.26,-0.0595,0.0224,9.7237,-0.1803,0.4473,-0.2323
1195,780,837,33.962,27.241,0.0859,-0.0618,9.783,0.4132,0.7045,0.4486
1200,788,833,33.872,27.221,0.0042,-0.0095,9.7645,-0.2725,-0.4814,-0.2562
1205,771,831,33.936,27.192,0.0541,-0.0017,9.9008,0.0833,0.4388,-0.1841
1210,771,835,33.913,27.238,-0.0,0.0359,9.8653,0.3186,0.8584,-0.3887
1215,763,833,33.858,27.258,-0.0961,-0.0209,9.8275,0.4874,0.4974,-0.1986
1220,757,831,33.996,27.289,0.0527,-0.0046,9.928,0.0357,-0.5939,0.3457
1225,756,831,34.067,27.217,0.0144,-0.0438,9.8579,0.8981,0.7015,-0.544
1230,744,832,33.86,27.173,-0.0938,0.0595,9.7447,0.4679,-0.1378,-0.143
1235,746,823,33.98,27.277,0.0066,0.0102,9.8083,-0.9454,-0.6334,0.2773
1240,749,829,33.916,27.212,0.0584,0.0161,9.8492,0.2264,0.8708,-0.6448
1245,755,822,34.056,27.157,-0.0512,-0.0327,9.8135,0.0853,0.3744,0.105
1250,763,829,33.961,27.246,-0.0009,-0.0324,9.7806,0.289,0.0775,0.2753
1255,755,824,33.964,27.221,-0.0633,0.0398,9.8143,-0.0369,0.082,0.1905
1260,754,831,33.94,27.142,0.0064,0.0019,9.8322,0.7754,0.1193,-0.5802
1265,763,831,33.982,27.215,-0.0088,0.0045,9.8415,0.5952,-0.5214,1.0428
1270,767,828,33.922,27.234,-0.0303,-0.027,9.836,0.0766,-0.428,0.2415
1275,757,820,33.972,27.156,-0.0718,-0.0249,9.8462,0.113,0.2229,-0.2969
1280,763,824,33.877,27.233,-0.0111,-0.0898,9.8467,0.4351,-0.0515,0.5234
1285,780,825,34.041,27.331,-0.0349,-0.0356,9.7648,0.4928,-0.0447,-0.7087
1290,783,822,33.832,27.191,0.0219,0.0506,9.9238,0.8762,0.0649,0.2975
1295,791,818,33.927,27.168,0.0172,0.0727,9.7793,0.3637,0.478,0.7006
1300,809,821,33.951,27.271,-0.0054,0.0813,9.7827,-0.1052,0.5247,-0.4011
1305,818,818,33.957,27.205,0.0529,-0.0321,9.7954,-0.3069,0.0232,0.1625
1310,818,822,33.933,27.106,0.0448,0.0165,9.8647,0.0747,-0.2049,-0.0793
1315,836,818,33.883,27.18,-0.0862,-0.0138,9.7871,-0.0854,-0.4014,-0.1877
1320,837,815,33.85,27.252,0.0526,-0.0085,9.813,-0.4388,0.2592,-0.2149
1325,874,819,33.891,27.146,0.0002,-0.0069,9.8083,0.2774,-0.3788,-0.1813
1330,867,816,33.884,27.27,-0.0394,-0.0451,9.7138,-0.7681,0.0013,0.1531
1335,880,813,33.868,27.169,0.0456,0.0156,9.8827,0.1165,-0.5398,-0.2141
1340,905,818,33.988,27.207,0.002,-0.0008,9.8552,-0.1837,-0.552,-0.259
1345,917,814,33.941,27.183,-0.0179,0.033,9.8953,-0.2418,0.0416,0.0527
1350,926,808,33.991,27.274,-0.054,-0.0053,9.7954,0.5577,-0.5372,0.536
1355,935,812,33.843,27.268,0.0725,-0.0208,9.7459,0.4851,-0.1072,-0.9018
1360,956,808,33.883,27.217,-0.0928,-0.02,9.829,0.2394,0.2707,0.1555
1365,974,809,33.823,27.318,0.0255,-0.0389,9.8512,-0.4306,-0.387,-0.4342
1370,976,807,33.969,27.255,0.0442,-0.0108,9.8494,-0.8565,-0.1463,0.5415
1375,998,810,33.904,27.148,-0.0414,-0.0149,9.8364,0.7515,0.5137,0.2605
1380,1011,799,33.916,27.231,-0.0233,0.0482,9.8252,-0.279,0.9335,0.0245
1385,1018,795,33.967,27.169,-0.0974,0.0025,9.8159,-0.6156,0.0692,0.4747
1390,1031,793,34.028,27.206,-0.0533,0.0168,9.7997,-0.5824,-0.7752,0.6555
1395,1051,800,33.869,27.196,-0.1274,-0.0438,9.8032,-0.7705,-0.063,0.0523
1400,1059,794,33.982,27.23,0.012,-0.0173,9.8191,0.5499,0.2881,0.225
1405,1076,795,33.983,27.171,-0.0582,-0.0251,9.7476,-0.4524,-0.2226,0.3536
1410,1080,784,33.882,27.238,0.0801,-0.1008,9.812,0.9669,-1.1677,0.2088
1415,1097,781,33.857,27.26,0.0759,-0.0653,9.784,-0.7121,-0.1044,0.276
1420,1105,785,34.053,27.25,-0.0839,0.002,9.7269,-0.2285,0.4166,0.7647
1425,1111,789,33.861,27.26,0.0448,0.0543,9.7711,-0.5397,-0.4371,-0.2851
1430,1118,784,33.998,27.221,-0.0426,-0.0689,9.6981,0.1487,0.5833,-0.635
1435,1139,781,33.968,27.241,0.01,0.0019,9.8244,0.1737,-0.0133,0.0128
1440,1145,774,33.934,27.274,-0.012,0.0236,9.8126,-0.8001,-0.4326,-0.2315
1445,1148,769,34.083,27.234,0.0197,0.0213,9.8327,-0.9168,-0.13,-0.2065
1450,1166,767,33.939,27.253,0.0336,-0.0157,9.7263,0.4459,0.0349,0.0253
1455,1163,769,33.929,27.218,-0.0025,-0.0915,9.8332,-0.3997,-0.3567,-0.6752
1460,1165,763,33.926,27.256,-0.0187,-0.0021,9.8458,-0.0634,-0.0944,-0.393
1465,1167,761,33.943,27.232,-0.0022,0.005,9.8259,-1.1406,0.0415,0.9053
1470,1175,763,33.975,27.205,0.0122,0.0434,9.8349,0.7831,0.3528,0.1542
1475,1177,758,33.886,27.244,0.045,0.0212,9.7449,0.2565,-0.3417,0.1838
1480,1177,757,33.883,27.273,-0.0591,0.0092,9.8429,-0.6791,-0.4171,-0.5494
1485,1188,753,33.941,27.246,0.0634,0.0635,9.888,0.5887,0.2627,0.6352
1490,1186,746,33.897,27.177,-0.0583,0.0881,9.7764,0.1847,0.3911,-0.3301
1495,1188,750,33.886,27.346,0.0503,-0.0111,9.8118,0.1657,1.1211,-0.1814
1500,1191,750,34.032,27.251,0.0831,0.1155,9.7691,0.5656,0.3292,-0.0496
1505,1170,750,34.029,27.233,0.0405,-0.0065,9.8874,0.3021,0.4707,0.3782
1510,1190,747,33.915,27.257,-0.0275,-0.0417,9.8536,0.5217,0.5705,0.639
1515,1188,744,33.917,27.26,0.0413,0.027,9.7552,0.1925,0.2826,-0.4388
1520,1189,743,33.905,27.188,-0.0318,0.0244,9.9106,-0.3152,0.3163,-0.4807
1525,1183,741,33.948,27.224,0.0288,0.009,9.7842,0.0465,-0.1581,0.8593
1530,1172,739,33.943,27.225,0.0347,-0.0649,9.7392,0.0195,0.0482,0.2362
1535,1177,741,33.866,27.202,-0.0695,-0.0636,9.9239,-0.2357,0.3902,-0.2105
1540,1171,740,33.989,27.255,-0.0228,0.0509,9.7714,-0.566,-0.0634,0.2294
1545,1168,743,33.946,27.206,-0.0869,0.0431,9.8363,-0.4062,-0.1794,0.0329
1550,1168,738,33.947,27.292,0.0127,0.0304,9.8617,-0.2209,-0.4413,-0.2487
1555,1167,740,33.913,27.234,-0.0316,0.001,9.7603,0.0333,0.0341,-0.3335
1560,1166,736,33.915,27.297,0.0008,0.0298,9.8101,0.1668,0.7243,-0.9415
1565,1160,741,34.064,27.22,-0.0267,0.0363,9.82,0.0773,0.252,-0.4207
1570,1159,738,33.891,27.21,-0.0771,-0.0247,9.8323,-0.2483,-0.3751,0.3252
1575,1151,733,34.011,27.277,0.0865,-0.0023,9.8915,0.191,0.1476,-0.6612
1580,1150,740,33.929,27.198,-0.0075,0.0331,9.8316,-0.8992,0.4053,0.0486
1585,1138,737,33.879,27.223,0.0376,-0.017,9.8241,0.5007,0.1553,0.5759
1590,1136,747,33.96,27.252,0.0662,0.0463,9.7271,-0.0731,0.761,-0.508
1595,1132,742,33.881,27.266,-0.0451,-0.1194,9.8073,-0.1896,0.2267,-0.4511
1600,1142,746,33.919,27.254,-0.0506,0.0698,9.8412,-0.2662,0.1672,0.2622
1605,1127,745,33.925,27.217,-0.0459,-0.0681,9.8775,0.036,-0.0716,0.1579
1610,1127,749,33.962,27.197,-0.0306,0.061,9.8931,0.4272,0.048,-0.508
1615,1125,751,33.967,27.212,-0.0249,0.073,9.8362,-0.6547,-0.4448,-0.0235
1620,1109,753,33.894,27.267,0.0269,0.0209,9.8508,0.0002,0.8944,-0.445
1625,1114,757,33.942,27.212,0.0226,0.0742,9.7498,0.0688,-0.0302,-0.659
1630,1112,759,33.993,27.326,-0.1586,0.0148,9.7926,0.6611,0.4576,0.1064
1635,1106,758,33.973,27.243,-0.0656,0.0034,9.7567,0.1186,0.1202,0.1616
1640,1104,773,33.936,27.248,-0.0708,-0.0375,9.739,-0.4887,0.0081,-0.3565
1645,1091,773,33.937,27.291,0.0606,0.0234,9.7911,0.7152,0.2422,0.0627
1650,1100,771,33.947,27.215,-0.0437,0.0505,9.7998,0.4273,0.4831,-0.7331
1655,1096,776,34.004,27.194,0.0143,-0.0451,9.8257,-0.5555,-0.1543,-0.486
1660,1093,781,33.959,27.136,0.0063,-0.0387,9.7743,-0.6743,-0.4957,-0.3048
1665,1091,784,33.979,27.245,-0.0311,-0.0378,9.915,-0.0954,0.8373,0.1723
1670,1089,793,33.896,27.144,0.0082,-0.1386,9.8423,0.3564,0.4117,0.1451
1675,1084,792,33.943,27.263,-0.0812,-0.0207,9.8317,0.9853,-0.5173,0.1969
1680,1077,795,33.906,27.251,0.1279,0.0265,9.7886,0.3729,0.317,0.0622
1685,1077,797,33.937,27.208,0.0804,-0.0494,9.7014,-0.5288,-0.0167,0.4819
1690,1086,804,33.932,27.165,0.0068,0.0196,9.8433,-0.3433,1.1096,0.4512
1695,1081,806,33.944,27.295,0.055,-0.0274,9.8525,-0.7822,0.2526,0.3994
1700,1079,806,34.003,27.183,-0.0476,-0.0829,9.6705,0.5048,-0.4614,0.7589
1705,1064,814,33.969,27.227,0.0662,0.0847,9.8341,0.148,0.0755,1.0321
1710,1068,816,34.04,27.289,-0.0185,0.0116,9.6873,-0.6978,-0.0033,-0.1164
1715,1065,817,33.947,27.325,-0.0368,-0.0211,9.9473,-0.212,-0.1971,0.0852
1720,1057,822,33.924,27.231,0.045,-0.0465,9.8142,0.1398,0.3102,-0.2887
1725,1056,822,33.976,27.105,0.0013,-0.0308,9.7904,0.0755,0.103,0.1927
1730,1055,824,33.98,27.293,0.0309,0.0419,9.7914,-0.0397,0.1524,-0.3163
1735,1052,829,33.922,27.272,-0.0007,-0.003,9.8445,-0.1469,0.1919,-0.1586
1740,1044,830,33.967,27.186,-0.0419,-0.0101,9.8608,0.0593,-0.1384,0.8751
1745,1039,831,33.977,27.326,0.038,0.0691,9.8488,-0.1439,-0.2932,0.0948
1750,1030,833,33.926,27.154,-0.0029,0.0119,9.8326,1.1262,0.1958,-0.8357
1755,1026,835,33.916,27.143,0.0185,-0.03,9.8947,0.0157,-0.2983,0.4609
1760,1021,841,33.954,27.261,-0.0171,-0.011,9.7523,-0.0904,0.8671,0.5513
1765,1011,839,33.973,27.185,-0.025,-0.0129,9.9067,0.5383,0.2496,-0.1728
1770,995,839,33.897,27.224,-0.0239,0.0276,9.8234,-0.528,-0.0461,0.2352
1775,998,846,33.93,27.139,0.0286,0.0548,9.7527,0.2114,0.8804,-0.3518
1780,985,839,33.978,27.225,0.0404,0.0087,9.8279,0.4551,-0.1413,0.216
1785,980,846,33.915,27.283,0.0442,0.0139,9.8168,-0.0831,0.1466,-0.3625
1790,978,850,33.925,27.308,0.0819,0.0239,9.8049,0.6609,0.4951,-0.5812
1795,967,843,33.969,27.104,0.0162,0.0067,9.7505,0.206,-0.7376,-0.039
1800,957,846,34.041,27.189,-0.0219,0.0007,9.8564,-0.1906,-0.4511,0.8668
1805,949,848,33.951,27.201,0.023,0.0838,9.7607,-0.1859,-0.6973,-0.4449
1810,938,845,33.979,27.246,0.0064,0.0063,9.8703,-0.3726,0.1308,0.0447
1815,920,847,33.928,27.197,0.0245,0.0274,9.837,-0.1948,0.3479,0.0115
1820,914,850,33.923,27.192,-0.042,0.064,9.7534,0.3161,-0.1259,0.1454
1825,907,844,33.887,27.204,0.0203,-0.0208,9.8624,-0.3786,0.0063,-0.229
1830,894,850,33.969,27.195,0.0086,0.0045,9.7941,0.0197,0.3631,0.633
1835,883,847,34.005,27.243,0.0706,0.0254,9.7276,0.459,-0.4057,-0.5948
1840,875,843,34.019,27.278,-0.0055,0.0773,9.9382,0.3158,1.0055,-1.2637
1845,863,844,33.876,27.219,0.0023,0.0056,9.7618,-0.2947,-0.7737,0.5696
1850,855,848,33.972,27.195,-0.1644,-0.031,9.8438,-0.1312,-0.049,-0.4491
1855,847,847,33.956,27.217,-0.0546,0.0486,9.7968,0.3719,0.2163,0.2239
1860,834,845,33.917,27.185,0.0135,0.0295,9.7635,-0.6009,-0.4703,0.045
1865,818,845,33.969,27.143,-0.0258,-0.0027,9.8144,0.3153,-0.304,-0.7802
1870,815,835,33.926,27.23,0.0263,-0.0012,9.8837,-0.0075,0.2519,-0.3658
1875,807,834,33.969,27.183,0.0472,-0.0053,9.7472,-0.1443,0.6263,-0.183
1880,796,837,33.941,27.203,0.0275,-0.0157,9.8246,0.0479,0.2818,0.6014
1885,791,838,33.87,27.311,-0.1247,0.0116,9.7485,0.3177,0.2761,0.1026
1890,786,835,33.897,27.241,0.0094,0.0039,9.7152,0.3362,-0.0251,-0.1035
1895,770,834,33.878,27.278,0.0064,-0.0192,9.77,-0.478,0.2847,0.1098
1900,769,838,33.905,27.307,0.0422,0.0579,9.7444,0.1555,-0.7835,-0.4378
1905,767,832,33.937,27.249,-0.0312,-0.0608,9.7907,0.1933,0.8286,-0.2956
1910,761,833,33.989,27.204,-0.0341,-0.0227,9.89,0.5211,-0.1729,0.5156
1915,767,831,33.85,27.236,-0.0201,0.0823,9.8286,-0.4442,0.1466,0.2659
1920,756,834,34.002,27.257,-0.0143,-0.0307,9.7804,-0.2154,0.5652,-0.2913
1925,756,830,33.989,27.236,-0.0182,-0.0053,9.8173,0.1535,-0.4495,-0.0988
1930,751,828,33.97,27.22,0.0321,0.0142,9.822,0.0616,0.8277,-0.4581
1935,751,829,33.94,27.174,0.0078,-0.0026,9.808,0.6131,-0.2724,0.2068
1940,749,831,33.984,27.185,0.0269,-0.0346,9.765,-0.2594,-0.1298,-0.3359
1945,746,827,33.967,27.165,-0.105,0.0444,9.8893,0.6326,0.5143,-0.2062
1950,752,825,34.014,27.245,-0.0173,-0.044,9.847,-0.6292,-0.6409,-0.609
1955,751,821,33.889,27.234,0.0855,0.0112,9.8773,-0.463,-0.3339,-0.2651
1960,748,826,33.919,27.243,-0.0234,0.0366,9.7469,0.0088,-0.2289,0.9046
1965,773,822,33.992,27.302,0.0263,-0.0008,9.8864,0.0629,0.6352,0.2879
1970,769,826,33.861,27.251,-0.0066,0.0299,9.6897,0.4844,0.9801,0.6064
1975,775,823,34.031,27.21,-0.0452,-0.017,9.8066,-0.1878,0.2886,0.8708
1980,774,821,33.935,27.233,0.0583,0.0163,9.7871,-0.1467,-0.0245,0.3419
1985,784,823,33.952,27.202,0.0199,0.0073,9.8006,0.1896,0.5584,0.0889
1990,796,823,33.916,27.261,0.0444,0.0507,9.7659,-0.4138,-0.6822,0.1315
1995,806,821,33.932,27.217,-0.063,-0.0041,9.7798,-0.0507,0.12,-0.2755
2000,808,823,33.919,27.242,0.014,-0.037,9.8147,-0.3903,0.6257,0.6232
2005,820,824,33.979,27.236,-0.0025,-0.0002,9.8009,0.7762,0.5153,-0.1545
2009,840,823,33.994,27.252,-0.0449,-0.0313,9.7723,0.5032,-0.0436,0.0335
2015,848,817,33.995,27.249,-0.0066,0.0724,9.864,-0.1802,0.5565,-0.1091
2020,861,819,33.858,27.222,0.0592,0.051,9.7448,0.2563,0.4665,-0.4995
2025,863,817,34.015,27.217,0.018,-0.037,9.8859,-0.3406,0.383,-0.1124
2029,884,815,33.923,27.257,0.0592,-0.0081,9.852,-0.151,0.8298,-0.1713
2035,892,818,33.971,27.172,0.0585,0.0286,9.7435,1.2075,-0.2182,0.534
2040,910,815,34.03,27.308,0.0351,0.0213,9.7842,-0.2566,0.0521,0.1253
2045,924,809,33.836,27.184,0.0777,0.0623,9.7468,-0.1698,0.0415,-0.0393
2050,939,809,33.933,27.296,0.009,-0.077,9.7767,-0.2609,-1.0527,-0.6692
2055,951,810,34.027,27.25,0.0037,0.0719,9.8424,-0.0763,0.368,-0.118
2060,974,806,33.976,27.415,0.0754,0.0337,9.8454,0.0949,-0.468,0.0023
2065,970,809,33.956,27.215,0.0267,-0.0195,9.7998,1.0486,0.4465,-0.2437
2070,988,804,33.965,27.321,-0.0568,0.0453,9.85,-0.1656,-0.1154,0.1382
2075,1004,801,33.923,27.235,-0.0224,-0.0108,9.745,0.0724,0.1012,1.1658
2080,1024,800,33.9,27.256,0.0756,-0.0669,9.8431,0.7627,0.2409,-0.0721
2085,1028,801,34.028,27.207,-0.0327,0.0869,9.7559,0.5283,-0.7003,-0.4013
2090,1049,798,33.919,27.255,0.0205,-0.0317,9.8132,0.4839,-0.2245,0.3789
2095,1056,795,33.916,27.21,0.0591,-0.0568,9.9001,0.123,0.3205,-0.6493
2100,1063,786,34.034,27.254,0.0146,-0.0646,9.7869,-0.7033,0.4539,0.016
2105,1090,787,34.015,27.163,0.0698,-0.0106,9.8678,0.2159,1.0882,0.5698
2110,1094,796,33.938,27.323,0.0781,-0.0432,9.818,0.1825,-0.0433,-0.0742
2115,1107,785,33.964,27.261,-0.037,0.0481,9.8843,0.2123,0.0606,-0.673
2120,1121,784,33.93,27.259,0.0798,0.0256,9.8265,1.1359,-0.7605,-0.4392
2125,1114,780,33.995,27.291,0.146,0.0977,9.8124,-0.5314,0.433,-0.0569
2130,1131,781,33.934,27.196,-0.0341,-0.0298,9.7738,0.394,-0.1221,0.0198
2135,1145,775,33.906,27.213,-0.0359,0.0224,9.8591,-0.1521,0.0525,0.2026
2140,1145,777,33.884,27.164,-0.0499,0.1107,9.7994,0.2574,0.6718,-0.5666
2145,1155,775,33.96,27.209,0.0284,-0.0053,9.8758,-0.818,-0.4589,-0.5497
2150,1157,773,33.941,27.219,0.0459,-0.0404,9.7976,-0.6247,-0.1452,0.402
2155,1157,764,33.97,27.25,0.0472,0.0653,9.8152,-0.2517,0.9785,-0.047
2160,1181,758,33.937,27.207,-0.0868,0.0068,9.8519,-0.3701,-0.1028,0.1179
2165,1168,765,33.905,27.212,-0.0562,-0.0019,9.795,-0.2828,0.3211,-0.3047
2170,1182,757,33.929,27.249,0.0091,-0.074,9.8081,-0.3714,1.0455,-0.4708
2175,1181,753,33.987,27.241,0.0265,-0.0003,9.8204,0.0646,0.0532,-0.626
2180,1187,753,33.927,27.344,-0.0277,0.0176,9.7967,-0.4756,-0.1657,1.1917
2185,1183,753,33.933,27.238,-0.0136,0.0499,9.8689,-0.8979,-0.7747,-0.829
2190,1186,747,34.077,27.276,-0.1291,-0.0338,9.8838,-0.636,-0.1521,-0.3398
2195,1187,746,33.978,27.295,-0.0108,-0.0123,9.8524,-0.1751,0.0202,0.052
2200,1186,744,33.948,27.267,-0.0147,-0.0149,9.7395,0.3624,-0.1672,0.2724
2205,1189,748,33.935,27.255,0.0428,-0.0974,9.8716,-0.2699,0.1147,-0.5576
2210,1187,742,34.002,27.29,0.0035,0.0329,9.7719,0.6007,0.0107,0.1068
2215,1192,740,33.987,27.211,-0.0298,0.0822,9.838,-0.1439,0.6258,-0.3591
2220,1187,743,33.907,27.292,0.031,-0.004,9.7664,-0.0611,-0.6376,-0.2442
2225,1183,736,33.892,27.285,-0.0302,0.0307,9.7232,0.4472,-0.7868,-0.8545
2230,1183,738,34.065,27.241,0.0652,0.0671,9.818,0.7118,0.0847,0.2722
2235,1185,737,33.919,27.295,0.0627,0.055,9.7995,0.1198,-0.9571,0.0819
2240,1173,736,33.949,27.147,-0.0747,-0.0702,9.9219,-0.0492,-0.1497,0.2227
2245,1173,742,34.005,27.206,0.0022,-0.0587,9.8441,-0.9741,0.1604,-0.7216
2250,1168,735,33.931,27.213,-0.0386,-0.0984,9.8325,0.5152,0.1111,0.2149
2255,1158,742,33.96,27.183,0.019,-0.0388,9.8235,0.2614,-0.0851,-1.1482
2260,1157,734,33.911,27.142,-0.0369,0.0071,9.8465,-0.0298,-0.8439,-0.0902
2265,1153,738,33.886,27.223,0.0256,0.1024,9.7861,-0.0715,0.7763,0.0408
2270,1159,733,33.915,27.098,-0.0603,0.0762,9.7529,0.7048,0.5659,0.0056
2275,1145,736,33.914,27.2,-0.0463,-0.0532,9.8039,-0.0133,0.2835,0.0576
2280,1150,741,33.924,27.231,0.0098,-0.0871,9.818,-0.0223,0.1806,0.2609
2285,1139,747,33.908,27.2,0.1124,0.0231,9.8457,0.7026,0.009,-0.3172
2290,1128,744,33.941,27.359,0.0484,-0.0226,9.8921,-1.1468,0.222,-0.9166
2295,1130,748,33.939,27.179,0.0139,-0.0155,9.7956,0.6085,0.2884,-0.9889
2300,1127,744,34.046,27.306,0.0479,-0.0362,9.8219,0.1082,-0.7029,-0.555
2305,1131,751,33.927,27.212,-0.0447,-0.0056,9.8242,-0.1821,-0.4274,0.0866
2310,1133,754,33.949,27.207,-0.0553,-0.0566,9.8528,0.1423,0.1036,-0.2562
2315,1111,756,33.911,27.171,0.032,-0.0264,9.8415,0.0677,-0.0652,-0.2468
2320,1122,762,33.937,27.258,0.0082,-0.0071,9.8252,-0.0217,-0.6082,1.5076
2325,1121,762,33.971,27.276,-0.0061,-0.0373,9.8334,0.1182,-0.8848,-0.3116
2330,1108,765,34.001,27.273,-0.0508,-0.0225,9.7124,-0.2463,-0.5772,-0.0649
2335,1110,767,33.987,27.225,0.0889,-0.0224,9.7922,0.4253,0.1642,0.7365
2340,1112,773,34.0,27.301,0.0371,-0.0412,9.789,0.2897,0.966,0.2982
2345,1103,777,33.835,27.253,0.1195,0.0275,9.8739,0.6057,-0.2991,0.501
2350,1100,774,33.986,27.185,-0.01,0.0305,9.9339,-0.4538,0.4475,-0.6095
2355,1099,782,33.946,27.239,-0.1056,0.0175,9.7771,-0.9637,0.8954,-0.3948
2360,1093,785,33.938,27.277,0.081,-0.0028,9.7578,-0.3357,1.3158,0.4471
2365,1097,784,33.981,27.2,0.0493,0.0231,9.7766,0.1975,-1.2863,0.5397
2370,1095,790,34.015,27.207,-0.044,0.0584,9.8029,1.1361,-0.0902,0.6176
2375,1079,790,33.978,27.154,-0.0252,0.0516,9.8195,0.267,0.0155,-0.2683
2380,1092,798,33.948,27.264,0.0492,-0.007,9.7869,-0.928,-0.1059,0.3936
2385,1084,794,33.991,27.294,0.01,-0.0319,9.7663,0.4758,-0.7187,-0.2966
2390,1077,804,33.992,27.27,0.0067,-0.044,9.8355,-0.4534,-0.7771,1.2037
2395,1079,805,33.986,27.221,0.0361,-0.0544,9.7905,0.1353,0.7082,0.9796
2400,1067,813,33.923,27.213,-0.0107,0.0582,9.7855,0.3331,-0.0128,-0.5997
2405,1071,812,33.938,27.294,-0.0004,-0.0363,9.8328,-0.1309,0.1091,1.03
2410,1065,817,34.031,27.269,0.0401,0.0178,9.8041,1.2704,0.6538,-0.7139
2415,1055,813,33.878,27.23,0.0281,-0.009,9.7239,-0.1839,0.7666,-1.0207
2420,1062,829,33.977,27.255,0.0142,-0.0041,9.8005,0.0404,-0.3979,-0.3947
2425,1053,825,33.905,27.224,0.0704,-0.0248,9.7831,-0.0833,-0.703,-0.4021
2430,1055,824,33.946,27.276,0.0206,0.0001,9.8997,-0.3347,0.0829,-0.0471
2435,1040,831,33.996,27.277,0.0202,-0.0104,9.7828,0.5877,0.8761,0.488
2440,1043,835,34.017,27.205,0.0306,0.0245,9.7757,0.0374,1.0312,0.0644
2445,1045,828,33.974,27.237,0.0004,-0.015,9.8517,0.0004,0.1654,-0.758
2450,1034,833,33.905,27.322,0.0227,-0.0774,9.7312,0.1614,0.0511,-0.1487
2455,1017,839,34.005,27.247,-0.0127,-0.0085,9.8321,0.6863,0.6554,0.6712
2460,1019,840,33.932,27.237,-0.0175,0.1027,9.8304,0.5338,-0.1744,0.6186
2465,1012,842,33.987,27.282,-0.027,0.0791,9.7973,0.2489,0.0081,-0.1758
2470,1000,840,33.988,27.255,0.0285,-0.0449,9.9111,-0.9065,-0.5467,-0.1558
2475,996,842,33.883,27.328,-0.0476,-0.006,9.6624,0.1381,0.0607,-0.3042
2480,984,846,33.954,27.248,0.0757,-0.0547,9.7645,-0.5073,-0.1173,-0.5127
2485,976,844,33.965,27.187,-0.1109,0.0205,9.8325,-0.83,0.2548,-0.2483
2490,961,843,34.007,27.242,-0.0045,0.0408,9.7378,0.1593,0.2384,-0.3586
2495,947,846,33.986,27.291,0.1092,-0.0132,9.7967,0.2262,0.2571,0.1199
2500,949,846,34.0,27.305,-0.0374,0.0124,9.8253,-0.5363,-1.0439,-1.1411
2505,949,842,33.961,27.219,0.0096,-0.0029,9.7119,-0.5017,-0.4412,-0.0952
2510,930,849,33.933,27.223,0.0176,0.015,9.8457,0.012,1.0606,0.618
2515,928,852,33.962,27.264,0.0345,-0.0291,9.8434,0.1032,0.2958,-0.1771
2520,907,848,33.973,27.165,-0.0859,-0.0024,9.7646,0.1828,0.2508,-0.5089
2525,904,848,33.944,27.269,0.0553,0.0563,9.8996,0.0239,0.6357,-0.1909
2530,886,841,34.029,27.316,-0.0624,-0.004,9.8283,0.5366,-0.3404,-0.1161
2535,878,851,33.892,27.214,0.0561,0.0244,9.8625,0.5545,-0.4923,0.2199
2540,873,845,33.951,27.286,0.0563,0.0487,9.8742,0.618,-0.1123,-0.643
2545,854,840,33.976,27.309,-0.0076,0.0168,9.7817,0.1669,-0.3604,0.0848
2550,847,843,33.977,27.184,0.0064,0.038,9.7604,-0.8425,-0.1061,0.4033
2555,845,842,34.01,27.329,0.0342,0.076,9.8408,0.0548,-0.7457,0.0896
2560,822,847,34.04,27.258,-0.0482,-0.1424,9.8651,0.2627,-0.0015,0.0198
2565,810,838,34.055,27.273,-0.0539,0.0288,9.8143,0.1887,1.0543,-0.2699
2570,815,836,33.961,27.255,-0.0317,0.0654,9.7573,1.185,0.7377,0.0614
2575,794,835,34.027,27.347,-0.0306,0.0008,9.8835,1.2875,0.0658,0.0577
2580,791,836,33.891,27.199,0.0305,-0.0027,9.8704,0.4271,-0.9994,0.3157
2585,788,829,33.903,27.345,-0.0151,0.0534,9.7636,-1.1674,-0.5169,-0.2757
2590,779,832,33.927,27.252,-0.0571,0.0253,9.7598,-0.0353,-0.2045,0.0425
2595,768,831,33.946,27.198,0.0153,0.0473,9.7184,-0.0536,0.8374,0.5019
2600,761,835,33.889,27.277,-0.0614,0.0677,9.8292,0.0923,-0.0965,0.2525
2605,763,835,33.951,27.239,-0.05,-0.0683,9.8461,0.1237,-0.2718,-0.7251
2610,763,828,34.03,27.247,0.1356,0.0298,9.8186,0.4235,-0.7146,-0.4756
2615,751,830,33.925,27.196,-0.0146,0.02,9.7764,0.7002,-0.4858,0.0935
2620,752,835,33.955,27.207,0.0263,-0.0171,9.8228,-0.0226,-0.3037,-0.6639
2625,758,824,33.956,27.21,0.0052,-0.0326,9.6726,0.2829,-0.2044,0.7016
2630,743,831,33.888,27.225,0.0268,-0.0013,9.781,-0.2613,-0.5535,0.5702
2635,745,825,34.019,27.302,-0.0084,0.0153,9.8536,0.0873,0.5826,0.5643
2640,743,823,34.0,27.178,-0.0511,-0.0386,9.8467,-0.628,0.1333,-0.3883
2645,753,828,33.948,27.253,-0.0344,0.0336,9.7687,-0.4807,0.3884,-0.2538
2650,753,823,33.973,27.13,-0.0638,0.0792,9.8862,-0.0281,-0.0666,-0.5295
2655,759,825,33.942,27.214,0.0376,-0.0735,9.9165,-0.8771,-0.5945,-0.4965
2660,759,824,33.947,27.289,-0.032,-0.008,9.7963,0.1086,-0.0081,-0.2128
2665,766,834,33.922,27.236,0.0057,-0.005,9.8346,-0.5666,-0.6736,0.196
2670,776,821,33.934,27.24,-0.0051,0.1369,9.8336,0.3444,0.0405,-0.1744
2675,774,825,33.979,27.296,-0.0709,0.1164,9.9019,-0.6473,0.1803,-0.1127
2680,780,821,33.883,27.252,-0.0721,0.0358,9.7386,-0.0545,0.0086,0.9859
2685,794,821,33.939,27.17,-0.1019,-0.0393,9.7619,-0.1248,-0.7272,0.9972
2690,796,823,33.974,27.175,-0.0496,0.0604,9.8352,-0.4195,0.199,0.3903
2695,811,822,33.922,27.28,-0.148,0.1035,9.8051,-0.0928,0.0743,-0.2506
2700,826,823,33.97,27.204,-0.0185,-0.0601,9.7305,0.6304,0.4959,-0.5256
2705,832,818,33.995,27.202,0.0035,-0.0011,9.7716,0.1917,-0.2892,0.8433
2710,851,812,33.945,27.24,0.0191,-0.0095,9.7713,0.3057,-0.6089,0.5604
2715,845,817,34.01,27.193,0.0065,-0.1088,9.7951,0.1826,-0.2149,-0.28
2720,866,812,33.974,27.215,-0.0882,-0.0168,9.8332,0.4011,-0.7942,0.0264
2725,877,813,33.991,27.219,-0.0237,0.0192,9.6887,-0.8946,-0.2759,0.3292
2730,892,810,33.927,27.29,-0.0132,0.0007,9.8251,0.1447,0.7927,0.4361
2735,908,813,33.973,27.251,-0.0529,-0.0312,9.8059,1.1765,0.9366,0.6646
2740,927,812,33.906,27.168,0.0019,0.0274,9.8265,0.086,-0.2477,-0.2036
2745,929,815,33.9,27.18,-0.0782,0.0236,9.7971,0.5213,-0.0426,-0.2207
2750,950,806,34.026,27.191,0.0034,-0.041,9.8103,-0.3079,0.0307,-0.0387
2755,962,804,33.962,27.27,-0.0288,0.0605,9.8098,0.0796,0.4958,-0.3591
2760,977,807,33.943,27.188,0.0212,-0.0277,9.7929,-0.8086,0.4466,-1.008
2765,991,805,34.005,27.223,0.0968,0.0489,9.7949,-1.3345,0.3896,0.0897
2770,997,804,33.89,27.16,0.0001,-0.0071,9.782,0.2238,-0.0138,-0.4421
2775,1021,807,33.933,27.181,-0.0676,0.0351,9.7962,0.0024,-0.3327,-0.3815
2780,1020,803,33.917,27.325,0.0139,0.0015,9.767,-0.2821,-0.3161,-0.0138
2785,1043,801,33.976,27.316,0.0461,-0.0244,9.7805,-0.4174,-0.4092,0.255
2790,1050,792,33.978,27.195,0.0504,-0.0214,9.7959,-0.4686,0.1472,0.0933
2795,1064,799,33.961,27.28,0.0891,0.0401,9.8717,-0.6423,0.5407,-0.6847
2800,1079,791,33.869,27.286,-0.0658,-0.0188,9.7883,-0.0711,0.1177,0.2178
2805,1092,793,33.977,27.242,-0.0816,-0.0884,9.7628,0.0699,0.2955,0.2427
2810,1099,788,34.002,27.259,0.0683,0.0612,9.778,0.5563,-0.2649,-0.3424
2815,1113,784,33.866,27.176,0.0023,-0.0181,9.7682,0.0659,0.5311,0.2055
2820,1121,780,33.989,27.175,-0.0005,-0.0415,9.7775,0.5587,-0.4118,0.1985
2825,1130,780,33.972,27.231,-0.0409,-0.0417,9.8205,0.503,-0.8273,0.0065
2830,1150,777,33.929,27.258,-0.0007,0.008,9.8913,0.381,-0.4032,1.0057
2835,1156,778,33.951,27.217,-0.0406,0.0768,9.8938,0.6921,-0.02,1.5974
2840,1154,769,33.931,27.193,-0.0564,-0.023,9.7903,0.2709,0.3391,0.2557
2845,1151,767,33.954,27.303,-0.0315,0.0037,9.8303,-0.158,0.0492,0.4772
2850,1161,765,33.976,27.359,0.054,0.0917,9.7817,-0.7973,0.2326,-0.0167
2855,1170,768,33.924,27.221,0.0458,0.0831,9.8285,-0.332,-0.4362,-0.2795
2860,1169,758,33.987,27.183,-0.0259,-0.0252,9.8484,0.6562,-0.5968,-0.0945
2865,1181,762,33.968,27.273,-0.0293,-0.0757,9.8909,0.6525,0.461,-0.0072
2870,1179,758,33.969,27.183,-0.027,-0.0073,9.7942,0.1425,-0.3543,-0.3034
2875,1182,761,33.991,27.234,0.0035,-0.0012,9.8298,0.3599,0.2735,-0.2487
2880,1186,755,33.908,27.254,-0.0157,0.124,9.7771,-0.1096,-0.5271,0.538
2885,1183,753,33.844,27.17,-0.0478,0.038,9.876,0.3385,0.8778,-0.4521
2890,1197,750,33.924,27.276,-0.0402,-0.0245,9.8709,-0.0779,-0.1332,0.7005
2895,1186,751,33.944,27.334,-0.0764,-0.0466,9.7347,0.2787,-0.1277,-0.5182
2900,1179,743,33.97,27.229,0.0505,0.0771,9.7956,-1.073,1.1137,-0.1464
2905,1186,739,33.912,27.143,0.0502,0.0542,9.8657,-0.3649,-0.8442,0.066
2910,1190,740,33.956,27.229,-0.0395,0.0524,9.8099,0.2418,0.1739,-0.802
2915,1185,746,33.965,27.15,0.0666,-0.0414,9.7847,-0.6084,0.6772,-0.7492
2920,1180,743,34.043,27.208,-0.0193,-0.032,9.8221,0.6657,-0.2771,0.6088
2925,1179,739,33.962,27.222,-0.0054,-0.0715,9.7751,0.235,0.2464,0.3859
2930,1173,739,34.052,27.315,-0.0387,-0.014,9.7793,0.1767,-0.9102,-0.1615
2935,1180,736,33.978,27.285,-0.0084,-0.0865,9.8311,-0.5564,0.4325,0.4808
2940,1166,735,34.046,27.234,0.0036,0.0254,9.7966,-0.5452,-0.1305,-0.3208
2945,1162,739,33.889,27.236,0.0933,-0.0049,9.7104,-0.3665,-0.5793,-0.0535
2950,1169,737,33.93,27.28,-0.009,-0.0071,9.7493,0.9114,-1.0915,-0.785
2955,1160,743,33.951,27.237,-0.1389,0.0235,9.7334,-0.5412,0.0357,0.4404
2960,1157,736,33.979,27.336,0.0831,0.1787,9.8892,-0.1749,0.3345,0.2972
2965,1143,740,33.952,27.159,-0.0877,-0.114,9.9042,-0.5334,0.5644,0.6177
2970,1136,737,33.982,27.316,0.0111,0.061,9.8109,0.0404,0.0111,-0.258
2975,1151,739,34.003,27.396,0.0643,0.0197,9.8421,-0.04,1.1659,0.1353
2980,1142,743,33.944,27.208,0.1102,0.0936,9.8239,0.407,-0.0372,1.1394
2985,1139,747,33.979,27.251,-0.0197,-0.0886,9.8311,-0.3431,-0.3569,0.1912
2990,1131,743,33.998,27.234,0.0429,0.0151,9.8234,0.0252,-0.3294,0.8635
2995,1128,748,33.922,27.304,-0.0685,-0.0125,9.7669,-0.0173,0.098,0.0498
3000,1131,757,33.971,27.223,-0.0346,0.1021,9.7525,0.8087,0.3185,0.339
3005,1113,750,33.947,27.25,0.0011,0.0731,9.8609,0.0748,-0.121,-0.0588
3010,1117,755,33.978,27.334,0.0643,0.0115,9.7477,0.5137,1.1314,0.2881
3015,1117,759,33.975,27.27,-0.0982,0.0456,9.8755,-0.3088,0.4902,0.7337
3020,1110,762,33.952,27.205,-0.008,0.0502,9.7737,-0.267,-0.3116,0.8777
3025,1110,764,33.961,27.169,0.0205,0.0171,9.7699,-0.2577,-0.2387,0.127
3030,1105,765,33.94,27.314,0.0306,-0.048,9.878,0.2494,-0.3229,-0.4475
3035,1103,771,33.913,27.274,0.0144,-0.0274,9.8677,-0.5182,0.7904,-0.6647
3040,1101,770,33.985,27.179,0.0119,0.0003,9.8261,0.0577,0.3091,0.1939
3045,1099,772,34.03,27.21,-0.0105,-0.0248,9.8291,0.1726,0.0593,0.322
3050,1095,785,33.946,27.234,0.0322,0.0088,9.8742,-0.3677,0.3823,1.1609
3055,1092,784,33.985,27.273,0.0104,-0.0003,9.7703,-0.7,-0.5638,0.9327
3060,1091,783,33.972,27.246,-0.0295,0.0547,9.8091,0.0061,-0.0076,0.7532
3065,1090,785,33.968,27.188,-0.0678,0.0318,9.8328,-0.914,-0.0028,0.6317
3070,1090,801,34.025,27.356,0.0361,-0.0388,9.7787,0.092,-0.3551,-0.7028
3075,1083,799,34.02,27.22,-0.0623,-0.0075,9.7588,0.2896,-0.5983,0.7402
3080,1080,803,34.028,27.243,0.0265,0.007,9.8378,-0.1185,0.087,0.2087
3085,1073,798,33.846,27.307,0.0154,-0.0155,9.8079,0.2899,-0.7121,0.3908
3090,1079,808,34.013,27.243,-0.0585,-0.0721,9.7012,0.8623,0.5149,0.4571
3095,1085,810,33.891,27.333,0.0207,-0.0049,9.7225,0.3154,0.6467,0.2751
3100,1071,814,34.016,27.181,0.0714,-0.034,9.8911,-0.1744,-0.6551,0.1624
3105,1068,813,34.065,27.217,-0.0397,0.0175,9.7782,-0.3134,-0.0102,0.124
3110,1062,817,33.932,27.231,-0.0109,-0.057,9.7922,-0.7117,-0.0915,-0.469
3115,1053,822,33.956,27.327,-0.0681,0.022,9.7644,-0.9256,0.7678,0.5953
3120,1047,826,33.934,27.263,-0.0449,0.001,9.8198,-0.0758,-0.4483,-0.6542
3125,1059,827,33.981,27.301,-0.0253,0.0435,9.804,0.8907,0.0419,-0.6401
3130,1041,830,34.087,27.208,0.0062,0.06,9.8147,0.012,0.4935,0.9419
3135,1036,827,33.974,27.257,0.0933,-0.0095,9.8369,0.1347,-0.1578,-0.6151
3140,1033,833,33.909,27.326,0.0456,0.0245,9.7189,-0.5414,-0.9081,0.663
3145,1029,830,33.995,27.228,0.0199,0.0232,9.7265,0.9749,-0.2458,0.1004
3150,1028,841,33.962,27.314,-0.0371,-0.0762,9.8333,-0.2554,0.989,-0.5797
3155,1010,841,33.995,27.238,-0.0565,-0.0765,9.7355,0.1971,0.278,-0.3584
3160,1003,841,33.918,27.196,0.008,-0.0346,9.7401,-0.335,0.0266,-0.3614
3165,1003,835,33.856,27.168,-0.0181,-0.06,9.8023,0.2872,0.9955,0.6287
3170,998,846,33.946,27.185,-0.0085,-0.0143,9.8303,0.3907,-0.4942,-0.5135
3175,989,845,34.026,27.217,-0.0233,-0.0162,9.9027,0.1385,-0.2579,-0.0091
3180,980,846,33.961,27.24,0.0666,-0.0127,9.8582,-0.8891,-0.727,-0.1638
3185,967,845,33.937,27.254,0.0736,-0.0424,9.751,0.0632,0.9855,0.1531
3190,949,854,33.861,27.171,-0.0119,-0.031,9.6681,0.7894,-0.1493,-0.0427
3195,956,849,34.022,27.283,0.047,-0.093,9.7821,0.0879,0.4379,-0.3926
3200,941,845,33.904,27.146,0.0822,-0.0572,9.7274,0.5386,-0.9342,0.6336
3205,935,847,33.912,27.242,-0.0377,0.0529,9.8148,0.7695,0.3254,-0.5615
3210,923,845,34.004,27.205,-0.0087,0.0791,9.7885,-0.1827,0.4382,-0.44
3215,911,842,33.923,27.305,-0.093,-0.0312,9.8157,-0.9325,0.3067,-0.4164
3220,905,846,33.933,27.181,0.0291,-0.0826,9.8319,-0.6546,0.4245,0.2138
3225,887,849,33.91,27.197,0.0035,0.0602,9.8064,-0.28,-0.3765,-0.1305
3230,883,847,33.986,27.198,0.0593,-0.12,9.8393,-0.4479,-0.4349,0.6376
3235,873,843,33.863,27.3,-0.0735,-0.0066,9.7866,-0.244,0.2948,-0.0983
3240,858,846,34.024,27.251,-0.0338,0.0168,9.8652,0.3953,0.6828,-0.9749
3245,847,843,33.968,27.222,-0.0395,-0.065,9.7215,0.171,0.1641,-0.2577
3250,851,843,33.945,27.278,-0.041,0.0029,9.804,-0.3499,-0.1344,0.1042
3255,835,845,33.962,27.254,0.0192,0.0303,9.7545,-0.4045,-0.3734,-1.5336
3260,824,841,33.937,27.267,-0.0507,0.0101,9.8285,-0.3955,0.4768,-0.3475
3265,806,838,34.051,27.333,0.0512,0.0359,9.8472,-0.307,0.1195,0.8345
3270,804,842,33.989,27.236,0.068,-0.0168,9.8308,-0.3738,-0.5319,0.4124
3275,796,836,33.978,27.324,-0.0381,0.1163,9.8808,-0.3247,0.7083,0.3951
3280,787,835,33.917,27.17,-0.0806,0.0117,9.8416,0.3615,-0.2838,0.0036
3285,784,832,34.016,27.28,0.07,0.0272,9.8452,-0.4894,0.5797,0.6506
3290,773,838,33.82,27.215,-0.0544,0.0002,9.8692,-1.0816,0.9953,-0.336
3295,766,831,33.975,27.269,0.0005,-0.0449,9.8386,0.0276,-0.8345,0.1653
3300,759,833,33.98,27.282,-0.017,-0.0508,9.842,1.0553,0.3738,0.3131
3305,754,831,33.994,27.247,-0.0361,0.0323,9.7928,0.6473,-0.541,-0.2252
3310,764,832,33.948,27.239,-0.1188,-0.0599,9.8273,0.5747,0.3191,0.2908
3315,758,825,33.921,27.316,0.0674,0.0549,9.8371,0.8408,0.4725,-0.3742
3320,738,830,33.968,27.214,0.012,-0.0741,9.8351,-0.7832,-0.7069,0.3556
3325,753,834,33.919,27.213,-0.0573,0.0263,9.7658,0.8153,-0.5233,0.1051
3330,749,827,33.948,27.203,-0.0713,-0.0335,9.8064,0.3144,0.1576,-0.2692
3335,753,822,33.977,27.329,-0.0319,-0.1212,9.7084,0.1205,-0.0837,-0.472
3340,754,824,33.868,27.191,-0.0247,0.0146,9.8433,0.2335,0.5963,-0.8115
3345,761,825,34.026,27.278,-0.1404,0.0322,9.8287,-0.0955,-0.0121,-0.401
3350,756,819,33.96,27.264,-0.0245,-0.0806,9.7144,-0.3716,-0.1411,0.2871
3355,756,821,33.978,27.279,0.033,-0.0791,9.7371,-0.1553,0.1234,-0.3913
3360,761,826,33.945,27.212,0.1082,-0.0296,9.7883,0.7768,-0.6083,0.2833
3365,765,823,33.995,27.322,0.0289,0.0344,9.8406,0.1987,-0.5656,0.3273
3370,770,822,33.959,27.245,0.0505,-0.0328,9.843,-0.1695,-0.0159,-0.3919
3375,781,824,34.053,27.232,0.0752,-0.011,9.88,0.3681,0.407,-0.4823
3380,787,823,33.975,27.266,0.0088,0.0259,9.8248,-1.1706,0.0255,-0.1492
3385,806,823,33.893,27.236,0.0005,0.017,9.961,-0.3628,-0.4866,-0.513
3390,806,824,33.905,27.321,-0.0564,-0.0024,9.7907,0.0062,-0.443,0.2114
3395,818,820,34.006,27.227,0.0605,-0.0118,9.8431,-0.2567,-0.0412,-0.4223
3400,826,822,33.951,27.294,0.0397,-0.0368,9.7281,0.5354,1.0196,0.3709
3405,848,821,33.94,27.305,0.0268,0.0089,9.9363,0.0659,-0.1918,-0.7493
3410,845,816,33.99,27.184,-0.0034,0.0332,9.8354,-0.0066,0.2241,0.2236
3415,875,812,34.007,27.393,-0.0577,-0.0049,9.7633,-0.1512,-0.3314,0.1818
3420,873,813,33.967,27.229,0.0376,0.056,9.8909,0.3706,-0.0747,0.5419
3425,890,817,33.931,27.258,0.0619,-0.0186,9.7699,-1.0136,0.2299,-0.912
3430,904,813,34.011,27.247,0.0039,0.0217,9.7365,-0.1785,-0.2775,0.2952
3435,916,810,33.972,27.312,-0.0611,-0.009,9.7754,-0.4327,0.0556,-0.1847
3440,927,807,33.995,27.171,0.0044,-0.0144,9.7655,0.2082,0.1919,0.5375
3445,946,812,34.005,27.276,-0.0117,0.1099,9.7918,0.2111,-0.3284,-0.3509
3450,957,811,33.91,27.214,-0.0454,0.0244,9.7779,0.2712,-0.5774,0.6759
3455,968,808,33.986,27.311,0.1318,-0.0071,9.8347,0.1298,-0.5005,0.483
3460,980,803,33.969,27.289,0.0209,-0.0003,9.8677,-0.8324,-0.1026,-0.3974
3465,997,806,33.951,27.211,-0.0548,-0.0169,9.762,-0.5125,-0.4574,-0.6214
3470,1010,804,33.918,27.183,0.0745,0.1073,9.8278,0.1363,0.3357,-0.0318
3475,1023,796,33.976,27.256,-0.1309,0.0016,9.7004,0.2236,-0.2124,0.0528
3480,1036,799,34.024,27.287,0.0792,-0.0709,9.8537,0.1888,-0.4892,0.0411
3485,1046,796,33.968,27.2,0.0107,0.0074,9.7543,-0.9444,0.6496,0.0177
3490,1063,796,33.983,27.318,-0.0178,-0.0942,9.7601,-0.5432,0.0511,-0.0116
3495,1072,785,33.902,27.257,-0.0154,-0.0179,9.8054,0.3147,-0.2908,0.2659
3500,1082,790,33.883,27.339,-0.0111,-0.018,9.7868,0.1722,-0.7349,0.1617
3505,1090,790,34.017,27.261,-0.0687,-0.0128,9.6896,-0.3668,-0.6326,0.0501
3510,1116,780,33.956,27.208,0.0139,-0.0206,9.8602,0.0112,1.0997,-0.3868
3515,1111,787,33.925,27.254,0.0547,-0.015,9.8319,-0.4375,0.0146,-0.2087
3520,1128,779,34.009,27.201,-0.0477,-0.069,9.8154,-0.148,-0.0934,-0.5248
3525,1144,775,33.891,27.217,0.0064,-0.0052,9.831,-0.5617,-0.6533,-0.0214
3530,1148,778,33.909,27.212,-0.0337,0.1039,9.7528,-0.8386,0.3821,0.3951
3535,1155,776,33.93,27.365,0.0519,0.0421,9.8029,0.3659,0.4995,-0.0165
3540,1154,772,33.923,27.362,0.0616,-0.0268,9.7541,0.3886,0.0229,-0.5007
3545,1165,771,33.978,27.206,0.0735,0.112,9.8193,1.021,-0.3142,-0.3478
3550,1164,770,34.024,27.199,-0.0199,0.0951,9.7741,-0.7433,0.89,0.11
3555,1175,760,34.047,27.309,0.0115,-0.0126,9.8713,0.157,-0.904,0.2809
3560,1175,761,33.965,27.235,-0.0259,0.0926,9.8637,0.9706,0.1147,-0.0981
3565,1183,757,34.021,27.324,0.0771,0.0074,9.8077,-0.1159,-1.0612,-0.5799
3570,1186,758,33.937,27.3,-0.0606,-0.0875,9.7817,-0.6522,0.0919,-0.2536
3575,1180,759,33.984,27.321,-0.0341,-0.0121,9.8334,0.1321,0.8509,0.2703
3580,1190,752,33.96,27.191,-0.0331,-0.0323,9.7731,-0.4258,0.4517,-0.2827
3585,1193,750,34.029,27.297,0.067,0.0822,9.8028,0.8477,0.9944,0.3127
3590,1195,751,33.909,27.315,-0.0155,-0.0457,9.7877,1.0223,0.1163,0.0471
3595,1180,750,33.968,27.288,0.0456,-0.0343,9.7389,0.968,0.1166,0.5674
3600,1186,740,33.978,27.296,0.0247,0.0963,9.8567,0.5628,-0.1012,0.6061
3605,1183,740,34.041,27.22,0.0139,-0.0411,9.8464,0.0831,0.2637,-0.3631
3610,1179,742,33.967,27.328,0.0152,-0.0774,9.8455,-0.0151,0.25,0.5196
3615,1187,741,34.001,27.265,0.0101,0.0612,9.8226,0.713,-0.4817,-0.5649
3620,1178,737,34.002,27.206,0.0523,-0.1238,9.8221,-0.2828,-0.0564,0.3009
3625,1168,732,33.965,27.22,0.0109,-0.0447,9.7614,0.4089,0.7826,0.8644
3630,1177,739,33.989,27.261,-0.0088,0.0149,9.7595,-0.6395,0.444,0.1935
3635,1171,735,33.956,27.197,0.0171,0.0262,9.8513,-0.3187,0.2997,-0.3164
3640,1170,737,33.953,27.313,-0.0003,0.0275,9.7239,0.9607,0.9211,1.2435
3645,1161,737,33.901,27.389,-0.0259,-0.04,9.851,-0.1606,-0.2069,-0.4167
3650,1167,733,33.974,27.217,-0.029,-0.1144,9.7731,0.5045,-0.2462,-0.3076
3655,1159,736,33.893,27.276,0.0036,0.0086,9.8408,-0.0198,-0.1782,-0.0395
3660,1150,736,33.952,27.353,0.0791,0.0312,9.6787,-0.9299,-0.0386,0.0417
3665,1151,743,33.932,27.208,0.0194,0.0962,9.8064,0.3729,0.0862,-0.5427
3670,1142,738,34.011,27.188,-0.0174,-0.038,9.9195,0.4134,-0.3271,0.0157
3675,1130,740,34.002,27.25,0.0156,-0.0212,9.8463,0.0055,0.3621,0.1442
3680,1136,745,33.99,27.283,0.0301,-0.0272,9.7701,0.155,-0.785,0.5506
3685,1135,747,33.981,27.294,0.066,-0.0452,9.7289,-0.0697,-0.6534,0.4109
3690,1126,749,33.882,27.144,-0.064,0.0049,9.7692,0.2132,-0.4549,1.1556
3695,1131,749,33.93,27.266,-0.0021,-0.003,9.7586,0.1191,0.2972,0.2905
3700,1120,753,33.996,27.236,-0.0724,-0.0425,9.7883,0.8444,0.4638,-0.3578
3705,1128,760,34.007,27.204,0.052,0.0258,9.7928,-0.3489,0.0003,0.0483
3710,1106,754,34.012,27.234,0.0018,0.016,9.7397,-0.0507,0.1788,0.0476
3715,1116,758,33.945,27.322,-0.0605,0.0362,9.7531,0.1988,0.4785,-0.4093
3720,1121,757,33.924,27.186,-0.0564,0.1036,9.8209,-0.506,-0.6776,0.673
3725,1113,765,33.932,27.384,0.0195,0.0407,9.7809,-0.2542,-0.1596,-0.4495
3730,1101,772,33.969,27.189,0.048,-0.0314,9.838,-0.3882,-1.0879,0.835
3735,1101,772,33.934,27.267,-0.0402,-0.0402,9.8175,-0.095,0.0138,0.2203
3740,1097,767,33.968,27.3,-0.0475,0.1195,9.8521,-0.5565,0.6395,-0.904
3745,1099,774,33.886,27.3,0.0312,0.06,9.8842,0.2072,-0.4211,0.4811
3750,1093,784,33.943,27.228,0.0235,-0.0192,9.8509,0.7984,-0.211,0.5628
3755,1085,791,34.019,27.267,0.1474,-0.0204,9.8192,-0.1292,0.4861,-0.4553
3760,1093,787,33.933,27.188,0.0205,-0.0283,9.8495,-0.6717,0.1123,0.3322
3765,1086,793,34.046,27.261,-0.0837,-0.0754,9.7249,-0.5672,0.5717,-0.0692
3770,1087,796,33.942,27.359,0.019,0.0411,9.8341,0.3981,-0.1553,1.2211
3775,1075,801,34.014,27.235,-0.0049,0.0385,9.7822,0.4754,-1.1113,0.5688
3780,1075,799,34.024,27.199,-0.0808,-0.0027,9.8179,0.1826,0.0171,0.3848
3785,1076,801,33.918,27.376,-0.0909,-0.0086,9.8028,-0.1969,0.2004,-0.3099
3790,1069,812,33.984,27.11,0.0244,0.0326,9.7594,-0.4867,0.3704,-0.2191
3795,1068,818,34.019,27.237,-0.0087,-0.0496,9.7903,0.4275,-0.5306,-0.6646
3800,1065,812,34.01,27.277,-0.0343,-0.0808,9.8277,-0.5085,0.0244,1.1942
3805,1065,818,33.878,27.248,-0.0809,0.0385,9.8448,0.8986,-0.691,-0.5055
3810,1052,822,34.001,27.357,0.0334,-0.0235,9.7377,-0.0014,-0.6034,0.2613
3815,1059,821,33.99,27.296,0.006,0.076,9.8133,-0.4923,-0.4287,-0.5252
3820,1046,825,33.955,27.349,0.0839,-0.0043,9.7729,0.1608,-1.1116,0.7569
3825,1042,827,33.897,27.207,-0.0523,0.0122,9.8109,0.214,-0.0146,-0.6062
3830,1044,831,33.962,27.259,-0.0155,-0.0545,9.7819,0.4011,0.6476,0.6561
3835,1039,833,34.043,27.279,0.0107,0.0114,9.7437,-0.2785,-0.7062,0.7413
3840,1034,836,33.948,27.282,-0.0511,0.0167,9.814,-0.156,0.0081,-0.3549
3845,1028,845,33.982,27.249,-0.0392,0.033,9.869,-0.04,-0.5236,0.8096
3850,1018,842,34.047,27.221,0.0486,-0.0053,9.815,-0.3867,-0.0621,0.6428
3855,1009,840,33.952,27.308,-0.0084,0.0193,9.8106,-0.2068,0.6352,-0.4628
3860,1012,841,33.864,27.241,-0.0655,-0.0654,9.7983,-1.0966,-0.4062,-0.3307
3865,993,839,33.981,27.268,-0.0467,-0.0024,9.793,0.0082,-0.2196,0.2662
3870,993,839,33.935,27.22,-0.0014,0.0429,9.7251,-0.023,0.0482,0.7843
3875,984,841,34.009,27.245,-0.0314,0.0578,9.8481,-0.6429,-0.2525,-0.886
3880,979,840,33.936,27.111,0.0054,0.0093,9.8063,0.5882,0.1213,1.4338
3885,959,845,33.977,27.266,-0.1466,0.0615,9.7005,-0.2313,-0.2273,0.7624
3890,959,842,34.036,27.304,-0.043,-0.0055,9.7902,-0.6611,-0.9514,0.0256
3895,952,843,34.084,27.185,0.0558,-0.0094,9.7296,0.9164,-0.5426,0.5291
3900,930,846,33.996,27.26,-0.0879,0.0037,9.8397,0.032,0.6276,-0.4868
3905,922,842,34.062,27.209,-0.0251,-0.0183,9.8403,-1.121,0.4428,0.2572
3910,920,845,34.028,27.289,0.0862,0.0309,9.8666,0.0657,0.0429,0.1601
3915,903,848,34.001,27.173,-0.0219,0.0235,9.8262,-0.3323,0.2232,0.0674
3920,894,847,33.862,27.238,-0.0067,0.0426,9.7644,0.3437,-0.4029,-0.2581
3925,885,846,34.077,27.331,-0.0867,-0.0758,9.7995,-0.231,0.143,-0.2884
3930,876,844,33.925,27.321,0.0204,0.0478,9.8677,0.6076,0.2155,-0.8449
3935,860,849,34.016,27.27,-0.0157,0.0041,9.8617,-0.5512,-0.3513,0.3548
3940,846,845,34.092,27.253,0.0376,0.037,9.7427,-0.3109,0.2079,-0.6355
3945,839,843,33.974,27.222,-0.0237,-0.0041,9.8387,0.1007,-0.0969,-0.1878
3950,842,842,33.965,27.204,0.0889,0.0167,9.748,-0.5074,0.7,0.0589
3955,819,836,34.019,27.325,-0.016,0.0166,9.7635,0.3637,-1.1165,0.2064
3960,815,840,33.989,27.232,-0.0992,-0.007,9.8431,-0.1517,0.5457,-0.1148
3965,804,838,33.968,27.181,0.0324,0.0334,9.8292,-0.3853,-0.8641,0.2452
3970,801,842,33.905,27.274,0.0602,-0.047,9.7911,-0.3417,-0.3049,0.1174
3975,788,834,34.044,27.39,-0.071,0.0026,9.7992,0.2723,0.1052,-0.4113
3980,778,835,33.954,27.33,0.0405,0.0258,9.8623,0.0586,0.4047,0.0154
3985,774,833,33.969,27.208,0.0547,0.0842,9.7874,0.056,0.2496,-0.112
3990,770,834,33.979,27.31,-0.0347,-0.022,9.8707,-0.5891,0.0567,-0.5093
3995,769,831,34.034,27.278,-0.0711,0.0489,9.8472,0.3915,-0.055,-0.7044
4000,754,833,33.953,27.299,-0.049,-0.0277,9.7738,0.2255,0.7763,0.6651
4005,741,827,33.976,27.278,0.0974,-0.0109,9.8487,-0.356,0.5866,-1.0
4010,750,834,33.963,27.206,0.018,0.0458,9.7372,-0.0793,-0.2332,0.3136
4014,750,824,33.952,27.296,0.0582,-0.0155,9.7678,0.2309,0.0829,-0.683
4019,752,828,33.974,27.219,0.0718,-0.0253,9.8375,0.0168,-0.2029,0.004
4025,750,831,33.955,27.323,-0.0413,-0.0187,9.8529,-0.1185,0.4563,-0.2764
4030,747,825,34.025,27.309,0.0766,0.0325,9.7558,-0.264,0.2514,-0.2586
4035,751,823,33.902,27.136,0.0816,-0.0209,9.8139,0.1739,1.0609,0.5792
4040,751,824,33.943,27.2,-0.0228,0.0222,9.8087,-0.8515,0.4317,0.0691
4045,752,827,34.009,27.236,-0.0643,-0.0073,9.7566,0.5823,-0.2909,-0.2395
4050,759,824,34.088,27.248,-0.0143,-0.0251,9.7147,-0.068,-0.1316,-0.6869
4054,756,823,34.035,27.285,0.0049,-0.0313,9.7413,0.6461,-0.3399,-0.439
4059,767,828,33.978,27.155,0.0433,0.004,9.7782,0.0799,0.4559,0.0615
4065,779,824,33.958,27.259,-0.0371,-0.0304,9.823,0.0822,-0.068,0.6104
4070,782,824,34.042,27.298,0.0203,-0.0046,9.848,-0.5839,0.8106,-0.6088
4075,782,822,33.986,27.226,-0.0608,0.015,9.8263,0.284,0.1689,-0.2627
4080,786,821,33.945,27.392,-0.0227,-0.039,9.8408,0.3026,-0.2966,0.8561
4085,808,821,33.93,27.275,-0.0576,0.0329,9.835,-0.1125,0.9847,0.0377
4090,815,819,33.979,27.274,0.1003,0.0477,9.7696,-0.0249,-0.058,-0.7761
4094,826,816,34.0,27.216,-0.0863,0.0053,9.867,0.1357,0.0837,0.6959
4100,836,818,33.973,27.282,-0.0469,-0.0064,9.727,0.2151,-0.4086,-0.9228
4105,850,815,33.895,27.246,-0.0856,-0.1002,9.6711,-0.5,-0.0709,0.1935
4110,855,820,33.973,27.359,0.0587,0.0969,9.7729,-0.1854,-0.1532,-0.3567
4115,868,822,34.049,27.192,0.0067,0.0779,9.8222,-0.1642,0.7568,-0.0751
4120,884,812,34.036,27.291,-0.1044,0.0261,9.8096,-0.8251,0.1009,-0.4845
4125,893,817,33.99,27.298,0.0491,0.0261,9.7777,0.2906,-0.4878,-0.7251
4130,914,812,33.998,27.215,0.0726,0.0717,9.6993,-1.3609,-0.5078,0.7342
4135,923,811,33.984,27.207,0.0264,-0.0028,9.8184,0.6327,0.167,-0.1529
4140,939,809,33.979,27.227,-0.0189,0.0697,9.8693,-0.6804,1.1695,-0.3279
4145,958,807,33.933,27.236,-0.0983,0.0531,9.8271,-0.4186,1.0423,0.3324
4150,974,812,34.064,27.251,0.0748,-0.0206,9.7431,0.4283,0.6661,0.2756
4155,983,807,34.038,27.141,-0.0015,0.0394,9.9021,-0.5375,-0.1736,-0.3837
4160,997,800,33.959,27.238,0.0049,0.0493,9.7778,-0.2274,0.189,-0.0599
4165,997,805,33.954,27.11,-0.0564,-0.0501,9.9064,-0.3467,-0.4822,0.219
4170,1016,805,33.946,27.231,0.0498,-0.1088,9.744,-0.6563,0.0091,-0.3802
4175,1035,792,33.916,27.306,0.0084,-0.0033,9.8525,-0.0693,0.4391,-0.5658
4180,1046,791,34.02,27.254,0.0021,0.0153,9.7273,-0.1671,1.0663,-0.4579
4185,1064,790,33.959,27.184,-0.0499,-0.0319,9.7382,0.3537,-0.1588,-0.1557
4190,1074,793,33.933,27.211,-0.0765,0.0235,9.8097,0.7904,-0.0142,-0.3628
4195,1078,787,33.965,27.251,0.0011,-0.0002,9.8796,0.5578,-1.2176,0.8628
4200,1089,786,33.883,27.217,0.0508,0.0003,9.8359,-0.5786,-0.3403,-0.956
4205,1106,782,34.018,27.163,0.0401,-0.0225,9.7746,0.6677,0.0208,-0.261
4210,1110,782,33.963,27.161,-0.0487,-0.0697,9.8199,0.0356,-0.038,-0.0676
4215,1120,777,34.011,27.253,0.0018,0.0304,9.8398,-0.4284,0.5802,-0.2631
4220,1137,774,34.041,27.237,-0.1283,0.0403,9.8405,0.0262,-0.2107,-0.8139
4225,1140,776,33.95,27.311,-0.0139,-0.0615,9.8807,-0.1593,0.9123,-0.511
4230,1149,772,34.049,27.179,0.0856,0.0504,9.8311,0.5823,1.216,0.1897
4235,1146,772,34.007,27.255,-0.0693,-0.0045,9.7977,-0.5277,-0.2069,0.1395
4240,1161,767,33.995,27.223,-0.029,0.004,9.7924,0.1353,-0.3947,0.1193
4245,1171,760,33.974,27.292,0.0055,-0.0139,9.8449,0.9535,0.7483,0.7933
4250,1174,763,33.92,27.379,-0.0568,0.0581,9.8005,-0.0444,-0.0517,0.7682
4255,1177,760,33.914,27.2,0.0384,0.0293,9.7884,-0.5135,-0.2048,-0.3102
4260,1183,763,33.93,27.228,-0.0711,-0.0035,9.8548,-0.5592,-0.1214,-0.0573
4265,1178,757,34.017,27.213,0.0346,-0.059,9.7379,0.3787,-0.4125,-0.4675
4270,1185,755,33.956,27.37,-0.0632,0.024,9.7454,-0.3613,-0.2021,0.6569
4275,1186,752,33.918,27.216,0.0102,-0.0029,9.7616,0.0329,0.2213,0.2368
4280,1181,749,33.87,27.288,-0.0363,0.0362,9.8076,-1.0119,-1.0233,0.0443
4285,1186,747,33.944,27.261,0.0185,0.0345,9.938,-0.0984,0.6751,-0.2073
4290,1183,745,33.967,27.334,0.0054,-0.0664,9.7453,0.0822,0.6223,0.1771
4295,1188,739,33.91,27.31,-0.0044,0.0278,9.8775,-0.3937,1.24,0.6213
4300,1187,740,34.106,27.306,0.0424,-0.007,9.7826,-0.4209,-0.7273,0.2562
4305,1181,738,33.931,27.192,-0.0608,0.0532,9.7431,0.8139,0.5365,-0.8389
4310,1180,741,34.028,27.254,0.0853,-0.1059,9.8019,-0.8172,0.1148,0.3423
4315,1180,740,33.966,27.316,0.0298,0.0524,9.8654,-0.6845,0.2664,-0.2698
4320,1178,739,33.96,27.219,-0.0092,0.0949,9.8253,-0.3255,0.266,-0.0424
4325,1173,737,34.034,27.291,0.0084,-0.0482,9.7682,-0.8859,1.1614,-0.4342
4330,1179,738,33.941,27.252,0.0323,-0.0016,9.7662,0.0841,-0.5817,0.4616
4335,1174,734,33.983,27.262,0.0514,-0.0072,9.8559,-0.7842,-0.0001,0.1236
4340,1167,738,33.968,27.239,0.0875,0.0436,9.7857,0.1637,0.403,0.1842
4345,1160,740,34.008,27.247,-0.0052,0.0043,9.8026,0.0069,0.4276,-0.2505
4350,1167,728,33.889,27.277,0.0173,-0.1149,9.7947,-0.7097,0.0124,0.4646
4355,1154,747,34.005,27.272,0.082,-0.0104,9.7533,-1.0202,-0.3274,0.1384
4360,1148,739,34.033,27.253,-0.0146,0.0696,9.8477,-0.3722,0.4087,0.0252
4365,1147,737,34.025,27.345,0.0055,-0.017,9.7643,0.4218,-0.7959,1.1106
4370,1141,739,34.042,27.254,-0.0289,-0.0134,9.7818,-0.4677,0.85,0.0205
4375,1144,743,33.977,27.335,0.0779,0.023,9.7679,-0.0358,-0.4916,-0.6311
4380,1127,749,34.026,27.327,-0.06,0.0343,9.8523,-0.7533,0.9172,-0.463
4385,1134,751,34.01,27.26,0.032,-0.0786,9.7285,-0.1734,0.035,-0.6941
4390,1133,750,33.931,27.282,0.0352,0.071,9.7441,-0.5176,0.0411,0.8923
4395,1126,751,33.985,27.237,-0.0345,-0.0471,9.7728,0.044,0.2284,0.4721
4400,1121,752,34.007,27.229,-0.0802,0.0309,9.8553,-0.4506,-0.0997,0.3552
4405,1114,755,34.024,27.267,0.0124,0.0318,9.7902,-0.7677,-0.8467,-0.0337
4410,1114,756,33.957,27.23,-0.0106,-0.0314,9.8879,0.805,0.2755,0.5935
4415,1111,765,33.994,27.278,-0.0549,0.071,9.7688,0.3413,0.4465,1.5931
4420,1115,765,33.947,27.331,0.0541,-0.0457,9.7034,0.0339,0.6397,0.5575
4425,1102,769,34.066,27.259,-0.0122,0.0559,9.8822,-0.0136,-0.1792,-0.2403
4430,1106,770,34.0,27.352,0.0899,0.0423,9.8358,0.4311,-0.2036,0.118
4435,1109,772,34.005,27.27,0.009,-0.0398,9.7285,0.1665,0.3924,-0.1315
4440,1106,781,33.931,27.35,-0.0861,-0.0043,9.7748,-0.9222,-0.2613,0.2997
4445,1093,783,33.945,27.318,-0.0555,-0.0148,9.787,-0.1009,0.4036,0.4338
4450,1095,786,33.958,27.279,0.013,0.0892,9.8182,-0.293,-0.7271,-0.3758
4455,1091,785,33.936,27.254,-0.0092,0.015,9.8565,0.2229,-0.8379,-0.1002
4460,1090,791,33.922,27.28,-0.0253,-0.0267,9.7672,-0.0313,0.4907,-0.6712
4465,1092,793,33.914,27.235,-0.0459,0.0766,9.7482,0.4987,0.1102,-1.0142
4470,1095,799,33.989,27.279,0.0376,0.0993,9.741,0.329,-0.6488,-0.6097
4475,1090,799,33.843,27.335,-0.0535,0.0051,9.8318,-0.308,0.5817,-0.4483
4480,1083,803,33.979,27.252,0.0589,-0.0323,9.7633,-0.8728,-0.1342,-0.4824
4485,1087,810,34.021,27.138,-0.0175,0.0344,9.7864,-0.5243,-0.2497,0.4986
4490,1071,815,34.005,27.247,0.0292,-0.0711,9.8274,-0.7363,0.2255,-0.76
4495,1072,812,34.023,27.229,0.069,-0.0118,9.9033,-0.4689,0.2321,-0.255
4500,1059,812,33.989,27.286,0.0388,0.0012,9.8308,0.2768,0.2632,-0.3451
4505,1061,820,33.987,27.189,0.0359,0.026,9.8375,-0.7205,0.349,0.8001
4510,1059,823,34.003,27.202,-0.0528,-0.0312,9.7528,0.7111,0.269,-0.0407
4515,1053,831,33.976,27.281,-0.0041,0.0591,9.8152,0.2894,-0.2708,-0.4087
4520,1051,830,33.98,27.313,-0.0142,0.0198,9.723,0.9395,-0.8511,0.4779
4525,1039,830,34.059,27.297,-0.0767,-0.0489,9.7541,-0.1771,-0.0835,0.0816
4530,1044,839,33.92,27.227,0.0123,-0.0866,9.8453,0.3039,-0.3663,-0.1268
4535,1035,832,33.943,27.231,0.0383,-0.0042,9.7929,0.605,-0.5221,-0.5056
4540,1034,834,34.007,27.352,0.0802,-0.0389,9.8166,-0.4554,0.2133,-0.3887
4545,1020,835,33.999,27.208,0.0277,0.0629,9.8178,-0.3867,-0.7349,-1.5864
4550,1013,838,33.962,27.231,0.0054,0.0672,9.7912,-0.0005,-0.0498,0.2825
4555,1011,843,34.055,27.327,-0.0152,0.0236,9.8359,0.2195,0.2571,0.209
4560,1008,843,33.964,27.233,0.0172,0.0355,9.8565,-0.7402,0.0928,-0.0132
4565,999,841,34.057,27.259,-0.0087,0.0673,9.7412,-0.1466,-0.1516,0.8493
4570,980,841,33.997,27.203,-0.0273,0.0251,9.8022,0.5834,0.522,-0.6036
4575,983,847,34.058,27.184,0.0006,-0.0739,9.784,-0.1925,-0.2036,-1.0261
4580,960,851,33.933,27.266,0.0529,0.0382,9.8342,-0.2269,-0.3053,0.0765
4585,949,850,33.905,27.234,-0.0104,-0.0215,9.7845,0.5202,0.6404,0.3524
4590,945,846,33.953,27.286,-0.0267,0.0472,9.8457,0.6905,-0.5162,-0.7513
4595,934,844,33.916,27.342,-0.0577,-0.069,9.8446,0.1097,0.6942,-0.5707
4600,928,851,34.02,27.287,0.0517,0.0598,9.8724,-0.0943,0.6005,0.0501
4605,916,850,33.964,27.235,-0.0079,-0.0226,9.7435,-0.7867,0.3766,-0.5343
4610,899,845,34.057,27.256,-0.0184,-0.0789,9.7908,0.0448,-0.9285,-0.4199
4615,905,852,34.067,27.265,-0.0307,0.0305,9.8648,-0.8039,-1.0997,0.0793
4620,880,844,34.005,27.29,0.0021,-0.0518,9.7937,-0.5528,-0.2418,0.3721
4625,884,841,34.049,27.323,0.0334,0.0375,9.7578,-0.5124,-0.3253,0.5796
4630,866,849,33.933,27.232,0.0155,0.0465,9.84,0.7902,-0.6166,0.1794
4635,856,847,34.011,27.31,0.0871,0.1325,9.8432,-0.3188,0.4031,0.5654
4640,846,845,33.995,27.294,0.0053,-0.0003,9.8057,-0.1854,0.4318,-0.3981
4645,838,844,33.989,27.276,0.0148,-0.0014,9.8011,0.8874,-0.2215,0.1646
4650,830,842,33.979,27.311,0.0175,0.0158,9.8117,-0.4484,0.0568,-0.3987
4655,817,833,34.059,27.218,0.0174,-0.0681,9.7579,1.1697,0.3622,0.28
4660,807,836,33.978,27.26,-0.0218,-0.0706,9.8845,-0.2695,0.801,1.0172
4665,811,835,34.053,27.209,0.0207,0.0334,9.8929,-0.1679,-0.7653,-0.905
4670,799,845,33.966,27.28,-0.0526,-0.0198,9.8288,-1.2222,0.7623,1.0098
4675,789,834,33.923,27.214,0.0892,-0.0835,9.7677,-0.8074,-0.6753,-0.5604
4680,775,833,34.007,27.255,0.0389,-0.0165,9.7314,-0.353,0.019,-0.3788
4685,772,833,33.936,27.269,0.0234,0.0739,9.8594,-0.4409,0.0471,-0.5059
4690,769,832,33.926,27.287,0.0505,0.1766,9.7967,-0.5026,-0.211,-0.3545
4695,758,829,33.943,27.189,-0.0698,0.0376,9.83,0.1047,0.2626,-0.647
4700,755,835,33.986,27.234,-0.1418,-0.0108,9.8772,-0.2761,-0.5357,1.0031
4705,745,835,33.851,27.311,-0.014,-0.0329,9.8514,-0.0071,-0.6925,0.2331
4710,753,834,33.973,27.216,0.0178,-0.051,9.8348,0.1001,0.4482,-0.2142
4715,760,825,34.047,27.3,-0.0338,0.0191,9.8057,0.3778,-0.4322,-1.1328
4720,751,833,33.938,27.294,0.0,-0.0338,9.8013,-0.1553,-0.8012,0.0496
4725,752,822,33.978,27.295,-0.0439,-0.1171,9.8237,0.3826,0.2706,0.2172
4730,746,821,34.013,27.289,0.0462,0.0684,9.8827,0.4411,-0.3954,0.238
4735,754,829,33.967,27.254,0.0752,-0.1534,9.8247,0.3721,-1.1723,-0.1071
4740,759,828,33.887,27.244,-0.0797,0.0219,9.9185,-0.0668,0.5369,0.8066
4745,748,827,33.83,27.204,-0.0109,0.0179,9.7506,-0.4586,-0.0291,-0.1979
4750,753,823,33.998,27.295,0.0426,-0.045,9.8945,-0.0408,-0.5548,0.5109
4755,765,825,34.028,27.318,0.0329,-0.0276,9.8652,-0.1357,-0.1601,0.1971
4760,772,825,34.015,27.233,-0.0299,-0.0517,9.7901,-0.4165,-0.2221,-0.0879
4765,781,823,34.069,27.287,-0.0176,-0.0829,9.8142,-0.1722,0.3897,0.0986
4770,790,816,34.047,27.325,0.0268,0.0287,9.8287,0.3271,-0.6383,-0.2192
4775,791,823,34.032,27.251,0.0601,-0.0052,9.8251,0.4754,0.0037,-1.1941
4780,807,823,34.001,27.236,0.096,-0.031,9.7852,-0.2082,0.1543,0.1866
4785,810,821,33.917,27.347,0.0023,-0.0634,9.823,0.7935,-0.0727,0.7241
4790,828,824,33.931,27.167,0.0137,0.0596,9.7995,0.3084,-1.0647,0.0544
4795,831,826,34.037,27.274,-0.024,0.1377,9.8549,0.0051,-0.5401,-0.3187
4800,844,819,34.118,27.238,0.0475,-0.0137,9.8491,-0.3163,-1.0863,0.3709
4805,860,818,34.005,27.297,0.0462,-0.0082,9.8115,0.2511,0.2781,0.6058
4810,864,815,33.938,27.253,0.0091,-0.0935,9.8487,-0.4665,-0.1756,0.1219
4815,874,816,33.988,27.304,-0.0047,-0.0034,9.8367,-1.085,-0.1501,-0.3766
4820,893,812,33.935,27.248,-0.0273,-0.0681,9.8278,0.7743,-0.5686,-0.0192
4825,899,813,33.997,27.3,-0.0605,-0.0686,9.7919,0.5952,-0.349,0.1944
4830,927,810,33.974,27.284,-0.0222,0.0118,9.8002,-0.0585,-0.4198,-0.2231
4835,932,813,33.951,27.288,0.0022,-0.0241,9.777,0.5919,-0.7644,0.0701
4840,947,805,34.011,27.297,0.0651,-0.0258,9.8551,-0.2095,-0.599,0.7348
4845,959,809,33.97,27.258,-0.0724,-0.0115,9.8216,-0.0711,-0.5284,0.5783
4850,984,806,33.955,27.152,-0.0515,-0.0215,9.8624,-0.3968,0.4317,0.2278
4855,989,808,33.893,27.219,0.0552,-0.0173,9.8059,0.4023,0.3091,-0.0444
4860,997,796,34.125,27.228,0.0321,-0.0593,9.8393,0.1485,0.1336,0.0382
4865,1015,800,33.977,27.155,0.0503,0.0642,9.8252,-0.7697,-1.0568,0.3609
4870,1033,799,33.991,27.321,-0.0074,0.0047,9.9209,0.353,-0.2839,0.4339
4875,1039,799,33.991,27.228,-0.0308,0.0191,9.8593,-0.3687,1.0396,-0.3885
4880,1057,794,34.032,27.27,0.0497,0.0295,9.8381,0.4926,0.2697,0.2507
4885,1075,792,33.906,27.193,0.05,-0.0124,9.8502,0.579,-0.4755,0.0565
4890,1083,792,33.957,27.229,-0.0581,-0.0609,9.8437,0.183,0.2554,0.3077
4895,1089,790,34.017,27.25,-0.0121,-0.0036,9.8487,-0.6273,0.6153,0.6972
4900,1102,786,33.992,27.358,-0.0427,-0.0861,9.8102,-0.3261,0.3022,-0.3535
4905,1109,781,33.985,27.31,0.0301,0.0192,9.841,-0.5625,-0.1713,-0.0321
4910,1129,781,33.956,27.249,0.0505,-0.0601,9.8917,0.75,0.4523,0.6848
4915,1138,778,34.063,27.301,0.0838,-0.0124,9.8104,-0.5499,-0.3483,-0.9266
4920,1152,774,33.921,27.296,-0.0558,-0.019,9.7675,0.4193,-0.0747,-0.2283
4925,1146,774,34.006,27.247,0.0467,0.0307,9.8255,-0.008,-0.4287,0.4333
4930,1155,776,33.973,27.395,0.0696,0.0886,9.8108,0.1658,-0.0291,0.3291
4935,1160,769,33.999,27.302,-0.02,-0.0395,9.8078,-0.066,0.5305,0.4446
4940,1164,762,33.946,27.26,0.0046,-0.0063,9.8457,-0.59,0.1287,-0.1102
4945,1172,766,33.921,27.352,0.0244,0.0101,9.8685,0.2225,0.5671,1.401
4950,1181,762,33.915,27.269,-0.018,-0.057,9.8404,-0.2295,1.0267,-0.8273
4955,1172,760,33.964,27.24,0.0553,0.0168,9.7776,0.2559,-0.5018,0.4853
4960,1183,754,33.996,27.269,0.0389,-0.0214,9.8946,0.4873,0.485,0.7103
4965,1186,750,33.968,27.285,0.1174,-0.0524,9.7106,0.7581,0.5209,-0.5971
4970,1185,757,34.033,27.272,-0.0024,0.0017,9.7696,0.5252,0.738,-0.5608
4975,1190,755,33.807,27.322,-0.0623,0.0276,9.8265,-0.1462,0.395,-0.7473
4980,1185,749,33.932,27.308,-0.0286,-0.013,9.8182,-0.2899,0.3482,-0.1905
4985,1190,751,34.059,27.258,-0.0548,0.0481,9.7651,0.6585,0.4535,-0.7374
4990,1190,740,33.938,27.239,0.0446,-0.0434,9.8468,-0.1331,0.4462,0.2028
4995,1183,742,33.977,27.256,0.0168,-0.0552,9.8081,0.137,-0.0818,0.6404
5000,1197,742,33.887,27.293,0.0358,0.0207,9.7861,0.204,-0.0875,0.0689
5005,1179,736,33.911,27.287,0.0637,0.0273,9.8251,1.1017,-0.0547,-0.5284
5010,1182,737,34.01,27.302,-0.0065,-0.0168,9.8754,-0.1008,-0.8265,0.1949
5015,1175,735,34.024,27.314,0.0006,0.0199,9.8695,-0.2274,-0.0655,0.17
5020,1182,737,34.031,27.316,0.0645,-0.0316,9.813,-0.2626,-0.7943,-0.9852
5025,1176,739,33.948,27.279,0.0084,0.0201,9.7306,0.5123,-0.8739,-0.005
5030,1172,736,33.943,27.207,-0.0194,-0.0087,9.8335,0.0921,0.8617,0.4824
5035,1162,738,33.96,27.218,-0.0514,-0.0155,9.8228,-0.9764,0.3099,0.1986
5040,1166,742,33.985,27.329,-0.0209,-0.0283,9.8154,0.2355,0.4335,0.2579
5045,1155,742,34.043,27.417,0.0069,-0.0542,9.7901,-0.9137,0.8147,-0.3079
5050,1157,731,33.965,27.287,-0.0568,-0.027,9.8271,0.6681,-0.6245,-0.4875
5055,1153,741,33.98,27.22,0.014,0.0637,9.8508,-0.1775,-0.2127,-0.7342
5060,1144,739,33.982,27.333,-0.0258,0.085,9.7896,0.2301,1.0202,-0.5159
5065,1153,743,34.01,27.26,0.1124,0.0867,9.8295,-0.9428,-0.1133,-0.6318
5070,1138,743,33.916,27.302,0.0972,-0.0012,9.8334,-0.0771,0.5055,0.2457
5075,1126,743,33.978,27.245,0.0748,-0.0786,9.8561,-0.3963,0.2801,-0.425
5080,1127,741,34.047,27.245,0.005,0.0387,9.8711,0.5048,0.6571,-0.6352
5085,1122,751,34.09,27.279,0.0933,0.0538,9.8138,0.7684,-0.452,0.0728
5090,1130,757,34.077,27.232,-0.0686,-0.055,9.7883,0.4437,0.0074,0.1915
5095,1126,753,33.981,27.378,-0.0484,0.0478,9.7793,-0.2472,1.3279,-0.0123
5100,1125,755,33.938,27.189,-0.0771,-0.0551,9.7511,-0.0851,-0.7999,0.4355
5105,1112,762,33.93,27.18,-0.0153,0.0621,9.8473,-0.2158,0.0377,0.7397
5110,1111,766,33.944,27.283,-0.0327,-0.0384,9.7819,-0.4014,0.2014,-0.061
5115,1113,763,33.907,27.252,0.0207,-0.0391,9.7126,0.3745,-0.3163,-0.3047
5120,1106,772,34.032,27.185,-0.0766,0.0547,9.813,-0.3746,0.3101,-0.2488
5125,1104,768,34.057,27.267,0.0035,-0.0073,9.832,-0.717,0.1863,-0.3612
5130,1108,770,34.042,27.239,0.1084,-0.0246,9.7274,0.1613,0.6081,-0.3258
5135,1098,779,33.883,27.227,0.0499,0.0541,9.9113,0.1706,-0.0539,0.7899
5140,1099,780,33.972,27.252,-0.0467,0.0074,9.8489,-0.098,0.5867,0.2032
5145,1099,785,33.98,27.334,0.1041,0.0082,9.841,0.9467,0.214,0.1676
5150,1094,787,33.949,27.219,-0.0231,-0.0393,9.7948,-0.5407,-0.0348,0.1766
5155,1087,787,33.902,27.303,0.0509,0.0472,9.7932,-0.6861,0.5269,0.2031
5160,1091,796,34.038,27.275,0.0206,-0.0179,9.8054,0.0007,0.1413,0.2735
5165,1087,792,33.983,27.257,-0.041,0.0373,9.8272,-0.1979,0.27,0.498
5170,1085,803,34.056,27.288,0.0361,-0.0102,9.8037,-0.2973,0.2768,-0.3404
5175,1086,803,33.97,27.296,0.0441,0.0001,9.8116,-0.4349,1.0383,-0.336
5180,1073,805,33.962,27.27,-0.1404,0.066,9.8492,0.0685,-0.2707,0.1141
5185,1069,809,33.862,27.238,-0.0319,0.0208,9.8171,0.0185,-0.4228,-0.8739
5190,1062,819,33.938,27.284,-0.025,0.0696,9.8396,-0.2201,-0.2457,0.4643
5195,1069,818,34.0,27.326,0.0248,-0.0483,9.7775,0.1025,0.049,-0.201
5200,1069,822,34.063,27.287,-0.1133,0.0603,9.7227,0.3405,-0.1874,0.3845
5205,1060,820,33.942,27.31,-0.0139,-0.0016,9.7905,-0.1629,0.0636,0.1651
5210,1053,829,33.918,27.229,-0.0784,0.0331,9.7565,0.1948,-0.1312,-0.1756
5215,1049,827,34.045,27.264,-0.0168,0.0163,9.7633,-0.57,0.0381,0.146
5220,1045,829,33.969,27.15,-0.0798,0.0319,9.8083,0.5388,0.1439,-0.028
5225,1037,832,33.987,27.17,-0.0173,-0.1071,9.8357,0.117,0.2388,-0.9237
5230,1035,831,33.941,27.32,-0.0603,-0.1201,9.7634,-0.1004,0.5936,-0.2937
5235,1028,832,34.007,27.211,-0.1563,-0.0099,9.9204,0.4774,0.0223,0.0265
5240,1015,837,33.967,27.244,-0.005,-0.0313,9.7887,1.0557,-1.1951,-0.4839
5245,1012,838,33.983,27.182,0.0419,0.0079,9.7142,-0.2722,0.1544,-0.2721
5250,1013,838,34.013,27.323,0.0654,-0.0043,9.8565,0.6251,-0.2061,0.3093
5255,1010,843,33.982,27.269,0.0562,0.0201,9.8221,-0.6036,0.5616,-0.2761
5260,998,842,33.917,27.225,0.0663,-0.1026,9.8355,0.2272,0.0921,0.5631
5265,982,841,34.006,27.226,-0.0294,-0.045,9.8195,-0.5822,0.349,0.053
5270,975,850,34.003,27.231,0.0243,-0.0388,9.7728,0.1127,-0.2774,0.1529
5275,970,844,33.916,27.316,-0.0172,-0.0144,9.8074,-0.0076,-0.1544,0.4682
5280,948,843,33.97,27.294,0.032,-0.0455,9.8928,-0.5269,0.0444,0.1964
5285,933,839,33.953,27.223,-0.0353,0.149,9.8306,0.8274,-0.2093,-0.2345
5290,947,846,33.966,27.27,0.0477,0.0435,9.7528,0.4866,0.583,0.0483
5295,930,845,33.968,27.365,0.023,-0.1133,9.8208,-0.0217,-0.4014,-0.8331
5300,924,843,34.0,27.181,-0.0451,0.008,9.7904,0.2418,0.6352,-0.4546
5305,913,849,34.034,27.191,0.0513,-0.0553,9.8254,-0.905,0.4001,0.306
5310,901,839,34.005,27.31,0.0028,-0.0179,9.7398,0.3094,-0.0676,-1.1986
5315,889,845,33.942,27.314,0.0046,-0.0227,9.8736,-0.5704,0.2664,1.2621
5320,869,844,33.983,27.307,-0.0181,0.0636,9.7686,0.1677,-0.6003,-0.1185
5325,874,845,34.05,27.218,-0.0811,0.0736,9.8744,0.0672,-0.2668,0.2961
5330,862,849,33.903,27.227,0.016,-0.0667,9.7631,-0.535,0.6128,0.3833
5335,850,842,33.986,27.215,0.036,0.0954,9.8835,-0.9128,-0.0593,-0.0316
5340,835,845,33.966,27.301,0.0338,0.0336,9.8392,0.4696,0.5082,0.123
5345,823,843,33.878,27.22,0.025,-0.0675,9.7594,0.6919,-0.6138,0.1756
5350,823,844,33.931,27.346,0.0145,-0.0904,9.7962,-0.8224,0.083,0.592
5355,814,843,34.051,27.325,0.0828,0.0855,9.8149,-0.1737,0.5545,0.086
5360,801,838,33.988,27.189,0.0188,0.0338,9.786,-0.1599,-0.1535,-0.0829
5365,791,834,33.991,27.206,0.0191,0.0285,9.7989,-0.222,-0.8298,0.9791
5370,791,835,34.047,27.305,-0.0143,-0.0683,9.7736,-0.1454,-0.1664,-0.4249
5375,787,833,33.985,27.25,0.0746,0.0492,9.8201,0.2459,-0.5625,-0.2455
5380,767,832,33.955,27.271,0.0231,0.0383,9.874,0.2806,0.6471,0.0592
5385,760,829,33.955,27.248,-0.022,0.0106,9.8518,-0.3497,0.0153,0.8203
5390,764,829,33.991,27.261,-0.0278,0.0121,9.8495,-0.0854,-0.3415,-0.5142
5395,766,830,33.927,27.234,0.0551,-0.0283,9.8402,0.072,0.2857,0.0131
5400,751,835,33.983,27.222,0.0392,-0.0074,9.7619,-0.1245,-0.0195,-0.5999
5405,755,833,34.013,27.253,0.005,0.0084,9.7324,0.0305,-0.5581,0.2286
5410,754,829,33.94,27.325,-0.0317,0.0249,9.7203,-0.1167,-0.5301,0.4112
5415,747,825,33.97,27.325,-0.0108,0.0218,9.7444,0.3627,-1.1475,0.6168
5420,740,823,34.106,27.392,0.0298,-0.0488,9.808,-0.0146,0.7306,-0.1674
5425,747,828,33.953,27.309,0.002,-0.0416,9.7826,0.2873,0.6931,-0.1548
5430,744,827,34.04,27.321,-0.0012,-0.0748,9.8501,0.347,-0.0534,-0.9325
5435,754,821,33.943,27.213,0.0797,-0.0084,9.6877,0.7817,0.3623,0.1867
5440,750,821,33.989,27.204,0.0832,0.0197,9.8893,1.3987,-0.0239,0.3702
5445,753,818,33.917,27.282,0.0294,0.0349,9.7248,0.4905,-0.4282,-0.178
5450,764,822,34.003,27.287,-0.0186,-0.0087,9.799,-0.5747,0.2881,-0.2872
5455,773,827,33.958,27.319,-0.0525,-0.0058,9.8604,-0.0233,-0.0915,0.1376
5460,775,829,33.994,27.291,0.0559,0.0503,9.7534,0.5146,-0.861,0.1879
5465,779,826,33.987,27.314,0.0388,0.0201,9.7966,0.0238,0.3637,0.4275
5470,794,819,34.005,27.321,0.0876,-0.0849,9.7953,0.3475,-0.4911,0.2281
5475,796,824,34.013,27.287,-0.0709,0.0332,9.7742,-0.2376,-0.2073,0.2633
5480,797,821,33.95,27.279,0.0669,-0.0386,9.8142,-0.1877,-1.6572,-0.5927
5485,822,822,34.026,27.175,-0.0726,-0.0638,9.8039,0.2383,0.9835,0.3357
5490,824,816,34.013,27.283,-0.0316,0.0324,9.8064,0.3507,0.2915,0.4746
5495,845,821,33.984,27.273,-0.0317,0.0225,9.7358,-0.1035,-0.2232,-0.1404
5500,845,820,33.875,27.334,0.0385,-0.0611,9.8212,-0.4402,-0.3777,-0.3562
5505,862,815,33.939,27.244,-0.0713,-0.006,9.7631,0.3116,-0.3362,0.472
5510,875,815,33.992,27.278,-0.0011,0.0673,9.8738,-0.2588,-0.0984,-0.389
5515,894,813,33.924,27.305,0.0974,-0.018,9.7975,0.035,0.8381,-0.2279
5520,907,811,33.997,27.176,0.0657,-0.0423,9.7968,-0.0531,0.3147,-0.1915
5525,909,814,33.931,27.235,-0.0193,-0.0302,9.7824,0.113,0.3555,-0.4724
5530,935,810,33.957,27.239,0.0711,0.0279,9.95,-0.1969,0.2251,-0.3256
5535,947,811,33.917,27.243,-0.0341,0.0056,9.8709,0.9675,-0.4681,-0.2835
5540,959,810,34.002,27.306,0.0682,-0.0238,9.8359,0.2748,0.0325,0.2494
5545,977,807,33.902,27.174,-0.0513,0.0221,9.7638,0.5058,0.1066,-0.4098
5550,987,808,34.03,27.258,-0.0015,-0.0082,9.9301,-0.3871,0.0194,0.0749
5555,1000,801,33.969,27.285,0.0846,0.0643,9.913,-0.5332,-0.4324,0.1973
5560,1020,803,34.015,27.238,-0.077,-0.0363,9.8743,0.9736,-0.8917,-0.4966
5565,1027,800,34.076,27.212,0.0476,-0.0724,9.837,-0.8935,0.4239,0.5888
5570,1043,803,33.945,27.307,-0.0277,0.066,9.7472,0.3005,0.0486,-0.3557
5575,1049,792,33.964,27.311,0.0035,-0.0189,9.8377,-0.149,-0.7137,-0.3585
5580,1069,794,34.024,27.188,0.0277,-0.0038,9.7433,0.2195,-0.0491,0.0677
5585,1073,790,34.014,27.256,0.046,-0.0171,9.8655,1.6744,0.7936,-0.1268
5590,1074,792,34.006,27.172,0.1079,0.0005,9.8331,0.5097,0.2829,-0.11
5595,1101,789,34.048,27.357,0.0104,0.0886,9.8253,0.2405,-0.7655,-0.8504
5600,1113,786,33.992,27.256,0.0129,0.0763,9.7688,0.3174,0.4508,-0.312
5605,1125,784,33.995,27.247,-0.0765,0.0537,9.8068,-0.8527,-0.5605,-0.3157
5610,1128,773,33.987,27.379,0.0527,-0.0297,9.8098,-0.3115,-0.3659,-0.198
5615,1135,774,34.042,27.294,-0.0366,0.0224,9.7816,-0.8528,0.3173,-0.0965
5620,1147,776,33.925,27.258,-0.0092,-0.0863,9.7845,-0.7679,0.8228,-0.2543
5625,1160,776,33.994,27.267,0.0444,-0.0111,9.8196,-0.0994,0.4843,0.6814
5630,1151,772,33.952,27.222,-0.017,-0.0343,9.8528,0.1804,-1.1303,-1.0887
5635,1168,766,34.023,27.316,-0.0496,0.0237,9.8281,0.3974,0.5562,0.5326
5640,1165,765,34.007,27.268,-0.0042,-0.0855,9.7716,0.6417,1.0738,-0.0075
5645,1169,764,34.035,27.295,0.0088,0.0186,9.797,-0.4221,-0.3454,-0.3414
5650,1179,757,34.065,27.263,-0.0446,-0.0281,9.7426,-0.835,0.0209,0.3933
5655,1185,758,34.018,27.241,0.0116,-0.0295,9.7766,0.0752,-0.1414,-0.3915
5660,1182,756,33.961,27.194,-0.0436,-0.0006,9.8016,-0.3027,-0.4225,0.1546
5665,1189,756,33.96,27.191,0.0171,-0.0657,9.7316,0.3138,-1.1171,0.6528
5670,1186,754,33.911,27.254,-0.0066,0.0102,9.9561,0.0203,-0.3961,0.315
5675,1189,746,33.979,27.258,-0.0191,-0.0468,9.8503,-0.2064,0.017,-0.9191
5680,1192,749,34.03,27.285,0.0294,-0.0439,9.7994,0.5367,0.8847,0.3315
5685,1186,743,34.019,27.219,-0.0237,0.0286,9.8989,-0.2121,-0.5703,-0.6922
5690,1186,748,34.01,27.299,-0.0107,-0.0987,9.8376,0.7809,0.0868,-0.2972
5695,1182,742,33.926,27.219,0.0503,-0.0199,9.756,0.3237,-0.336,-0.5268
5700,1188,740,33.958,27.285,-0.0276,-0.0515,9.8362,-0.0031,0.3072,0.6485
5705,1181,744,33.924,27.31,-0.0251,0.0257,9.8394,-0.2907,0.6854,-0.2485
5710,1174,740,34.054,27.226,-0.0372,0.1222,9.8349,0.4864,0.1572,0.266
5715,1188,738,34.045,27.275,-0.0162,-0.0053,9.75,-0.076,0.515,-0.3202
5720,1169,736,34.039,27.38,-0.0047,0.0132,9.7944,0.0406,0.7359,0.1534
5725,1174,733,34.03,27.23,0.0153,0.01,9.8266,-0.7219,-0.2126,-0.0704
5730,1163,739,34.011,27.321,-0.0024,-0.0133,9.7719,-0.9115,-0.107,0.428
5735,1166,740,33.987,27.266,0.1045,-0.0114,9.8265,-0.6416,0.871,0.2153
5740,1156,740,33.972,27.238,0.0371,-0.0767,9.8546,0.0286,0.0206,-0.0431
5745,1161,736,33.913,27.215,0.0607,-0.0663,9.8439,-0.1525,0.1066,0.1164
5750,1154,734,34.011,27.201,-0.0104,0.0117,9.7954,1.067,-0.4359,0.5049
5755,1152,742,33.962,27.38,0.0012,0.0074,9.7209,-0.3087,0.2515,-0.2012
5760,1151,741,33.994,27.248,0.0328,-0.0199,9.8503,0.52,-0.2394,0.6729
5765,1140,745,33.947,27.233,-0.1271,-0.0056,9.868,-0.1285,-0.0057,0.3542
5770,1136,744,34.066,27.232,-0.0573,0.0333,9.7728,-0.0073,-0.6784,1.2776
5775,1146,747,34.038,27.31,0.0417,-0.0216,9.8185,0.6253,-1.0484,-0.0694
5780,1129,746,34.064,27.366,-0.1041,-0.0747,9.8521,0.0821,0.3728,0.3367
5785,1121,749,34.033,27.261,-0.0513,0.0971,9.812,0.391,-1.0574,0.275
5790,1128,756,33.976,27.251,-0.0269,0.0399,9.8351,-0.5144,-0.3518,-0.7477
5795,1119,756,33.992,27.233,0.0968,-0.0949,9.7795,0.5607,0.2388,-0.5321
5800,1114,758,33.963,27.246,0.007,0.0286,9.7688,-0.2332,-0.1389,0.3006
5805,1111,758,34.076,27.314,0.0757,-0.0386,9.8017,-1.2928,-0.0147,0.2813
5810,1118,763,34.045,27.266,0.1105,0.0789,9.7821,0.1625,-0.2267,-0.3376
5815,1106,767,33.94,27.28,-0.0194,-0.0597,9.8262,-0.9117,0.1939,0.1142
5820,1100,769,33.95,27.276,-0.0274,0.0042,9.8029,-0.1676,0.1821,0.8321
5825,1101,773,34.003,27.221,-0.0498,-0.0193,9.8553,0.4886,0.11,-0.4699
5830,1092,775,34.074,27.455,-0.0015,-0.0133,9.8914,-0.0122,-0.5402,-0.0095
5835,1106,781,33.91,27.269,0.0294,-0.0025,9.8468,0.2252,0.0192,0.4291
5840,1099,785,34.1,27.16,0.0493,0.0699,9.7125,0.3427,0.8858,0.446
5845,1094,786,34.032,27.308,-0.0013,-0.0342,9.7206,-0.263,0.6794,-0.306
5850,1087,792,33.912,27.247,-0.1416,0.017,9.8272,-0.4761,0.1167,-0.2579
5855,1092,800,34.023,27.363,0.0119,0.0211,9.843,-0.1311,0.0931,0.0094
5860,1087,795,34.004,27.285,-0.0078,0.0035,9.8943,0.1739,-0.7593,0.2052
5865,1084,799,33.952,27.312,-0.0331,0.0272,9.7054,-0.1425,0.7058,0.3359
5870,1078,808,34.026,27.232,-0.0609,-0.0151,9.8098,-0.4232,-0.6048,-0.4758
5875,1076,807,34.007,27.137,-0.0821,-0.0171,9.8392,-0.0274,0.2251,-0.7577
5880,1078,814,34.04,27.265,-0.0053,0.0526,9.8227,-0.5967,0.1711,-0.4301
5885,1071,810,33.946,27.274,-0.0544,-0.0361,9.7954,0.7449,0.267,0.8313
5890,1078,819,34.009,27.346,0.0567,0.02,9.8734,0.1305,-0.1563,0.4236
5895,1067,818,33.959,27.205,0.0146,-0.0954,9.8009,-0.9937,0.2192,0.0986
5900,1056,822,34.003,27.231,0.0023,-0.0619,9.8766,0.0021,0.2646,-0.2783
5905,1059,823,33.971,27.259,0.1306,0.069,9.7885,-0.0515,0.4183,-0.1794
5910,1046,826,34.004,27.338,-0.0605,-0.0176,9.8299,-0.5644,-0.2587,0.1931
5915,1047,828,34.008,27.398,0.0718,0.0388,9.7669,-0.2483,-0.1645,0.6595
5920,1053,831,33.93,27.25,0.0229,0.0375,9.7898,0.0278,0.3498,0.7262
5925,1033,830,34.011,27.359,-0.0356,-0.0421,9.8502,-0.2322,0.3482,0.2125
5930,1035,836,33.953,27.293,-0.1339,-0.0039,9.8003,-0.5898,0.3103,0.6327
5935,1025,841,33.988,27.319,0.013,0.077,9.8095,-0.3341,-0.9279,0.2823
5940,1019,841,33.964,27.3,0.0486,0.0444,9.8617,0.1053,-0.2832,0.2356
5945,1011,841,33.949,27.264,0.0245,0.0008,9.712,-0.1599,0.3799,-0.4327
5950,1005,839,33.891,27.262,0.0385,0.1197,9.86,0.0794,-0.5942,-0.1888
5955,996,845,33.994,27.261,0.0384,-0.025,9.8204,0.0018,-0.0365,-0.1554
5960,995,845,34.019,27.25,0.0134,-0.0133,9.7231,-0.4643,-0.0306,1.0088
5965,982,842,34.015,27.307,0.0867,0.0547,9.8549,-0.4996,-0.4454,-0.0435
5970,968,848,34.019,27.223,0.0508,-0.0757,9.8551,-0.1176,0.1409,0.3069
5975,953,846,33.981,27.236,-0.0388,-0.0644,9.7519,-0.0261,-0.4672,0.1649
5980,950,842,33.97,27.277,0.0249,0.0311,9.8319,0.8915,0.325,1.1173
5985,942,840,34.075,27.256,0.0541,0.0216,9.7707,0.0927,0.2778,-0.5471
5990,936,841,33.98,27.257,0.0638,-0.144,9.7615,0.7696,0.1647,0.839
5995,924,846,34.038,27.347,0.0644,0.0159,9.8009,0.2829,-0.4524,-0.0036
6000,913,839,34.012,27.28,-0.0374,0.0189,9.8819,0.448,-0.3803,0.4259
6005,895,845,34.088,27.288,-0.0557,0.0224,9.782,0.2057,-1.1862,0.114
6010,893,850,33.922,27.249,-0.0122,0.0245,9.7731,0.1856,-0.1839,-0.0424
6015,880,847,34.025,27.215,0.0335,0.0814,9.8164,-0.1281,-0.291,0.1683
6020,878,847,33.952,27.287,-0.0309,-0.0388,9.8432,0.9386,0.4144,0.3547
6025,869,843,33.942,27.27,0.0426,0.0685,9.7952,-0.079,-0.5561,-0.0582
6030,860,841,34.074,27.307,-0.0153,-0.013,9.8404,-1.4366,-0.0569,0.3169
6035,844,842,34.027,27.334,-0.0158,0.0729,9.8007,0.2683,1.2013,-0.6018
6040,825,844,34.034,27.199,0.1116,-0.0763,9.7942,-0.0428,0.2207,-0.3367
6045,822,843,33.956,27.269,-0.019,-0.0219,9.7823,-0.1063,-1.1171,0.2164
6050,814,841,34.007,27.266,-0.0341,-0.0108,9.7683,-0.453,-0.0055,-0.7408
6055,803,843,34.016,27.183,-0.0074,0.0135,9.8533,-0.2087,0.2924,0.1232
6060,800,840,34.005,27.304,-0.0552,0.0497,9.8132,0.6475,0.1489,0.177
6065,789,839,34.007,27.211,0.0542,-0.0024,9.7925,0.1922,0.6484,0.1439
6070,780,832,33.918,27.218,0.0304,-0.0842,9.7752,0.1559,1.1827,0.1823
6075,779,835,33.994,27.339,0.0199,0.0016,9.7697,0.3595,-1.3436,-0.051
6080,773,837,34.021,27.228,0.0559,-0.0189,9.7964,-0.3942,0.0978,-0.2871
6085,777,835,33.949,27.257,-0.0907,0.0849,9.8441,-0.251,-0.4917,-0.5652
6090,772,831,34.062,27.318,0.0477,-0.0073,9.7827,-0.5911,-0.2889,-0.3823
6095,755,836,34.004,27.212,-0.0118,-0.0269,9.8644,-0.6431,-0.0946,0.255
6100,755,828,33.961,27.31,-0.0108,-0.0077,9.8322,0.2659,0.3361,-0.3385
6105,753,826,34.004,27.306,-0.0141,0.0709,9.8396,-0.343,0.05,-0.2435
6110,749,829,34.039,27.267,-0.0316,-0.028,9.7955,0.2738,-0.6835,1.0772
6115,750,824,33.937,27.399,-0.0001,0.0287,9.85,0.2841,-0.8286,-0.0481
6120,745,823,33.969,27.352,-0.0541,0.0043,9.8298,0.3138,0.5436,-0.2833
6125,752,824,33.893,27.209,0.0659,-0.0484,9.8064,-0.1844,0.4984,-0.0728
6130,761,823,34.046,27.276,-0.0533,-0.0335,9.7843,0.2637,0.4578,-0.3883
6135,749,820,34.031,27.259,0.0033,0.0566,9.8383,0.0481,-0.2311,-0.1167
6140,767,826,34.023,27.247,-0.014,0.01,9.7925,-0.0769,-0.0591,-0.2176
6145,762,823,34.014,27.237,0.0144,0.0016,9.8174,0.754,-0.6909,0.1353
6150,766,824,33.941,27.27,-0.0111,-0.0515,9.8597,-0.6691,0.8386,-0.2288
6155,774,819,34.004,27.294,0.0062,-0.038,9.8017,-0.5346,0.4682,-0.1226
6160,779,822,34.038,27.377,0.0982,-0.0089,9.7752,0.2966,-1.1394,0.4547
6165,789,821,33.99,27.335,-0.0131,0.0005,9.8424,-0.3235,0.9191,-0.3507
6170,801,817,33.999,27.327,0.0049,0.0483,9.7729,-0.4681,0.351,-0.3125
6175,803,820,34.023,27.288,0.0741,0.058,9.8116,0.7835,-0.6426,-0.3499
6180,813,819,33.942,27.202,0.0485,-0.0314,9.8277,-0.0444,0.4067,0.1811
6185,829,823,34.055,27.257,0.0021,-0.0336,9.8111,-0.5337,-0.6595,0.3515
6190,841,815,33.991,27.227,0.0416,0.0636,9.7486,-0.2235,-0.6953,-0.4834
6195,848,814,33.969,27.294,-0.0901,0.002,9.7944,0.0872,0.9622,-1.3889
6200,860,818,34.007,27.286,0.001,0.0358,9.8221,0.5192,0.1635,0.2806
6205,872,816,33.99,27.325,0.0166,-0.0659,9.8806,0.1241,0.9197,-0.3063
6210,886,813,33.95,27.228,-0.115,-0.013,9.8011,0.1451,-0.0223,0.0311
6215,900,812,33.97,27.313,-0.0223,-0.0269,9.8764,0.4087,0.4168,-0.2199
6220,911,809,34.041,27.334,0.0357,0.0719,9.7315,-0.519,0.3327,-0.1995
6225,927,814,34.019,27.349,0.0289,0.0994,9.8116,-0.8602,-0.8239,0.2896
6230,935,808,33.931,27.321,-0.0165,-0.0187,9.8025,-0.2663,-0.3665,-0.4675
6235,958,808,33.907,27.269,0.0165,-0.0328,9.6864,0.0108,-0.0521,-0.3495
6240,974,810,34.0,27.269,-0.0673,-0.0125,9.7947,-0.6977,-0.875,1.2022
6245,990,805,33.961,27.33,0.0328,-0.1088,9.8456,-0.7209,-0.3364,-0.2179
6250,990,803,34.018,27.325,-0.0503,-0.035,9.7848,-0.1858,0.012,-0.102
6255,1015,807,33.986,27.237,0.0079,-0.0094,9.7211,-1.0266,0.7281,-0.5117
6260,1031,798,34.099,27.311,-0.0582,-0.0013,9.8178,0.7951,1.0211,0.3181
6265,1043,803,34.018,27.307,0.0607,0.051,9.9139,0.4607,-0.3857,-0.2937
6270,1050,799,33.943,27.354,-0.0112,0.0687,9.9195,-0.5869,0.2649,-0.4708
6275,1063,800,34.018,27.294,-0.053,-0.0685,9.8401,0.2307,0.1365,-0.4234
6280,1075,793,33.938,27.228,-0.0234,0.0205,9.7718,0.4142,-0.3388,0.4725
6285,1085,793,33.968,27.272,0.0883,0.1102,9.7952,-1.2005,0.2239,-0.0857
6290,1094,789,33.957,27.298,0.0409,0.0089,9.7838,0.3454,0.4928,0.0283
6295,1107,785,34.07,27.19,-0.0427,0.0942,9.792,0.3977,0.4565,0.1005
6300,1107,781,33.938,27.178,-0.0767,-0.029,9.7955,0.253,0.4165,0.1451
6305,1126,782,33.907,27.31,-0.0751,0.0466,9.8087,-0.3085,-0.5281,0.5741
6310,1133,780,33.924,27.248,-0.0917,-0.1356,9.7268,0.4456,0.3793,-0.0466
6315,1143,775,33.975,27.249,-0.1093,0.0761,9.7613,-0.7396,0.5837,0.6152
6320,1143,777,33.97,27.341,-0.0487,-0.0452,9.7891,1.106,-0.0581,0.1376
6325,1152,766,34.05,27.346,0.022,0.009,9.8399,-0.6457,0.5643,-0.5298
6330,1165,768,34.043,27.313,0.0054,-0.027,9.7448,0.2347,-0.1018,-1.0711
6335,1166,767,34.04,27.267,-0.0826,0.0929,9.8121,0.2812,-0.0966,0.437
6340,1170,765,33.915,27.271,-0.0815,0.0696,9.7559,-0.1806,0.2717,0.0825
6345,1170,755,34.036,27.268,0.1118,-0.0301,9.785,0.5953,0.466,0.5753
6350,1177,763,33.915,27.247,-0.0257,-0.0463,9.8352,-0.6789,-0.1466,0.5128
6355,1182,760,33.974,27.237,-0.0487,0.038,9.8807,0.7363,-0.7092,-0.1505
6360,1190,748,34.034,27.255,0.0403,-0.0032,9.819,0.2055,0.776,0.8324
6365,1191,748,33.959,27.281,-0.0663,0.1025,9.7404,0.3833,-0.2006,0.045
6370,1188,750,34.043,27.217,-0.0667,-0.0325,9.8298,1.2777,0.4797,0.243
6375,1195,747,33.968,27.344,0.0506,-0.0411,9.8029,-0.0443,0.1809,0.1179
6380,1187,744,34.077,27.218,-0.0883,-0.0271,9.8039,-0.1637,-0.3986,-0.6575
6385,1192,743,34.04,27.321,0.007,-0.0193,9.8571,0.1463,0.7509,0.8369
6390,1187,740,34.004,27.267,-0.0049,-0.0137,9.77,0.4295,-0.3907,-0.46
6395,1186,739,34.047,27.296,0.0665,-0.0008,9.902,0.2134,-0.4819,0.5349
6400,1179,741,34.049,27.261,0.0821,-0.0062,9.7605,-0.3834,0.6048,0.4532
6405,1179,741,33.913,27.368,-0.0906,-0.0152,9.8285,0.1662,0.1236,0.044
6410,1175,736,34.035,27.305,0.0134,0.0565,9.7269,-0.1782,0.3222,-0.7038
6415,1175,739,34.055,27.25,0.0546,0.0616,9.842,-0.1354,0.8659,0.1307
6420,1179,735,33.976,27.268,-0.0405,0.0191,9.7757,-0.5811,-0.0475,0.8001
6425,1168,731,34.021,27.273,-0.0195,-0.042,9.7916,0.142,0.6856,-0.3449
6430,1166,738,34.017,27.26,-0.0073,0.0912,9.7795,-0.9054,1.1674,0.2451
6435,1165,736,33.943,27.29,0.0513,0.0025,9.7591,0.1867,0.3973,-0.656
6440,1163,739,33.982,27.259,0.0476,-0.0193,9.7557,-0.1329,-0.8108,-0.0769
6445,1143,739,33.97,27.193,-0.0478,-0.0163,9.7761,0.4128,0.1339,0.6888
6450,1153,735,34.031,27.341,-0.0531,0.0113,9.8778,-0.2179,0.8077,0.1382
6455,1142,739,33.938,27.282,0.0081,0.0692,9.7148,-0.3182,0.6364,-0.2317
6460,1139,739,33.936,27.263,0.0083,-0.0053,9.8869,-0.3532,0.2506,0.3045
6465,1133,739,33.97,27.246,-0.0145,-0.0008,9.7797,-0.2583,0.9216,0.4831
6470,1133,748,33.966,27.266,0.0242,-0.0576,9.8638,0.3722,-0.3446,-0.5526
6475,1141,741,34.007,27.249,-0.0823,-0.0361,9.8709,0.1816,-0.1771,0.0881
6480,1119,746,33.903,27.206,0.0448,-0.0552,9.799,-0.2159,-0.3879,-0.0256
6485,1128,754,33.996,27.263,-0.0382,0.0255,9.7574,-0.3963,-0.1244,0.586
6490,1118,758,33.958,27.236,-0.077,-0.0604,9.8401,-0.8705,-0.6269,-0.1218
6495,1119,756,34.033,27.314,-0.0165,-0.0627,9.8337,0.1059,0.319,-0.6385
6500,1117,759,33.996,27.235,-0.0049,-0.0029,9.8142,0.5322,0.6342,0.0037
6505,1120,765,33.988,27.231,0.0546,0.0388,9.7424,-0.0127,0.2346,0.1311
6510,1111,765,34.03,27.297,-0.0353,0.0634,9.7979,0.439,0.3029,-0.0076
6515,1115,766,33.883,27.254,0.0273,0.0287,9.8055,-0.1121,0.5861,0.2808
6520,1101,770,33.969,27.313,-0.0214,-0.0218,9.8973,0.2233,0.4745,-0.336
6525,1104,775,34.132,27.221,0.052,-0.0979,9.8314,-0.072,0.0055,0.4437
6530,1103,784,33.982,27.244,-0.0437,0.0513,9.7919,0.3025,-0.4001,0.0298
6535,1093,778,33.995,27.227,0.0043,-0.0697,9.7775,-0.4829,-0.2792,-0.2066
6540,1090,784,33.97,27.211,0.0072,-0.0987,9.7185,-0.1144,-0.8898,-0.726
6545,1102,788,33.992,27.309,-0.0425,0.0081,9.8001,-0.3315,-0.1184,-0.0546
6550,1092,786,33.941,27.247,-0.0131,-0.0218,9.8465,-0.3434,0.1961,-0.0131
6555,1080,795,33.995,27.376,-0.0135,-0.0022,9.8458,0.3834,0.0891,-0.7614
6560,1079,800,33.944,27.279,0.0178,0.043,9.9042,0.9049,0.8125,0.0286
6565,1077,803,33.95,27.252,0.0224,0.0328,9.66,0.1535,0.053,-0.2577
6570,1079,804,33.99,27.237,-0.0051,0.0437,9.7757,-1.0966,0.2209,-0.057
6575,1083,812,34.052,27.295,-0.0929,-0.0049,9.7888,-1.2885,0.0043,-0.2215
6580,1086,813,33.961,27.201,-0.1411,-0.016,9.778,-0.3392,0.4127,-0.5281
6585,1064,818,33.936,27.296,-0.0326,0.1116,9.7956,0.2724,-0.2282,0.6507
6590,1073,819,34.032,27.311,0.0645,0.0694,9.8638,0.0834,-0.3587,0.7991
6595,1061,822,34.026,27.299,-0.0031,-0.0434,9.7957,-0.2767,-0.7632,-0.0129
6600,1060,822,33.97,27.264,-0.0615,0.0233,9.8909,-0.268,0.2798,-0.4963
6605,1052,819,33.936,27.226,-0.0126,-0.0153,9.8071,0.1141,0.4801,0.2667
6610,1058,829,34.028,27.314,0.1039,-0.0302,9.7369,-0.3275,0.321,0.0186
6615,1050,830,34.055,27.295,0.0134,-0.0605,9.7273,0.1754,-0.5916,0.0752
6620,1041,831,33.996,27.264,0.0279,0.0831,9.8013,0.9936,-0.1228,0.5959
6625,1032,834,33.972,27.239,0.0523,0.0249,9.7595,-0.1092,-0.1334,-0.23
6630,1022,838,33.869,27.297,0.0393,0.0299,9.8484,-0.5768,-0.5834,0.2466
6635,1021,841,33.952,27.249,-0.0092,-0.0881,9.8058,-0.3272,-1.0613,-0.1127
6640,1021,835,33.905,27.244,-0.0906,0.0045,9.7713,-0.1308,0.1992,-0.5542
6645,1001,840,34.01,27.241,-0.076,0.0358,9.7666,0.7131,0.0058,-0.0437
6650,999,840,34.006,27.34,-0.0443,-0.0025,9.7956,-0.3288,0.2744,-0.3793
6655,987,842,34.03,27.299,-0.0596,-0.0083,9.7603,-0.7157,0.5064,0.3724
6660,983,845,34.02,27.26,-0.0038,0.0525,9.9439,0.3271,0.3255,-0.0455
6665,979,848,34.084,27.214,0.005,-0.1056,9.7891,-0.3606,0.2547,0.7319
6670,962,849,34.017,27.267,-0.093,0.0588,9.8079,-0.1817,-0.359,0.8762
6675,959,850,33.986,27.262,-0.014,0.0245,9.8188,-0.5492,0.0368,-0.2375
6680,945,845,33.974,27.282,-0.0065,0.004,9.8885,-0.2561,0.1005,0.4726
6685,939,844,33.96,27.218,0.0665,-0.0476,9.9049,0.6499,0.9514,0.058
6690,927,846,33.992,27.279,-0.0667,-0.0086,9.7191,-0.4816,-0.2786,0.6476
6695,912,851,34.035,27.288,-0.0788,0.0388,9.7733,-0.0635,0.3443,0.0278
6700,916,844,34.042,27.183,0.0639,-0.0233,9.7233,-0.1581,-0.3789,0.639
6705,896,845,33.954,27.317,0.0584,-0.0469,9.7586,-1.3964,0.4096,0.5885
6710,886,848,33.868,27.215,-0.0044,-0.0041,9.8559,-0.8521,0.2125,-1.0134
6715,887,839,34.014,27.351,-0.0328,-0.0524,9.8026,-0.2089,0.3476,0.0438
6720,864,842,33.887,27.265,0.0352,-0.0377,9.7393,0.4494,0.2388,0.4481
6725,853,843,33.968,27.331,0.0296,-0.0566,9.8706,0.4232,0.1948,0.0682
6730,841,846,34.008,27.261,0.0461,0.072,9.8083,-0.3172,-0.2635,-0.8776
6735,833,839,33.999,27.302,0.1096,0.0098,9.8051,-0.9849,-0.2164,-0.353
6740,830,845,33.915,27.329,-0.0043,-0.0628,9.8113,-0.3099,0.4014,0.1125
6745,819,838,33.883,27.259,0.0681,-0.0115,9.7227,0.0264,-0.746,-0.4242
6750,811,840,34.106,27.243,-0.014,-0.0398,9.7912,0.0931,0.1154,0.17
6755,798,838,33.977,27.236,0.0498,-0.0474,9.7525,0.2426,-0.0331,0.074
6760,789,844,34.005,27.286,0.0673,-0.0038,9.7626,-0.5245,-0.3779,0.7188
6765,787,837,34.089,27.316,0.095,0.0775,9.8509,-0.2457,-0.3816,0.1367
6770,770,832,33.881,27.318,-0.0072,0.0406,9.8083,-0.1644,-0.0424,-0.1271
6775,769,830,33.933,27.243,0.0195,0.0312,9.854,-0.3047,-0.6425,-0.2311
6780,764,834,33.995,27.288,0.011,0.0001,9.7111,-0.1565,0.1802,-0.5197
6785,770,831,34.001,27.189,0.0372,-0.0379,9.8974,-0.0552,-0.2058,0.9249
6790,759,833,33.987,27.306,0.0315,-0.0138,9.8298,-0.5055,0.0718,-0.3834
6795,756,837,33.939,27.295,-0.0808,-0.0586,9.8326,0.7253,-0.1757,0.1799
6800,754,832,33.974,27.315,0.0512,-0.0257,9.7898,0.2014,-0.6228,0.388
6805,750,834,33.924,27.28,0.0031,0.0345,9.8911,-1.1772,0.6605,-0.2942
6810,750,833,33.942,27.228,-0.0173,-0.0565,9.8244,0.5835,0.1336,-0.2486
6815,740,828,34.012,27.291,-0.1048,0.0056,9.7372,0.8432,0.3407,0.1371
6820,757,827,33.946,27.212,0.0549,-0.0271,9.7315,-0.2317,0.1666,-0.0349
6825,757,820,34.001,27.37,-0.0661,0.0632,9.8236,0.6755,-0.1578,-0.0447
6830,753,827,34.064,27.272,-0.0065,-0.005,9.8033,-0.075,-0.9941,0.3507
6835,760,825,33.901,27.307,0.0688,0.0036,9.9104,-0.3918,0.2661,0.3893
6840,754,826,34.005,27.268,0.0017,0.0607,9.743,-0.1502,0.0487,0.2877
6845,763,822,33.968,27.267,0.0242,0.1289,9.8964,-0.6289,0.8922,0.2721
6850,778,821,33.966,27.34,0.02,0.0558,9.7845,0.4001,0.4711,0.1911
6855,784,828,34.029,27.247,0.0091,-0.0782,9.7979,-0.1249,-0.3214,-0.6241
6860,791,819,33.912,27.359,-0.0609,-0.0368,9.8087,0.2984,-0.0072,0.0956
6865,804,827,33.994,27.281,0.0152,-0.018,9.8823,-0.1687,-0.6577,-0.222
6870,808,819,33.947,27.367,-0.0198,-0.0075,9.8195,-0.1852,0.0742,-0.3101
6875,815,819,33.993,27.256,-0.0251,0.0229,9.7886,0.3577,-0.4328,0.2989
6880,816,822,34.084,27.31,-0.0003,-0.0146,9.8514,0.863,0.4731,-1.1974
6885,829,816,34.04,27.221,-0.0375,-0.0211,9.9083,0.3907,0.2923,0.1124
6890,841,819,34.035,27.24,0.0949,-0.0227,9.8034,-0.3208,0.044,-0.0471
6895,851,817,34.029,27.314,0.0192,0.0262,9.7553,0.1722,0.1769,0.3492
6900,861,812,34.05,27.268,0.0335,-0.0507,9.7851,0.8383,-0.0773,-0.3613
6905,883,817,33.968,27.29,-0.1028,0.0144,9.8174,-0.6107,0.3059,-0.3125
6910,895,814,33.978,27.325,-0.03,-0.0609,9.7931,-0.4877,-0.2676,-0.1188
6915,904,812,34.036,27.38,0.0073,0.0174,9.727,0.4846,-0.7454,0.033
6920,915,813,34.0,27.3,-0.0229,0.048,9.7623,0.2105,0.2706,-0.5075
6925,940,813,34.109,27.323,0.0774,0.1154,9.8614,-0.5861,0.5199,-0.8072
6930,948,811,34.069,27.24,-0.0061,0.0751,9.7341,0.1425,-0.6192,0.8343
6935,962,812,33.982,27.338,-0.0173,0.0122,9.9249,0.0536,-0.2013,0.4688
6940,980,804,33.887,27.26,0.0151,0.0179,9.8246,0.2747,-0.2127,-0.6523
6945,985,805,34.007,27.253,0.0562,0.0188,9.73,-0.4372,0.109,-0.2721
6950,1008,802,33.911,27.295,0.0203,-0.0033,9.7469,0.2694,-0.6443,0.4013
6955,1019,797,33.981,27.249,-0.0227,-0.0463,9.7508,0.0527,0.8613,-0.1371
6960,1028,798,34.007,27.241,-0.0135,-0.0207,9.8791,-0.1786,-0.0374,0.2346
6965,1047,796,33.917,27.327,0.0106,0.008,9.8246,0.3303,0.0041,-0.4919
6970,1055,794,34.027,27.3,-0.0697,-0.05,9.7872,0.3646,1.0269,0.4698
6975,1071,794,33.968,27.246,-0.0035,-0.0879,9.8576,-0.1221,-0.6934,0.0088
6980,1081,792,34.0,27.252,0.0395,0.02,9.8096,0.0035,0.4451,-0.4987
6985,1095,786,33.987,27.199,-0.041,-0.0022,9.8192,-1.0765,-0.6671,-0.1972
6990,1104,790,34.013,27.349,0.0906,0.0631,9.8096,-0.2214,0.1116,-1.2122
6995,1106,781,34.028,27.229,-0.045,-0.0045,9.8513,-1.1549,0.5488,-0.0837
7000,1114,773,34.037,27.256,-0.0914,0.0376,9.8061,0.5885,0.2374,0.2099
7005,1126,779,34.003,27.27,0.066,0.0814,9.7668,-0.6118,-0.4231,0.503
7010,1136,779,33.919,27.278,0.0505,0.0257,9.7442,0.4236,0.1473,0.1749
7015,1149,775,33.995,27.219,-0.0489,-0.0019,9.8841,0.5262,-0.4285,0.6501
7020,1154,775,33.975,27.378,0.0378,-0.0991,9.8813,0.0998,0.3124,0.732
7025,1167,764,34.06,27.3,0.0654,-0.0027,9.8191,0.181,-0.4981,-0.1283
7030,1162,757,34.078,27.228,0.0791,-0.0827,9.7834,-0.6696,-0.0107,0.6378
7035,1170,765,33.999,27.257,0.0077,-0.0339,9.8231,0.1315,-0.452,0.385
7040,1167,760,33.894,27.236,0.009,-0.0122,9.7694,0.0523,0.2017,-0.2792
7045,1180,755,33.932,27.33,-0.0384,-0.0174,9.8588,-0.0561,-0.22,-0.9543
7050,1182,759,33.979,27.276,0.0773,-0.015,9.8304,-0.6684,0.2617,0.8285
7055,1184,757,34.005,27.256,-0.0469,-0.0588,9.8052,-0.112,0.0319,-0.1482
7060,1186,752,33.982,27.268,0.0061,-0.0107,9.8368,-1.0565,-0.0565,-0.0403
7065,1183,748,33.936,27.249,0.0199,0.005,9.803,-0.0193,-0.3735,0.5655
7070,1193,750,34.089,27.22,-0.0302,-0.0076,9.7415,0.6872,0.1768,0.2199
7075,1189,742,34.069,27.211,-0.0441,-0.0311,9.8092,-0.2012,-0.4019,-0.7454
7080,1189,745,33.988,27.232,0.0104,-0.0331,9.7887,-0.6407,-0.1442,0.4419
7085,1197,743,33.9,27.274,-0.0251,0.0104,9.7792,-0.735,0.1289,-0.1155
7090,1184,742,33.983,27.242,0.0154,0.0163,9.8309,0.7398,-0.7753,0.3972
7095,1183,740,34.002,27.275,0.0047,0.0505,9.8795,-0.2561,0.1868,-0.719
7100,1178,746,33.986,27.399,0.0099,-0.0053,9.8744,-0.1921,-0.4985,-0.6031
7105,1178,736,34.02,27.207,-0.0124,0.02,9.8963,-0.343,0.3147,0.6698
7110,1176,742,34.016,27.218,0.0559,-0.0201,9.7775,0.1801,-0.2698,-1.0918
7115,1168,735,33.972,27.299,-0.0126,-0.0005,9.7417,0.2155,-0.0375,-0.3742
7120,1170,738,34.054,27.338,0.0438,-0.0276,9.8077,-0.1855,-0.1797,-0.4547
7125,1164,742,33.955,27.304,0.022,-0.0093,9.7879,-0.1281,0.4217,-0.2654
7130,1156,738,34.061,27.255,0.0254,-0.1138,9.8381,0.9167,-0.2677,0.5736
7135,1164,740,34.01,27.295,0.0731,-0.0188,9.8463,0.1418,-0.5951,0.6241
7140,1155,740,33.919,27.251,-0.0191,-0.0099,9.7588,-0.1003,-0.2188,-0.4648
7145,1163,749,33.971,27.336,0.0118,-0.0026,9.8259,0.8359,-0.5355,0.6476
7150,1143,741,33.986,27.331,-0.0599,-0.0481,9.8315,0.6437,0.1832,0.4507
7155,1153,740,33.986,27.183,-0.0559,-0.0156,9.8464,0.7846,0.6005,-0.1039
7160,1132,741,34.031,27.261,-0.0607,0.0609,9.7812,0.5417,-0.0403,0.0123
7165,1135,745,33.949,27.321,-0.0268,-0.0651,9.8204,-0.2475,-0.3128,0.7941
7170,1142,746,33.967,27.202,0.0546,0.0238,9.8548,0.0568,-0.5755,-0.154
7175,1124,751,34.053,27.225,-0.1252,-0.0443,9.7374,-0.522,0.1304,-0.8457
7180,1125,752,33.988,27.273,0.0629,0.0069,9.8822,-0.4207,-0.0592,-0.9652
7185,1129,749,33.965,27.243,-0.0373,0.0179,9.7473,-0.0945,-0.1658,-0.421
7190,1115,750,34.055,27.337,0.0758,0.0179,9.7677,0.4275,0.4431,0.3073
7195,1114,756,33.963,27.318,-0.047,-0.1698,9.7885,0.5665,0.381,0.0839
7200,1111,759,34.001,27.28,0.0448,0.0972,9.8497,-0.0452,-0.3482,-0.8855
7205,1105,763,33.911,27.222,0.0034,-0.0434,9.8179,0.2701,0.0917,0.3735
7210,1104,765,33.976,27.306,-0.0004,-0.0743,9.8019,-1.2105,0.2402,-0.2781
7215,1114,767,33.978,27.333,0.0631,-0.0134,9.8179,-0.493,-0.7459,0.1062
7220,1098,770,33.977,27.154,-0.0079,0.1096,9.7551,0.017,-0.1464,0.3923
7225,1089,771,34.091,27.298,0.0369,0.0164,9.8035,-0.5241,1.0387,-0.4359
7230,1091,776,33.918,27.358,0.0111,0.0153,9.7469,-0.9224,-0.7034,-0.4698
7235,1094,779,33.927,27.32,-0.0767,-0.089,9.7274,-0.0933,-0.6045,0.0826
7240,1084,789,34.013,27.195,-0.0214,0.0481,9.7388,-0.3455,-0.1697,-0.2364
7245,1091,790,33.998,27.284,0.0789,-0.0022,9.8099,-1.3674,-0.0474,-0.5123
7250,1091,796,33.966,27.232,-0.0218,-0.0503,9.8571,-0.3663,0.5762,0.0157
7255,1086,797,34.024,27.295,-0.0221,0.0444,9.8517,-0.1654,-0.386,0.1832
7260,1086,799,33.879,27.317,-0.0298,0.0113,9.7908,0.6494,-0.9668,0.2735
7265,1085,805,34.009,27.254,-0.0685,-0.0419,9.7728,-0.4159,-0.3481,0.02
7270,1076,802,33.97,27.319,-0.0333,-0.0665,9.8351,0.0835,-0.4967,1.2317
7275,1072,820,33.955,27.232,-0.0398,0.0456,9.8732,-0.2073,-1.0249,-0.0758
7280,1076,817,33.94,27.262,-0.0261,0.0373,9.8341,0.7066,-0.0558,0.0177
7285,1075,815,33.947,27.319,0.014,0.0423,9.8322,-0.6328,-0.4334,-0.5125
7290,1062,825,33.998,27.241,-0.0718,0.0619,9.842,0.1342,0.3845,-0.7684
7295,1051,826,33.969,27.232,-0.0436,-0.0009,9.8048,-0.6921,-0.2706,0.5441
7300,1051,823,33.887,27.377,-0.0782,-0.0295,9.7508,0.8794,0.1162,-0.2037
7305,1048,825,33.957,27.193,0.0076,-0.0008,9.8096,0.4112,-0.7394,0.1005
7310,1047,831,33.998,27.272,0.0073,0.0139,9.8233,0.5188,0.6755,-0.5484
7315,1034,832,33.946,27.304,-0.0053,0.0528,9.7397,-0.4205,-0.3102,0.2352
7320,1027,838,33.957,27.286,-0.012,-0.0179,9.841,0.0921,-0.2786,-0.6362
7325,1022,834,34.039,27.385,0.0259,-0.0622,9.7504,0.0678,0.2792,0.3737
7330,1022,836,33.974,27.379,0.007,-0.0138,9.857,-0.9684,0.2488,1.1456
7335,1016,843,33.992,27.351,-0.0016,-0.003,9.791,0.1462,0.9049,0.0771
7340,1004,839,33.964,27.311,-0.0677,-0.0207,9.7555,0.3062,-0.3686,-0.3962
7345,1000,837,33.983,27.244,0.0102,0.1039,9.7183,0.94,0.3119,-0.375
7350,987,847,34.029,27.267,0.0177,0.0656,9.824,0.563,-0.328,0.0867
7355,979,845,33.942,27.292,-0.0522,0.0678,9.8001,0.5248,0.4175,0.5779
7360,982,842,34.041,27.32,0.0593,-0.0085,9.875,-0.133,-0.9916,0.6611
7365,962,846,33.927,27.227,0.0719,0.0061,9.8314,0.1069,0.1382,-0.6095
7370,954,845,33.987,27.377,-0.0144,-0.0316,9.7881,-0.9652,-0.3791,-0.0176
7375,949,849,33.997,27.274,0.0302,-0.0071,9.7988,-0.0609,-0.9796,0.082
7380,934,847,34.018,27.294,-0.0292,0.0553,9.7392,-0.2537,0.2537,-0.0473
7385,920,847,34.009,27.276,0.0154,0.095,9.8388,0.059,0.1167,-0.4009
7390,921,844,34.03,27.253,0.0475,-0.0169,9.8025,0.2802,0.1956,0.1914
7395,904,846,33.989,27.26,0.1331,0.0743,9.8179,-0.2345,-0.7848,-0.0181
7400,897,846,34.025,27.355,-0.0346,-0.0056,9.867,-0.5473,-0.1803,0.3352
7405,886,848,33.994,27.305,-0.0677,0.0156,9.7327,0.7375,0.1598,0.9571
7410,880,844,33.935,27.332,-0.0429,-0.0628,9.8832,-0.2104,0.3672,-0.1576
7415,866,844,34.05,27.275,0.037,0.0837,9.7659,-0.3482,0.4607,-0.4124
7420,861,845,33.912,27.305,-0.0616,0.0893,9.7672,0.1583,0.1965,-0.0282
7425,844,845,33.972,27.349,-0.0188,-0.069,9.8717,0.9524,-0.4431,0.1093
7430,845,841,33.901,27.225,0.0095,-0.0508,9.7694,-0.2418,0.3961,0.1779
7435,829,848,34.021,27.267,-0.015,0.0129,9.909,-0.6071,-1.1416,0.3727
7440,820,844,34.096,27.322,0.0036,0.0184,9.8233,-0.3395,-0.6121,0.0532
7445,809,834,33.992,27.195,0.0352,-0.0616,9.6761,0.1834,-0.0448,-0.1034
7450,799,837,34.022,27.235,-0.0358,0.0061,9.7848,0.1902,-0.1429,-0.2746
7455,788,840,34.043,27.294,0.0576,0.0343,9.8195,-0.6161,0.3124,0.173
7460,790,836,33.996,27.309,0.0469,0.0365,9.7908,-0.033,-0.0143,-0.719
7465,780,839,33.979,27.304,0.1303,-0.0771,9.772,0.7623,0.0912,-0.2665
7470,777,830,33.986,27.378,-0.0524,0.0963,9.7628,-0.4706,0.3302,0.0348
7475,762,834,33.984,27.189,0.0969,-0.0217,9.86,-0.0112,0.3814,-0.6326
7480,759,836,34.045,27.278,-0.0062,-0.0107,9.7914,0.3594,-0.6241,-0.2096
7485,759,833,34.049,27.253,-0.107,-0.0065,9.8314,0.4674,0.6018,0.5568
7490,754,837,33.907,27.252,-0.0851,0.0556,9.8216,-0.0052,0.4409,0.4065
7495,745,831,34.003,27.173,-0.044,0.0202,9.7596,-0.843,-1.0816,-0.3783
7500,751,824,34.165,27.321,-0.0072,-0.0168,9.7457,-0.1433,-0.1239,0.499
7505,757,833,34.057,27.223,-0.0312,-0.0395,9.7806,0.0712,-0.5338,0.2862
7510,744,827,33.979,27.323,-0.1029,-0.047,9.8621,-0.169,0.0013,-0.2331
7515,755,829,34.1,27.305,-0.0143,-0.0616,9.829,-0.2985,0.5993,0.1677
7520,747,827,34.058,27.324,0.0354,-0.0039,9.8733,-0.2169,-0.4862,0.8265
7525,749,828,34.045,27.209,-0.0685,0.0521,9.892,-0.185,-0.1983,0.5566
7530,754,825,33.856,27.378,-0.0426,-0.009,9.8447,-0.7614,0.1337,-0.0927
7535,760,828,34.075,27.34,0.032,-0.0234,9.7773,0.1896,-1.0118,-0.8123
7540,755,823,34.004,27.333,0.0164,-0.0013,9.7746,0.0257,0.7908,0.7622
7545,761,820,33.969,27.352,-0.1219,-0.0316,9.8299,0.1927,-1.0481,-0.3539
7550,774,825,34.037,27.216,0.0562,-0.0267,9.7527,0.4302,-0.8281,0.3891
7555,787,824,33.983,27.353,0.0595,0.04,9.8829,-0.8041,0.371,-0.0177
7560,795,823,33.928,27.21,0.0329,-0.0354,9.8637,-0.0848,-0.0152,0.4282
7565,801,819,33.928,27.286,-0.0544,0.0752,9.8752,-0.0507,0.2017,-1.1209
7570,807,814,34.064,27.319,0.0662,0.0616,9.9365,0.0066,0.5073,-0.2578
7575,826,817,33.962,27.375,0.0138,0.0509,9.705,0.4538,-0.3755,0.7871
7580,837,824,34.067,27.359,0.0254,-0.0213,9.7657,-0.5129,-0.2943,0.7345
7585,840,814,34.027,27.349,0.0546,0.1099,9.8365,-0.4065,-0.5425,0.9298
7590,847,810,34.028,27.321,-0.0377,0.0111,9.8401,0.3506,0.8121,0.7299
7595,866,813,34.027,27.309,0.0407,-0.0444,9.8705,0.0141,-0.2812,0.1283
7600,887,815,33.998,27.359,0.0612,-0.0658,9.87,-0.0193,-0.2162,-0.3552
7605,900,812,33.957,27.284,0.0037,0.0437,9.8002,0.1302,0.398,-0.6546
7610,905,814,33.945,27.167,-0.0361,-0.0377,9.7514,-0.2078,-0.3918,0.1178
7615,918,813,34.038,27.325,0.0681,0.0949,9.8502,0.1872,0.7832,0.001
7620,927,814,33.999,27.302,0.0027,-0.0278,9.7268,0.2948,-0.6218,0.1693
7625,951,809,33.952,27.217,0.0494,-0.0057,9.7605,-0.343,-0.9641,0.0692
7630,957,807,33.855,27.329,0.0026,-0.0432,9.8749,0.3633,0.1335,-0.148
7635,967,805,34.046,27.282,0.0113,0.01,9.8126,0.3162,-0.3172,-0.2622
7640,979,808,33.962,27.326,-0.0519,0.0601,9.8561,-0.9861,-0.3145,0.2
7645,1003,806,34.056,27.262,-0.0817,0.0028,9.8365,-0.9871,0.4907,-0.5875
7650,1020,799,33.996,27.331,-0.1065,0.0525,9.8213,-0.6976,0.1453,0.035
7655,1033,799,33.971,27.267,0.0177,0.0169,9.7644,1.0696,0.1959,-0.2365
7660,1043,798,33.935,27.291,0.0885,0.0528,9.7399,0.1992,-0.6422,0.4825
7665,1063,794,34.009,27.131,0.0364,-0.0167,9.7761,-0.4098,-0.251,-0.6199
7670,1064,793,34.025,27.248,-0.0116,-0.0036,9.8602,0.6287,0.454,-0.2137
7675,1069,789,34.072,27.234,0.0601,-0.0366,9.7853,-0.6723,0.2824,-0.2005
7680,1093,788,33.952,27.404,0.0182,-0.0156,9.8426,0.2285,0.2672,-0.5035
7685,1098,795,34.039,27.338,0.0077,0.0411,9.7755,-0.5901,0.2394,-0.5052
7690,1111,779,34.017,27.348,-0.0889,-0.043,9.8033,0.2427,-0.1819,0.1196
7695,1124,787,33.925,27.382,-0.0859,-0.0771,9.8697,-0.0463,-0.0403,-0.5308
7700,1130,780,34.009,27.289,0.0352,-0.0704,9.8631,-0.3465,0.2684,-0.2934
7705,1148,778,34.014,27.301,0.0169,0.0361,9.7591,0.4473,-0.839,-0.3943
7710,1145,778,34.009,27.273,-0.0928,0.0777,9.7895,-0.8884,-0.1372,0.5643
7715,1155,770,33.961,27.319,0.042,-0.0295,9.8537,-0.2602,0.8021,0.5026
7720,1161,770,33.923,27.235,-0.0529,0.0003,9.7865,-0.2595,0.354,0.2643
7725,1165,768,34.027,27.258,0.045,-0.0461,9.7801,0.1382,0.52,0.2181
7730,1169,764,34.053,27.353,-0.0007,0.0055,9.9131,0.7127,0.1685,0.6655
7735,1172,765,34.016,27.155,-0.1138,0.029,9.7511,0.2307,0.0282,0.1046
7740,1181,748,34.054,27.273,-0.001,-0.0571,9.8975,0.916,-0.7424,-0.1085
7745,1175,754,34.018,27.232,-0.0002,0.0355,9.8659,-0.2158,0.3623,-0.1754
7750,1182,751,34.053,27.27,-0.0759,-0.0656,9.8053,0.1798,-0.8049,0.1094
7755,1187,760,33.998,27.314,0.0596,-0.0193,9.8064,0.4163,-0.7571,-0.5217
7760,1188,747,33.978,27.331,-0.0676,-0.1006,9.8081,0.4497,-0.1985,0.4399
7765,1188,750,33.97,27.288,0.0114,0.017,9.8392,-0.1777,0.3364,0.2434
7770,1186,753,34.054,27.389,0.0027,0.0008,9.9034,-0.8271,0.1925,-0.3219
7775,1192,743,33.998,27.273,-0.0521,0.0088,9.7362,-0.2234,-0.52,-0.6387
7780,1192,747,33.963,27.315,-0.0299,-0.0125,9.7891,0.4805,-1.3704,0.5008
7785,1178,740,34.046,27.393,0.049,-0.035,9.7418,-1.2973,0.555,-0.2615
7790,1177,736,33.953,27.289,0.0298,-0.0286,9.7712,0.8208,0.702,0.3247
7795,1177,739,34.018,27.297,0.0114,0.0572,9.7941,-0.0896,0.083,-0.5165
7800,1189,741,34.051,27.3,-0.0691,-0.0084,9.8414,-0.4691,-0.0092,0.2086
7805,1183,737,33.975,27.297,-0.0576,0.0019,9.8673,-0.0431,-0.6916,-0.9093
7810,1169,737,33.977,27.365,0.0206,-0.0099,9.7919,-0.0239,-0.3244,0.2068
7815,1173,737,34.074,27.308,0.0166,-0.0118,9.8588,-0.2523,0.0009,0.9328
7820,1175,738,33.883,27.215,0.0772,0.0324,9.852,-0.0465,-0.0583,0.2204
7825,1156,730,34.049,27.311,-0.021,0.0798,9.8218,-0.2749,-0.4885,0.3041
7830,1159,742,34.114,27.252,0.0096,-0.0019,9.8593,0.3457,0.2385,1.1141
7835,1153,744,33.962,27.317,-0.0147,0.0512,9.7492,0.5305,-0.3258,-0.5414
7840,1153,736,33.929,27.272,0.109,-0.0163,9.8248,0.0148,0.5714,0.2736
7845,1153,745,33.967,27.252,-0.0664,-0.0199,9.8798,0.0458,0.0456,0.2025
7850,1148,741,33.942,27.312,-0.0357,0.1141,9.7807,0.0587,0.1707,-0.7627
7855,1131,740,34.039,27.309,-0.0296,0.0182,9.8667,-0.2487,-0.7348,-0.3997
7860,1133,740,33.988,27.358,-0.0252,0.0416,9.8004,0.4815,-0.4889,-0.91
7865,1135,752,34.07,27.223,0.0093,0.0282,9.8446,0.5578,0.6036,0.0417
7870,1133,749,34.039,27.327,-0.0231,0.0603,9.8833,0.3415,0.0191,-0.5605
7875,1126,750,33.978,27.229,0.0568,0.0248,9.8725,-0.2657,-0.3098,-0.0136
7880,1119,753,33.951,27.337,0.0535,-0.038,9.9232,-0.2035,0.0977,-0.2652
7885,1120,753,34.074,27.176,-0.0222,0.0198,9.8082,0.0194,-0.7689,0.4366
7890,1118,760,33.966,27.212,0.0705,0.0309,9.7552,-0.4976,-1.1962,0.1191
7895,1115,764,34.011,27.281,0.0014,0.0403,9.7763,0.2223,0.2647,-0.3403
7900,1106,763,33.997,27.298,0.0487,0.0013,9.8897,-0.0884,0.1457,0.0709
7905,1104,765,33.955,27.298,0.0365,-0.0011,9.825,-0.3455,0.3634,-0.2718
7910,1107,769,33.921,27.187,-0.1109,-0.0413,9.75,0.5469,0.1998,1.2214
7915,1102,774,33.984,27.346,0.0313,0.0172,9.8463,-0.3086,-0.7886,0.0776
7920,1086,777,34.044,27.324,-0.0507,0.0507,9.709,0.1958,0.605,0.3853
7925,1101,780,34.089,27.27,-0.0573,-0.0065,9.8071,-0.3211,-0.2378,-1.1222
7930,1092,782,33.99,27.303,-0.0337,0.034,9.8807,-0.3305,0.1888,-0.0932
7935,1088,788,34.103,27.296,-0.029,-0.0323,9.8322,-0.1471,-0.3601,0.5817
7940,1090,790,34.04,27.296,0.0207,0.0333,9.8618,-1.0238,-0.0324,-0.258
7945,1090,794,33.962,27.319,-0.0135,0.0276,9.8153,0.5194,-0.1043,-0.1356
7950,1082,796,34.074,27.329,-0.0319,0.0469,9.8846,-0.009,-1.2082,0.473
7955,1091,802,33.945,27.248,0.0097,-0.0912,9.8051,-0.4176,0.3886,-0.4111
7960,1085,808,33.954,27.261,0.08,0.0699,9.8119,0.166,0.0985,-0.0843
7965,1083,805,34.038,27.327,-0.0565,0.0128,9.8177,-0.5928,0.3751,-0.0781
7970,1068,812,34.037,27.242,0.011,-0.024,9.7527,-0.3283,-0.9555,-0.4395
7975,1069,810,34.141,27.23,0.0314,-0.0307,9.854,0.4929,0.1541,-0.0808
7980,1075,817,34.001,27.316,0.0302,0.0153,9.8205,0.1863,-0.4069,-0.7524
7985,1063,817,33.963,27.155,0.0525,-0.0617,9.7682,-0.0615,-0.4679,0.4132
7990,1055,820,33.98,27.282,-0.071,-0.0918,9.7373,0.0591,0.3472,0.0194
7995,1061,820,33.962,27.241,0.0852,0.0356,9.77,0.5389,-0.5792,0.3685
8000,1052,825,33.921,27.405,0.0932,-0.0278,9.7395,0.0032,-0.507,-0.3041
8005,1050,832,34.017,27.301,-0.0246,0.0532,9.9487,0.0908,0.663,-0.3868
8010,1036,832,34.047,27.304,0.0238,-0.0564,9.8856,0.2641,0.5213,0.4721
8015,1026,838,34.011,27.219,0.0001,-0.0213,9.8459,-0.0041,-0.3967,-0.2984
8020,1026,843,34.067,27.251,-0.0381,-0.0434,9.807,-0.4421,-0.0701,0.1265
8025,1023,833,34.003,27.278,-0.0067,0.0259,9.8719,-0.0844,-0.0287,-0.0097
8029,1021,841,34.006,27.239,-0.0153,0.0254,9.8667,-0.8532,0.2567,-0.4515
8035,1008,836,33.994,27.327,-0.0393,-0.0696,9.877,-1.7742,-0.3261,-0.068
8039,1001,842,34.008,27.265,0.1337,0.0082,9.7605,0.6669,-0.2066,0.4767
8045,999,839,33.986,27.261,-0.0259,0.0453,9.9619,0.0843,0.4974,0.0799
8050,975,840,34.039,27.296,0.0514,0.0593,9.8656,0.8454,0.4832,-0.0321
8055,979,846,34.13,27.279,-0.0208,0.0091,9.7416,0.2294,0.1615,0.258
8060,978,843,33.975,27.389,0.0174,0.082,9.8045,-0.1588,-0.3594,0.0062
8064,958,847,33.974,27.287,-0.0043,0.0263,9.8145,-0.7127,-0.3326,-0.084
8070,950,846,34.04,27.273,-0.0042,0.0748,9.7587,0.4266,-0.0884,0.1831
8074,938,845,34.065,27.253,0.0267,0.0282,9.8204,0.2146,-0.4261,-0.4866
8080,928,845,34.044,27.384,0.0562,-0.0868,9.7478,0.4137,-0.7971,0.3088
8085,928,853,34.033,27.211,-0.0575,0.0297,9.7977,-0.5345,-0.6174,0.7595
8090,911,846,34.009,27.274,0.0843,-0.0057,9.8181,0.3249,-0.0624,0.0251
8095,902,847,34.1,27.289,0.131,0.0647,9.6978,-0.0064,-0.2746,0.147
8100,886,839,33.969,27.277,0.0466,0.0708,9.8133,-0.8374,0.0785,-0.173
8105,880,849,33.981,27.32,-0.0065,0.0041,9.7615,-0.7452,-0.0554,0.0522
8109,868,844,33.996,27.342,-0.0213,0.008,9.7905,-0.2543,0.0585,-0.6143
8115,868,848,33.97,27.321,0.0258,-0.0286,9.8384,0.643,-0.3532,0.3382
8119,842,844,34.012,27.351,-0.0478,0.1726,9.8022,-0.9675,-0.0836,-0.4995
8125,834,844,33.926,27.327,-0.0538,0.0294,9.8334,-0.5481,0.1957,0.1535
8130,824,843,34.007,27.242,-0.1149,0.0965,9.8189,-0.9906,-0.3032,-0.0249
8135,816,844,34.041,27.267,0.0695,-0.1321,9.772,0.4485,0.1529,0.1715
8140,805,842,33.965,27.237,-0.0558,-0.0613,9.8318,-0.2469,-0.6687,-0.5292
8145,799,842,34.061,27.363,-0.0525,0.0377,9.8364,-0.8313,-0.4639,0.131
8150,795,832,34.068,27.349,-0.0825,0.0062,9.9594,0.477,-1.1522,-0.6898
8154,783,837,33.957,27.31,0.0516,0.0188,9.7754,-0.4261,-0.0132,-0.483
8160,788,837,34.014,27.26,0.0119,0.0153,9.8793,0.4063,-0.0369,0.1678
8164,779,833,34.039,27.315,-0.0736,0.0281,9.8134,0.0205,-0.3369,0.3629
8170,763,832,34.022,27.216,-0.0068,-0.0343,9.8025,-0.5015,0.5127,0.6451
8175,767,832,33.975,27.287,0.0469,0.024,9.8271,0.9368,0.543,0.6759
8180,767,837,34.008,27.361,0.0329,-0.0469,9.8515,0.002,-0.4538,-0.5952
8185,752,834,33.959,27.279,0.0684,-0.0402,9.7414,0.7605,0.5225,0.3255
8189,749,828,34.032,27.266,0.059,-0.0758,9.7781,0.3967,0.3351,0.4086
8195,743,829,34.022,27.397,0.011,0.1255,9.6768,0.6951,0.205,0.1866
8200,740,828,33.978,27.298,-0.0703,0.0257,9.8182,-0.4377,-0.1128,0.1677
8205,750,827,33.974,27.217,-0.029,0.0682,9.8766,-0.343,0.4356,0.3896
8210,758,832,33.981,27.306,0.0482,-0.0261,9.8879,-0.0291,0.3326,0.9579
8215,750,828,33.974,27.272,-0.0045,-0.0301,9.8058,0.2658,-0.3528,-0.5379
8220,766,829,33.996,27.328,-0.0667,0.0538,9.8324,-0.3368,0.1772,0.1871
8225,751,823,34.027,27.272,-0.0266,0.0613,9.8443,-0.4833,0.1725,-0.1246
8230,764,824,33.997,27.337,0.0358,0.0275,9.7797,0.8944,-0.0146,-0.776
8235,775,823,34.021,27.332,0.0169,0.0501,9.7748,0.7891,-0.1362,0.8169
8240,775,824,33.988,27.25,0.0469,0.0327,9.8219,0.9693,-0.2326,0.5001
8245,764,823,33.99,27.293,-0.0424,-0.058,9.7984,0.4142,0.7455,0.6105
8250,780,828,34.046,27.287,0.0819,0.0098,9.7259,-0.2265,0.8723,0.2674
8255,794,820,33.983,27.245,0.053,0.0213,9.8126,-0.3515,-0.1687,1.0375
8260,795,815,34.049,27.268,-0.0777,-0.003,9.8018,-0.5613,0.4319,-0.0818
8265,809,820,34.009,27.336,-0.0883,0.0026,9.7319,0.4893,0.1462,-0.1555
8270,822,819,33.989,27.304,0.0245,-0.0003,9.7252,-0.9704,0.4646,-0.6305
8275,829,820,34.024,27.316,-0.0235,0.0216,9.7786,0.1187,-0.5905,0.3413
8280,835,818,34.047,27.226,0.0517,-0.0288,9.8532,-1.8845,-0.4083,-0.1566
8285,846,818,34.016,27.249,-0.0764,0.0237,9.7801,-0.2536,0.644,0.0796
8290,866,819,33.946,27.33,-0.0348,-0.065,9.7873,0.7181,-0.7648,-1.2899
8295,875,812,33.96,27.311,-0.0016,-0.0063,9.7945,0.3688,-1.061,-0.026
8300,886,823,33.99,27.236,0.051,0.0661,9.809,0.4845,0.6512,-0.0052
8305,904,816,34.001,27.314,0.0138,-0.0897,9.8575,0.0565,-0.0491,-0.6797
8310,912,816,33.867,27.322,0.0011,-0.0168,9.8273,-0.3134,-0.9615,0.0057
8315,935,809,33.941,27.276,0.1019,0.0397,9.768,0.1959,-0.2199,0.265
8320,943,807,33.974,27.25,0.0109,0.0572,9.8444,-0.6428,-0.6303,0.1743
8325,957,811,34.091,27.349,0.0034,-0.0974,9.873,0.2721,-0.0081,0.5318
8330,970,806,34.031,27.228,-0.004,-0.0201,9.8189,0.6845,-0.7467,-0.3786
8335,981,801,33.923,27.292,-0.0146,0.0789,9.8681,0.1101,-0.362,0.209
8340,1003,807,34.016,27.266,0.0293,0.0355,9.8423,-0.1976,-0.2867,-0.4783
8345,1013,802,33.963,27.225,0.042,0.0535,9.7848,0.4515,-1.1737,-0.3059
8350,1033,799,33.965,27.264,-0.0415,0.0353,9.8959,0.1832,0.2015,-0.37
8355,1034,794,33.929,27.317,-0.0228,0.0166,9.7805,0.1341,0.2088,0.1955
8360,1058,791,34.024,27.319,0.0303,0.0122,9.8573,-0.6896,0.1478,-0.5444
8365,1073,793,34.004,27.365,0.0441,-0.0161,9.8033,0.3706,0.2533,-0.5711
8370,1075,795,33.935,27.298,-0.1093,0.0724,9.806,0.8942,-0.0218,-0.6042
8375,1086,791,34.047,27.324,0.0204,0.0471,9.7868,-0.8335,-0.3059,-0.6856
8380,1103,785,34.031,27.272,-0.0732,0.0341,9.7893,1.0349,0.437,-0.4433
8385,1108,780,33.948,27.282,-0.0058,0.0647,9.7839,0.0443,-0.4939,0.2091
8390,1114,783,34.021,27.272,0.0253,0.0004,9.8753,-0.3666,0.421,-0.1576
8395,1135,778,33.969,27.399,-0.0485,0.0245,9.8155,0.7896,-0.3775,-0.1012
8400,1139,780,34.015,27.308,0.0044,0.0512,9.8401,-0.0479,-0.3832,0.2464
8405,1145,778,34.018,27.332,-0.0414,-0.0316,9.7085,-0.073,0.2198,0.7385
8410,1149,777,33.924,27.207,0.0339,-0.0017,9.8789,-0.4843,-0.4594,-0.5726
8415,1161,768,33.996,27.284,0.0307,0.0588,9.7632,-0.2042,0.1444,-0.5356
8420,1165,763,34.082,27.242,0.0162,-0.1353,9.7915,0.0062,0.4327,0.3994
8425,1180,764,34.087,27.233,0.0176,-0.0041,9.8273,-0.158,-0.9417,0.032
8430,1180,760,33.994,27.272,0.0606,-0.0077,9.8249,-0.1229,-0.3206,-0.1021
