timestamp_ms,ir_finger,ir_toe,temp_finger,temp_toe,ax,ay,az,gx,gy,gz
0,1034,699,34.298,31.701,-0.0996,0.0405,9.7371,0.2186,-0.6276,-0.5214
5,1045,700,34.34,31.666,0.0091,-0.0468,9.732,0.3053,0.4983,-0.2393
10,1060,698,34.359,31.675,-0.059,0.0171,9.7818,-0.2501,-0.9579,-0.9612
15,1075,697,34.291,31.644,0.0401,0.0632,9.842,-0.741,0.688,1.164
20,1078,697,34.35,31.59,-0.0776,-0.076,9.7641,-0.5316,-0.1305,-0.4207
25,1083,695,34.39,31.657,-0.0029,0.0077,9.8605,-0.4657,-0.2377,-0.0676
30,1097,701,34.373,31.617,0.0005,-0.01,9.7228,-0.0682,-0.5935,0.1014
35,1107,707,34.375,31.645,-0.0765,0.0581,9.7821,0.4771,0.4731,-0.3473
40,1101,710,34.329,31.674,0.0479,0.0468,9.7834,-0.2049,0.4761,-0.0519
45,1117,710,34.363,31.624,-0.0183,0.0017,9.7854,-0.2661,-0.0958,-0.5027
50,1116,703,34.3,31.653,0.0012,-0.0049,9.8391,0.0803,0.3245,1.1463
55,1140,713,34.285,31.702,-0.1132,-0.0041,9.7829,-0.4519,-0.1399,-0.051
60,1125,710,34.342,31.613,0.0307,0.038,9.8923,0.1369,0.5867,-0.5131
65,1134,719,34.383,31.726,-0.0659,0.1152,9.89,0.1912,-0.131,-0.4215
70,1138,727,34.337,31.643,0.0535,0.0583,9.8542,0.6224,0.4881,0.1491
75,1157,726,34.333,31.717,0.0032,0.0456,9.8329,-0.0237,-0.2202,0.4092
80,1159,730,34.294,31.698,-0.0575,0.0115,9.8314,-0.1553,0.5207,-0.0865
85,1153,729,34.299,31.579,-0.0389,0.1006,9.7729,0.5247,-0.5668,0.5651
90,1163,732,34.343,31.608,-0.0667,0.0263,9.9306,-0.2939,0.0296,1.2158
95,1165,734,34.292,31.657,-0.0623,-0.0127,9.8743,0.6297,0.3307,-0.8101
100,1175,746,34.402,31.501,0.0763,-0.0101,9.8167,-0.4512,-0.5822,-0.1943
105,1174,744,34.246,31.657,0.0095,-0.0314,9.8048,0.2351,-0.1063,0.4949
110,1178,746,34.315,31.626,0.0198,-0.0152,9.7281,0.606,-0.112,-0.1578
115,1176,759,34.408,31.585,-0.0807,0.1062,9.7541,-0.0862,-0.5647,-0.171
120,1184,759,34.223,31.72,-0.0103,-0.0278,9.8657,0.0274,0.1989,-0.5011
125,1191,760,34.355,31.708,0.0044,0.0105,9.8151,0.0567,-0.0927,0.1751
130,1187,767,34.411,31.692,-0.0589,-0.0276,9.7812,-0.0759,0.2048,-0.4594
135,1187,770,34.363,31.713,0.1066,-0.0168,9.7525,0.2766,0.3284,-0.6507
140,1186,778,34.269,31.651,-0.0806,0.0636,9.8462,0.0016,-0.4584,-1.0785
145,1184,776,34.302,31.652,-0.0644,-0.0342,9.8469,0.7038,0.1486,-0.1959
150,1190,784,34.319,31.596,-0.0391,-0.0353,9.8505,0.4716,-0.8803,-0.2484
155,1191,784,34.335,31.571,0.004,0.0152,9.7875,-0.4835,0.6701,-0.1926
160,1190,793,34.347,31.61,0.0181,0.0803,9.8565,0.6193,-0.172,1.3669
165,1188,792,34.358,31.536,0.0063,0.0315,9.8335,0.835,-0.2863,0.0953
170,1186,802,34.344,31.696,0.0391,-0.0771,9.8072,-0.8652,-0.0539,-0.5684
175,1176,803,34.35,31.524,-0.0191,0.0059,9.9241,-0.1892,-0.3544,-0.0949
180,1186,806,34.243,31.618,0.029,-0.0804,9.8047,0.1868,-0.3523,-0.7472
185,1187,810,34.366,31.554,-0.0316,-0.0011,9.6933,-0.0009,0.6274,-0.1507
190,1182,815,34.319,31.713,-0.024,0.0344,9.8728,-0.182,0.0717,0.3198
195,1173,821,34.32,31.621,-0.0049,0.0694,9.7674,-0.0492,-0.0749,0.745
200,1177,825,34.3,31.628,0.0528,0.0131,9.7937,-0.0161,0.2864,0.4147
205,1173,828,34.338,31.623,-0.027,-0.0149,9.7667,0.7728,0.7517,1.511
210,1176,831,34.362,31.54,-0.0158,-0.0337,9.9302,0.6681,0.056,0.5614
215,1169,836,34.415,31.575,0.0953,-0.022,9.7991,0.219,-0.1933,-0.158
220,1169,834,34.405,31.657,-0.0048,-0.0195,9.8296,0.493,0.4672,-1.0353
225,1168,839,34.303,31.649,0.0784,0.0428,9.839,-0.1266,0.1688,-0.777
230,1163,842,34.372,31.639,0.0165,0.0647,9.8,-0.8903,0.0448,0.235
235,1157,848,34.384,31.652,0.0766,0.0123,9.7718,0.3925,-0.3257,-0.245
240,1159,852,34.326,31.565,-0.0461,0.0467,9.852,-0.382,0.0457,0.0041
245,1154,849,34.363,31.601,0.0047,0.0903,9.8494,-0.1876,0.6344,-0.5139
250,1146,860,34.244,31.691,-0.0125,0.0784,9.823,0.1567,1.1582,-0.74
255,1145,858,34.425,31.662,0.0507,-0.0607,9.7973,0.5841,0.275,1.1796
260,1153,860,34.364,31.638,0.0333,0.0064,9.8156,-0.6439,0.0436,-0.0662
265,1149,860,34.29,31.623,0.003,0.0448,9.8884,-0.36,-0.609,0.8788
270,1141,862,34.307,31.611,-0.0161,-0.0433,9.7335,0.0604,1.0441,-0.6653
275,1139,863,34.373,31.642,0.0733,0.0695,9.7636,-0.3645,0.1205,-0.3273
280,1147,866,34.321,31.602,-0.0451,-0.0671,9.7634,-0.0389,1.0453,-0.8814
285,1142,869,34.381,31.612,-0.0043,-0.071,9.7772,-0.3648,-0.1052,0.1377
290,1131,876,34.347,31.511,0.0258,-0.0294,9.9643,0.3604,-0.1189,0.2921
295,1137,873,34.47,31.735,-0.0318,0.0789,9.8028,-0.977,0.8645,0.3551
300,1131,871,34.406,31.563,0.0349,0.0016,9.8946,-0.5066,-0.6405,0.4881
305,1135,873,34.417,31.686,-0.0301,0.0923,9.7346,0.1168,0.3895,0.4538
310,1121,876,34.409,31.645,0.0031,-0.0566,9.8166,-0.2256,-0.1202,-0.3788
315,1124,877,34.355,31.573,-0.0301,-0.0112,9.8105,-0.1512,0.4119,0.4205
320,1125,879,34.371,31.702,-0.0448,-0.0666,9.802,0.6642,0.1553,1.0117
325,1118,880,34.398,31.578,0.0544,0.0139,9.7064,-0.9744,0.9434,-0.63
330,1107,878,34.35,31.573,-0.0403,-0.0351,9.75,0.2049,0.1711,0.197
335,1100,879,34.39,31.661,-0.1324,0.0251,9.7094,0.3817,0.0618,0.4624
340,1105,877,34.317,31.663,0.0691,-0.0095,9.7623,-0.0631,0.3505,0.0034
345,1099,878,34.361,31.629,0.1111,-0.0289,9.8505,-0.4963,-0.1628,-0.322
350,1097,880,34.282,31.712,0.0594,0.0864,9.8041,0.2029,0.2347,-0.2628
355,1102,881,34.338,31.678,-0.0538,-0.0014,9.7883,-0.0674,-0.171,-0.0606
360,1103,877,34.388,31.584,-0.0141,0.0702,9.7969,-0.1554,0.1256,-0.0031
365,1091,881,34.37,31.643,0.0267,-0.0539,9.7329,0.291,-0.1895,0.2284
370,1099,880,34.373,31.587,0.043,-0.0184,9.6969,0.0624,-1.3176,0.1421
375,1100,875,34.315,31.648,-0.0133,-0.1094,9.8257,0.08,0.37,0.3368
380,1098,878,34.354,31.595,0.027,-0.0557,9.794,-0.3025,0.4284,-0.4536
385,1094,874,34.343,31.594,-0.0137,-0.0443,9.7681,0.2159,0.6282,0.6457
390,1100,874,34.279,31.524,0.0533,-0.0291,9.8072,0.1178,-0.0173,-0.8231
395,1090,870,34.363,31.653,0.0137,0.0962,9.8711,-0.3362,0.2459,0.4982
400,1089,874,34.306,31.72,0.0818,0.0166,9.7906,0.4935,-0.2043,-0.0576
405,1086,874,34.442,31.62,0.019,-0.0391,9.7835,-0.3845,-0.6186,-0.301
410,1080,871,34.369,31.646,0.0353,-0.0454,9.713,0.263,-0.1641,1.0747
415,1082,869,34.279,31.603,-0.0377,0.0192,9.8308,0.5466,0.5522,0.3278
420,1070,864,34.253,31.621,-0.0544,-0.0139,9.8102,0.167,-0.4289,-0.5054
425,1085,870,34.358,31.686,0.0089,0.0743,9.8161,0.3714,-0.0244,-0.4399
430,1071,869,34.286,31.614,0.0987,0.0973,9.7713,-0.178,0.0899,-0.3559
435,1066,867,34.338,31.706,-0.0137,0.0143,9.7942,-0.4473,0.1849,-0.224
440,1073,867,34.36,31.671,0.0652,0.0176,9.7736,0.5016,0.325,-0.2036
445,1068,864,34.37,31.73,0.0174,0.054,9.881,0.6556,-0.422,1.0928
450,1064,865,34.33,31.573,0.0025,0.0214,9.8653,-0.1644,-0.8087,0.4293
455,1056,864,34.286,31.575,0.0119,-0.0209,9.7441,-0.3644,-0.6689,0.2458
460,1057,856,34.379,31.624,0.0768,-0.048,9.8518,0.2078,0.2126,0.0118
465,1065,860,34.283,31.694,0.0708,0.0607,9.8228,-0.5058,0.8613,-0.0968
470,1059,861,34.319,31.671,-0.0426,0.0166,9.8604,0.3761,-1.0025,-0.2127
475,1054,857,34.403,31.618,0.0337,0.036,9.9518,-0.2393,0.1485,-0.0631
480,1047,851,34.26,31.594,0.0755,0.0819,9.7498,0.844,-0.0852,-0.0619
485,1047,859,34.313,31.62,0.0248,0.0547,9.7975,1.1545,-0.3929,-0.1494
490,1037,853,34.36,31.625,0.0442,-0.0089,9.8091,-0.7564,0.0809,-0.301
495,1035,853,34.321,31.592,-0.0004,0.0549,9.7972,-0.1852,-0.0727,-0.4791
500,1034,851,34.407,31.613,-0.0186,-0.014,9.7972,0.3478,-0.2507,-0.2648
505,1032,854,34.408,31.541,-0.0335,0.003,9.7977,0.193,-0.1946,0.4491
510,1038,848,34.348,31.669,-0.0469,-0.0107,9.776,-0.3911,0.2632,0.3005
515,1012,851,34.462,31.51,-0.0241,0.0947,9.7536,1.4058,-0.3092,0.1535
520,1010,846,34.353,31.675,-0.0816,-0.0146,9.7844,0.1445,-0.5188,0.771
525,1003,843,34.352,31.669,-0.0362,0.0047,9.8685,-0.1997,-0.2627,-0.0896
530,1010,849,34.323,31.596,-0.0452,0.0226,9.8809,-0.5561,-0.4389,-0.0646
535,995,839,34.329,31.649,0.021,0.1199,9.7862,-0.8712,-0.268,0.3587
540,993,844,34.288,31.67,0.0054,0.0061,9.8124,0.3759,-0.6783,0.1325
545,991,847,34.289,31.56,-0.0286,-0.0279,9.7315,0.0381,0.1918,0.0319
550,984,841,34.292,31.547,0.1116,0.0035,9.8001,0.5638,0.9095,-0.1857
555,973,844,34.281,31.649,-0.0281,0.0609,9.877,0.3687,-0.364,0.0738
560,975,838,34.296,31.653,0.0003,0.0093,9.8208,0.1816,0.1598,-0.326
565,964,843,34.336,31.584,-0.1289,-0.0337,9.8618,-0.5052,-0.7363,-0.1753
570,963,846,34.355,31.716,0.045,0.0291,9.7812,0.1916,-0.7449,-0.3043
575,958,835,34.343,31.636,-0.0334,-0.1084,9.7298,-0.3375,-1.1836,0.273
580,947,844,34.399,31.6,0.0965,0.0255,9.7957,-0.2093,0.0806,-0.2308
585,948,839,34.355,31.686,-0.0317,-0.0291,9.86,0.0035,0.1331,0.5005
590,935,842,34.421,31.506,-0.0043,0.0513,9.8205,0.2412,-0.3522,0.0671
595,931,832,34.402,31.599,0.0403,-0.0404,9.8914,-0.0529,0.1877,0.1065
600,915,838,34.244,31.695,0.0026,0.0849,9.7484,0.0808,-0.4489,0.4343
605,913,835,34.334,31.619,-0.0934,-0.0131,9.7807,0.3618,-0.0385,0.0335
610,902,830,34.261,31.644,-0.0226,-0.0268,9.8413,0.1184,-0.0532,-0.1964
615,889,833,34.427,31.686,0.0427,0.0534,9.7271,-0.161,0.8386,0.3979
620,895,836,34.232,31.721,0.0268,0.0039,9.7933,0.3152,0.4188,-0.0715
625,883,828,34.384,31.504,0.0137,-0.0821,9.7926,-0.1404,0.5111,1.0798
630,877,829,34.349,31.709,0.0188,0.003,9.7797,-0.8926,-0.6164,-0.1055
635,862,833,34.348,31.614,0.0013,-0.0209,9.8734,-0.3783,-0.4537,0.4143
640,852,834,34.358,31.653,0.0241,-0.0275,9.7747,-0.2035,0.1226,0.1847
645,852,828,34.393,31.612,0.1037,0.0218,9.7569,0.3321,-0.7259,0.4722
650,849,827,34.37,31.699,-0.1283,0.0047,9.7909,0.0691,0.1395,-0.5778
655,842,828,34.344,31.607,-0.0099,0.1355,9.8602,-0.6053,-1.1329,-0.6353
660,831,823,34.436,31.65,-0.0901,0.0103,9.7719,0.7852,-0.0995,-0.3154
665,827,825,34.353,31.638,-0.0528,0.0164,9.8213,0.039,-0.3329,0.2979
670,816,825,34.364,31.59,-0.0722,-0.0478,9.93,0.2889,-0.105,0.5958
675,812,822,34.285,31.62,0.0089,-0.0822,9.8809,0.3551,0.0049,0.2771
680,793,818,34.448,31.709,-0.0994,-0.0376,9.8354,0.1295,-1.0943,-0.5831
685,807,820,34.348,31.64,-0.0035,-0.0804,9.9061,-0.1764,0.3671,0.8977
690,795,822,34.335,31.582,0.0417,-0.007,9.779,0.8069,0.526,0.3107
695,787,812,34.318,31.532,-0.002,0.0419,9.7481,-0.2024,0.5619,-0.6449
700,780,811,34.319,31.577,0.0558,-0.0399,9.864,-0.3896,0.9306,-0.7496
705,776,812,34.37,31.613,0.0155,0.1082,9.9365,-0.486,0.1399,0.8469
710,776,808,34.443,31.656,-0.015,-0.1053,9.778,-0.212,0.1647,-0.6008
715,774,805,34.249,31.691,0.0979,0.0141,9.7539,0.1451,-0.2139,0.3024
720,770,809,34.414,31.629,-0.0556,0.013,9.8942,0.1857,0.6192,0.033
725,762,802,34.373,31.618,-0.1346,-0.0339,9.8803,0.9791,-0.5876,-0.1722
730,761,796,34.305,31.664,-0.0518,0.0097,9.7238,-0.467,-0.4393,0.2575
735,749,799,34.353,31.638,0.0357,-0.0116,9.8366,-0.589,-0.9153,-0.5094
740,751,791,34.3,31.696,-0.043,0.0168,9.7664,-0.0549,0.0052,-0.0821
745,756,791,34.313,31.631,-0.0343,-0.021,9.829,-0.8631,0.0163,-0.0931
750,751,794,34.323,31.607,-0.0721,0.0101,9.8343,0.8808,-0.8752,-0.1218
755,751,789,34.347,31.5,-0.0172,0.0081,9.7614,0.7139,-0.5181,0.1106
760,751,790,34.318,31.616,0.0203,0.0036,9.8807,0.056,0.1367,0.5713
765,759,779,34.312,31.62,0.0192,0.0098,9.8049,0.2611,-0.014,0.2273
770,746,779,34.45,31.627,0.049,-0.0062,9.8218,-0.1899,-0.2815,-0.3937
775,749,777,34.386,31.642,0.069,-0.0358,9.7603,-0.3817,0.7438,0.6653
780,749,773,34.287,31.685,-0.0308,0.0028,9.7615,1.7756,-0.5434,1.1863
785,749,771,34.337,31.615,0.0015,0.0673,9.7669,-0.261,-0.6248,-0.9081
790,759,768,34.385,31.591,0.0468,-0.0774,9.8006,-0.3391,0.2063,-0.3293
795,766,767,34.365,31.619,-0.0529,0.101,9.7718,-0.0413,-0.6267,0.5988
800,755,759,34.421,31.66,0.0209,0.0201,9.7822,0.4319,-1.063,0.276
805,755,760,34.328,31.583,0.0389,-0.0218,9.8142,0.9738,-0.0244,-0.5083
810,757,754,34.359,31.617,0.0033,0.0596,9.7325,-0.0743,0.2987,0.0719
815,773,752,34.356,31.668,0.0132,0.0378,9.9099,0.3082,-0.6265,-0.4409
820,774,750,34.256,31.698,0.0107,0.0444,9.8587,-0.1457,0.3853,-0.2479
825,764,741,34.275,31.585,-0.0186,-0.0386,9.825,-0.1205,0.5966,-0.2759
830,787,746,34.343,31.587,0.0788,0.0904,9.7578,-0.5069,-0.0443,0.3069
835,779,739,34.342,31.648,-0.0351,0.0601,9.8097,0.0574,-0.3564,0.1596
840,793,736,34.438,31.628,0.0396,-0.0028,9.7257,0.4018,0.6496,0.368
845,792,739,34.354,31.562,-0.0212,0.0785,9.7925,0.045,0.3832,0.3784
850,806,724,34.367,31.614,0.0241,0.0706,9.7676,-0.0196,-0.174,-0.145
855,811,724,34.292,31.68,-0.0345,-0.0043,9.7881,-1.3944,0.2546,-0.2932
860,824,725,34.396,31.584,-0.016,-0.0071,9.772,0.7888,-0.6386,0.1183
865,827,722,34.293,31.618,-0.0669,0.0257,9.7716,0.7157,0.7497,0.0912
870,828,713,34.343,31.597,-0.0429,-0.0245,9.8408,-0.3568,-0.0021,0.2916
875,848,713,34.311,31.606,-0.0018,0.0107,9.795,-0.8566,0.4498,-0.1939
880,849,714,34.275,31.642,0.1014,0.0009,9.7764,0.3748,1.0283,0.5867
885,860,711,34.449,31.603,0.0147,0.0504,9.7778,-0.1216,-0.6185,0.4502
890,873,714,34.331,31.684,-0.0127,0.0751,9.732,0.2768,-0.2121,-0.7112
895,882,705,34.337,31.578,0.0882,0.0004,9.8672,-0.2086,-0.2516,0.2018
900,888,701,34.34,31.632,-0.0371,0.0117,9.8642,-0.4973,0.0467,-0.2603
905,894,701,34.343,31.582,-0.0202,-0.0244,9.8767,-0.3917,-0.3862,-0.833
910,918,702,34.327,31.62,-0.0103,0.003,9.804,-0.0933,-0.0566,0.4041
915,922,697,34.308,31.727,0.0334,-0.0833,9.8234,0.2299,-0.7281,-0.0234
920,927,693,34.332,31.606,0.0835,-0.0157,9.8081,-0.0885,0.4855,-0.0026
925,937,694,34.369,31.544,0.0779,-0.0847,9.7255,-0.3778,0.0693,-0.1235
930,946,698,34.391,31.581,-0.0351,-0.0132,9.8178,0.3289,0.1015,-0.1708
935,945,695,34.349,31.687,-0.0635,-0.0127,9.7736,-0.2666,-0.1284,-0.8562
940,968,693,34.324,31.684,0.0525,-0.0001,9.7809,-0.1573,-0.2058,-0.2257
945,974,694,34.377,31.671,-0.0502,-0.094,9.8256,-0.3268,-0.7571,-1.234
950,981,691,34.387,31.596,0.0208,0.0459,9.7957,0.005,-0.1789,0.388
955,999,700,34.255,31.578,0.013,-0.0392,9.8156,0.5973,-0.1076,0.5854
960,1004,693,34.368,31.733,0.0302,-0.0824,9.7577,0.3327,-0.3219,0.0124
965,1011,690,34.35,31.588,0.0253,-0.0095,9.7767,0.5057,-0.6668,0.0961
970,1023,695,34.395,31.629,-0.0127,-0.0629,9.8957,0.5003,0.2624,-0.0766
975,1030,698,34.319,31.644,-0.0326,-0.0472,9.7691,-0.8067,-0.277,0.0592
980,1051,691,34.374,31.642,0.0073,0.086,9.8623,0.4897,0.1011,0.3386
985,1047,694,34.397,31.58,0.0078,-0.0278,9.8691,-0.1018,-0.6097,-0.5992
990,1062,693,34.37,31.631,0.0024,-0.0005,9.8521,-0.1771,1.0446,-0.3461
995,1070,693,34.44,31.583,-0.0035,-0.0363,9.7768,0.3187,-0.2935,-0.5949
1000,1078,701,34.287,31.562,0.0731,-0.0086,9.8527,0.1375,0.2348,-0.3729
1004,1081,705,34.357,31.586,0.0732,0.0756,9.8158,-0.2945,0.4791,0.1095
1010,1091,707,34.405,31.53,0.0102,0.0169,9.7666,0.0668,-0.3448,-0.2728
1014,1102,702,34.316,31.571,-0.072,0.006,9.7805,0.6956,0.8723,0.3221
1020,1108,709,34.33,31.622,-0.0447,0.0195,9.7801,-0.0747,-0.1379,0.0091
1025,1118,707,34.224,31.643,-0.0203,-0.0439,9.8374,0.5956,-0.3382,-0.5573
1030,1119,709,34.31,31.553,0.0184,0.0448,9.786,-0.842,-1.1296,-0.1683
1035,1129,713,34.364,31.642,-0.0278,0.0051,9.8215,-0.8391,-0.3851,0.1177
1040,1138,718,34.299,31.678,-0.0261,0.0955,9.8373,0.0546,-0.1062,0.8148
1045,1142,722,34.403,31.639,0.0433,-0.0359,9.8317,-0.6957,1.0826,-0.1586
1050,1146,719,34.319,31.582,0.0449,-0.063,9.8167,-0.3746,-0.359,0.1527
1055,1156,727,34.36,31.635,0.0554,-0.0073,9.8077,1.088,1.0182,-0.8584
1060,1152,725,34.34,31.56,0.0372,0.0284,9.8264,1.212,0.9452,-0.179
1065,1164,728,34.429,31.645,-0.0337,-0.1071,9.847,-0.8077,-0.124,-0.0318
1070,1167,730,34.416,31.607,0.0046,-0.058,9.7613,-0.7278,0.41,0.4341
1075,1183,739,34.401,31.665,0.0165,-0.0515,9.8065,-0.1294,-0.3133,-0.036
1080,1168,738,34.388,31.662,-0.0379,-0.0946,9.8431,0.6924,0.9939,-0.4088
1085,1183,747,34.333,31.605,0.0564,0.0293,9.8607,0.4289,-0.5405,-0.2945
1090,1186,754,34.306,31.711,-0.0385,0.0081,9.8512,0.0333,0.138,-0.3603
1095,1178,756,34.233,31.6,-0.0313,-0.0017,9.8678,-0.5575,0.0678,0.8711
1100,1184,759,34.326,31.587,-0.0443,0.0788,9.7939,0.6237,-0.5356,0.4465
1105,1184,758,34.277,31.553,-0.0902,0.001,9.7858,-1.0515,-0.7607,-0.2796
1110,1190,767,34.379,31.589,-0.0304,0.0083,9.8955,0.459,-0.259,-0.2862
1115,1188,765,34.321,31.694,-0.0308,-0.0364,9.7969,0.3071,0.0846,0.4807
1120,1185,778,34.404,31.597,0.0842,-0.0025,9.8081,0.811,-0.2092,0.5867
1125,1194,774,34.34,31.61,-0.0118,0.0942,9.7877,0.0416,-0.2739,0.4087
1130,1189,780,34.423,31.639,0.0761,0.0186,9.7469,0.4762,0.2122,0.1233
1135,1191,789,34.348,31.648,-0.0011,-0.0195,9.6992,0.3719,0.0932,0.6707
1140,1190,787,34.304,31.593,-0.0185,-0.0253,9.827,-0.5168,-0.1459,0.1817
1145,1192,796,34.409,31.666,0.0832,-0.0387,9.8249,0.2912,-0.3054,-0.5149
1150,1191,799,34.356,31.625,-0.0467,-0.039,9.7603,-0.3087,0.0106,0.3437
1155,1191,804,34.337,31.693,0.0486,0.0019,9.9221,-0.1004,0.3045,0.0475
1160,1190,811,34.372,31.616,0.0065,-0.0895,9.8436,-0.5599,-0.4404,0.1505
1165,1181,813,34.395,31.662,-0.0062,0.0884,9.7373,-0.0761,-0.9891,0.8072
1170,1179,817,34.322,31.647,0.0267,0.0641,9.8216,0.6699,0.5572,-0.3012
1175,1184,811,34.341,31.73,0.0197,0.0015,9.7953,-0.1814,-0.4275,0.3059
1180,1173,825,34.322,31.586,-0.0241,0.0399,9.8434,0.3746,0.1556,0.109
1185,1188,830,34.345,31.575,0.0539,0.0116,9.8862,0.0914,0.0449,-0.1851
1190,1178,827,34.31,31.67,0.0469,0.0142,9.8374,-0.3794,-1.02,0.245
1195,1170,830,34.289,31.685,0.0086,-0.0374,9.8603,0.4447,0.2869,-0.2412
1200,1177,840,34.306,31.635,-0.0632,0.0706,9.836,0.2737,-1.521,-0.3461
1205,1167,841,34.294,31.696,-0.0069,-0.0053,9.8602,0.2376,-0.5004,0.0243
1210,1161,844,34.326,31.684,-0.0791,0.0577,9.8371,0.0012,0.0124,-0.4071
1215,1169,845,34.237,31.647,0.0038,0.0242,9.8421,0.32,-0.0665,-0.6057
1220,1165,851,34.383,31.583,-0.0187,0.0239,9.858,-0.5573,-0.0056,-0.1529
1225,1161,852,34.381,31.631,-0.0093,-0.018,9.8245,-0.0022,0.3553,-0.6803
1230,1159,857,34.256,31.626,-0.0081,0.0164,9.7871,0.665,-0.0047,-0.2338
1235,1150,856,34.372,31.686,0.0734,0.0372,9.8509,0.5192,0.5336,0.1617
1240,1151,862,34.351,31.535,-0.0278,-0.023,9.8533,-0.0868,0.7741,-0.4683
1245,1146,859,34.298,31.739,-0.0438,-0.0347,9.8824,-0.3204,0.4255,0.8357
1250,1145,867,34.412,31.637,-0.0155,-0.1115,9.7691,-0.6992,-0.1126,0.6007
1255,1141,861,34.439,31.618,-0.0343,0.0229,9.8399,-0.0493,0.1268,0.4589
1260,1136,871,34.311,31.567,-0.0449,-0.1211,9.8427,0.4141,-0.1139,-0.3408
1265,1128,867,34.418,31.65,-0.0159,0.021,9.8604,0.9073,0.2258,0.9672
1270,1132,874,34.426,31.542,-0.1039,0.0609,9.8035,0.6396,-0.0378,-0.5156
1275,1126,876,34.288,31.652,-0.0578,0.1507,9.751,-0.0909,-0.1109,-0.1065
1280,1121,877,34.339,31.57,-0.058,-0.0855,9.778,0.5409,0.0341,-0.3889
1285,1127,875,34.362,31.727,-0.0157,-0.0291,9.8149,0.3293,-0.2073,-0.0509
1290,1110,873,34.338,31.583,-0.0283,-0.0099,9.7586,-0.4587,0.7546,0.4286
1295,1129,876,34.356,31.642,0.028,-0.0766,9.7651,-0.58,0.5777,-0.0658
1300,1110,879,34.356,31.634,-0.1162,0.0846,9.7495,-0.3111,0.287,-0.2269
1305,1114,879,34.225,31.639,0.0115,-0.0614,9.736,-0.2001,0.6081,0.2591
1310,1109,875,34.341,31.7,-0.0262,-0.0098,9.8118,0.1822,-0.0426,0.1097
1315,1100,879,34.389,31.611,-0.0639,-0.0381,9.8333,-0.7165,0.476,0.6942
1320,1101,882,34.266,31.673,-0.0829,0.0959,9.7334,0.3804,-0.151,-0.7467
1325,1107,881,34.4,31.617,0.0052,0.0358,9.8296,-0.1953,-0.4632,0.6658
1330,1105,883,34.374,31.636,-0.0269,0.0241,9.8319,1.0632,0.1637,0.6308
1335,1107,881,34.309,31.62,0.0032,0.0076,9.7804,0.1296,0.457,0.7353
1340,1104,877,34.358,31.636,-0.0431,0.058,9.8466,-0.1705,0.0002,-0.8821
1345,1103,879,34.255,31.55,0.0557,0.0172,9.849,0.1228,0.3203,-0.1613
1350,1097,877,34.319,31.591,-0.024,-0.0186,9.8167,0.4606,-0.2042,0.279
1355,1092,878,34.341,31.641,0.0173,-0.0246,9.7925,-0.6334,-0.0469,0.1771
1360,1095,876,34.317,31.603,0.0059,0.0251,9.792,-0.6232,0.3391,-0.1584
1365,1091,874,34.362,31.561,0.0212,0.0348,9.8306,0.7722,0.6147,-0.1838
1370,1090,875,34.367,31.6,-0.0053,-0.005,9.8096,-0.1208,-0.4003,0.5748
1375,1090,873,34.448,31.704,0.0652,-0.0249,9.7855,-0.1911,-0.2442,-0.4163
1380,1085,875,34.427,31.717,0.022,0.0005,9.7731,0.3235,0.4251,0.425
1385,1081,876,34.247,31.649,0.0149,0.007,9.8424,1.1921,0.6622,-0.1584
1390,1082,868,34.358,31.608,-0.0574,0.0321,9.926,-1.0371,0.4644,-0.2026
1395,1088,871,34.341,31.621,-0.0778,-0.0425,9.7942,-0.0765,0.1169,0.1226
1400,1085,869,34.329,31.646,-0.0786,0.0434,9.7907,-0.4009,-0.811,-0.0634
1405,1080,870,34.258,31.639,-0.0618,0.0699,9.8787,0.5458,0.1417,-0.5164
1410,1073,868,34.4,31.72,0.0082,-0.0361,9.9006,0.2159,0.2779,0.1383
1415,1070,869,34.316,31.651,0.026,0.0357,9.8187,-0.656,-0.0058,-0.0474
1420,1077,866,34.388,31.708,-0.0288,-0.0571,9.7697,-0.3249,0.1643,0.4167
1425,1070,863,34.404,31.547,-0.0135,-0.0803,9.9072,-0.2469,-0.7722,-0.2671
1430,1062,866,34.336,31.624,0.0557,-0.084,9.8247,-0.0404,0.3631,-0.1086
1435,1061,859,34.222,31.71,0.0892,0.0189,9.8589,1.0589,0.2425,-0.2316
1440,1062,861,34.356,31.736,-0.0108,0.0053,9.9162,-0.632,-0.3478,-0.4516
1445,1060,858,34.381,31.585,-0.0899,0.1417,9.8021,-0.565,0.4305,-0.4996
1450,1056,856,34.344,31.639,0.026,-0.0297,9.7722,-0.0218,-0.1757,-0.4287
1455,1051,856,34.341,31.629,-0.0103,0.0023,9.8268,0.5752,-0.2626,1.1797
1460,1055,856,34.335,31.735,0.01,-0.0423,9.8973,-0.0431,0.5104,0.3072
1465,1045,856,34.293,31.63,0.0289,0.0729,9.7453,-0.5133,0.0142,-0.2633
1470,1049,852,34.47,31.708,-0.0232,-0.008,9.7753,0.0976,0.5043,0.299
1475,1043,848,34.403,31.586,0.0529,0.0544,9.8147,0.7253,0.0659,-0.0659
1480,1031,850,34.397,31.775,0.1066,0.0368,9.896,0.3498,-1.5407,0.549
1485,1041,849,34.381,31.655,-0.061,-0.0658,9.7193,-0.4219,-0.5375,-0.378
1490,1025,850,34.272,31.727,0.053,0.015,9.8935,-0.6285,-0.4579,-0.3035
1495,1024,851,34.363,31.624,-0.0279,-0.0507,9.9824,0.1035,0.3714,-0.8461
1500,1017,850,34.296,31.666,0.0024,0.0517,9.8082,0.7696,0.4265,0.2693
1505,1014,845,34.37,31.728,0.0397,-0.0408,9.8972,0.0685,0.1945,-0.4176
1510,1004,847,34.386,31.575,0.0062,0.0099,9.8243,-0.159,-0.1136,0.5336
1515,1001,845,34.356,31.541,-0.0427,0.0239,9.7746,-0.4002,0.6618,-0.6871
1520,991,841,34.364,31.749,0.055,0.1194,9.8534,-0.0796,-0.2261,-0.0545
1525,995,846,34.332,31.727,-0.0146,0.0481,9.8566,-0.4467,0.2207,1.4924
1530,982,848,34.378,31.557,0.0864,0.0009,9.8164,0.0678,-0.306,0.1651
1535,972,840,34.344,31.596,-0.0444,-0.0366,9.7237,0.4154,-0.1319,-0.5182
1540,965,846,34.356,31.632,-0.0255,-0.0679,9.8196,0.0275,0.1842,0.8676
1545,969,845,34.318,31.691,0.0559,-0.0447,9.8281,0.5195,-0.0133,-0.2712
1550,956,839,34.36,31.618,0.097,-0.0397,9.8631,0.5391,-0.7027,0.7073
1555,954,838,34.369,31.678,-0.0042,0.0378,9.7252,0.0195,-0.0101,-0.1109
1560,947,831,34.39,31.671,0.0105,-0.0349,9.8198,0.0632,0.6875,-0.6707
1565,947,837,34.367,31.627,-0.0119,-0.0093,9.81,-0.3046,0.5014,0.0148
1570,931,837,34.371,31.628,0.0281,0.0286,9.8701,-0.2295,-0.2429,-0.5446
1575,932,835,34.395,31.675,0.0565,0.0124,9.9028,-0.1606,-0.9896,-0.2575
1580,915,837,34.343,31.603,-0.0333,0.036,9.7811,0.461,-0.0731,0.5609
1585,915,839,34.288,31.705,-0.0155,0.0019,9.8104,1.4951,-0.3369,-0.2607
1590,901,834,34.384,31.589,0.0806,0.0506,9.7463,0.1016,-0.1506,-0.4128
1595,897,833,34.409,31.592,0.0862,-0.01,9.7338,0.4735,0.2126,0.1708
1600,893,829,34.375,31.6,-0.0111,0.0179,9.8086,-0.9308,0.1005,-0.6634
1605,882,830,34.383,31.65,0.0418,-0.0218,9.8756,-0.1684,-0.32,0.2938
1610,868,825,34.3,31.565,0.0299,-0.018,9.8039,0.0831,0.0646,0.3142
1615,869,834,34.365,31.64,0.0197,0.0584,9.7666,0.7779,-0.5875,0.5883
1620,865,828,34.379,31.64,-0.0416,0.0225,9.7552,-0.5499,-0.1638,0.0012
1625,848,830,34.293,31.655,-0.0099,-0.0366,9.8157,-0.1174,-0.1993,-0.101
1630,850,828,34.414,31.616,0.055,0.0109,9.7363,-0.4146,-0.117,0.4533
1635,838,830,34.397,31.578,0.005,0.0046,9.9196,-0.0512,0.2431,0.2034
1640,826,829,34.4,31.668,0.0019,-0.0385,9.829,-0.1015,-0.2016,-0.0349
1645,828,822,34.351,31.667,0.0905,0.043,9.7908,0.5937,0.0994,0.0719
1650,817,822,34.3,31.574,-0.0288,0.025,9.8445,-0.0818,0.0524,1.0548
1655,815,821,34.404,31.675,0.0226,-0.0005,9.8938,-0.0537,1.2282,0.8738
1660,810,824,34.345,31.689,-0.0572,0.0927,9.8555,-0.3427,0.0097,-1.0209
1665,802,819,34.303,31.601,0.0043,0.0005,9.7334,-0.2265,-0.9028,0.0743
1670,797,812,34.363,31.577,0.106,-0.035,9.7925,0.408,-0.5372,1.4749
1675,780,813,34.252,31.664,-0.0287,0.0457,9.7947,1.0586,-0.6802,-0.2495
1680,791,809,34.422,31.626,-0.0315,-0.0615,9.8158,0.1489,0.3711,-0.1302
1685,780,805,34.316,31.596,-0.0774,0.0078,9.8791,-0.1269,-0.0097,0.3666
1690,774,805,34.346,31.624,0.0226,-0.0462,9.832,-0.1918,-0.4524,-0.4427
1695,771,804,34.385,31.634,-0.0376,0.0601,9.9188,-0.1592,0.1552,0.4183
1700,777,803,34.332,31.687,0.0546,-0.0007,9.7596,-0.8121,0.4522,-0.8528
1705,762,800,34.358,31.583,0.0174,-0.0424,9.8051,0.0212,-0.4411,-0.4042
1710,760,800,34.351,31.678,-0.0646,-0.0412,9.8653,-0.0721,0.0353,0.1731
1715,761,798,34.35,31.63,-0.0352,-0.0333,9.8634,-0.9653,-0.0865,-0.2739
1720,757,797,34.277,31.639,0.0025,0.0096,9.7367,1.0499,-0.133,-1.4707
1725,751,793,34.362,31.691,0.0426,-0.0352,9.8469,0.3603,-0.1255,-0.5375
1730,749,795,34.391,31.717,-0.0303,-0.0072,9.8513,0.5172,-1.183,-0.0504
1735,749,785,34.368,31.546,0.05,0.0096,9.7436,0.0308,0.0435,0.5539
1740,754,782,34.382,31.602,-0.1057,0.0052,9.7972,0.8196,0.4846,-0.2235
1745,746,782,34.352,31.626,0.0154,-0.0472,9.8055,-1.4401,-1.1093,0.7576
1750,746,776,34.416,31.65,0.0153,0.0561,9.8229,0.0205,-0.3329,0.5527
1755,753,775,34.356,31.663,0.0179,0.0247,9.843,-0.2601,0.3444,0.1826
1760,753,777,34.331,31.647,-0.0176,-0.0725,9.9021,-0.5839,-0.9458,0.1657
1765,753,774,34.246,31.701,0.1019,-0.0633,9.7996,-0.7266,-0.6202,0.2136
1770,751,767,34.345,31.604,-0.0484,0.0777,9.7746,0.3705,0.6559,0.258
1775,759,768,34.382,31.624,0.0196,0.074,9.7882,-0.0615,-0.2288,-0.4723
1780,760,759,34.328,31.601,-0.0114,0.0027,9.7961,-0.1092,-0.4801,0.0444
1785,759,761,34.352,31.713,-0.0022,-0.0703,9.7808,-1.0591,1.0178,0.4005
1790,765,756,34.357,31.57,0.0105,-0.0046,9.7933,0.3622,0.9761,0.3947
1795,768,754,34.375,31.679,-0.1019,0.0646,9.8538,-0.1187,0.5671,0.4274
1800,771,750,34.379,31.622,-0.0051,0.0626,9.8622,0.1903,0.7663,0.2747
1805,772,749,34.39,31.637,0.0452,0.0124,9.8085,-0.0222,0.87,-0.041
1810,780,741,34.339,31.71,0.0114,0.002,9.824,0.0396,0.7012,0.0418
1815,794,734,34.361,31.664,-0.0444,0.0048,9.8655,-0.0866,-0.1606,0.4291
1820,796,731,34.206,31.71,0.0126,0.0978,9.8184,-0.5717,0.0505,0.0175
1825,797,730,34.36,31.628,-0.0626,-0.0629,9.7913,-0.1394,1.0223,0.1053
1830,811,730,34.317,31.663,0.0342,-0.0396,9.8177,0.6288,-0.0349,0.1643
1835,815,729,34.295,31.606,-0.0712,0.0009,9.8227,0.9273,-0.2371,0.2569
1840,817,728,34.335,31.641,-0.0369,-0.0443,9.8192,-0.2857,0.593,0.5238
1845,828,724,34.305,31.665,0.0885,0.0087,9.8059,0.5464,0.6137,-0.1537
1850,841,720,34.286,31.699,0.0275,0.0948,9.849,0.6892,-0.0338,-0.4803
1855,840,723,34.347,31.69,0.1144,0.0035,9.8247,0.1314,-0.9962,-0.7006
1860,846,710,34.338,31.721,-0.0416,0.0429,9.7647,0.5436,-0.1202,-0.6535
1865,864,717,34.283,31.654,0.0193,-0.01,9.8324,-0.138,0.7686,-0.0857
1870,875,714,34.203,31.621,-0.0565,0.0339,9.8118,0.6691,0.3766,-0.1219
1875,886,702,34.305,31.637,-0.0102,-0.0416,9.6853,0.1957,-0.1472,-0.713
1880,886,711,34.384,31.606,0.0314,0.031,9.8417,-0.6229,0.103,0.2368
1885,899,704,34.425,31.646,0.0026,-0.0114,9.7897,0.5377,-0.0305,-0.8595
1890,905,703,34.255,31.611,0.0169,0.0516,9.7035,0.7061,0.564,-0.1354
1895,928,700,34.36,31.585,0.0715,-0.0212,9.7385,0.6273,-0.0052,-1.2261
1900,916,701,34.418,31.662,0.0513,0.0399,9.8106,-0.5799,0.2869,0.1652
1905,929,694,34.403,31.668,-0.0102,-0.0815,9.7508,0.5609,0.3382,0.0467
1910,945,692,34.282,31.639,0.0135,-0.0237,9.7542,0.008,-0.3011,-0.7717
1915,955,697,34.347,31.582,0.0673,0.0443,9.7971,-0.5925,0.4674,-0.5423
1920,975,694,34.351,31.561,-0.0124,0.0672,9.7718,0.1583,-0.5481,0.5422
1925,978,698,34.387,31.623,-0.0056,0.0605,9.7504,-0.294,-0.2155,-0.9367
1930,984,693,34.42,31.61,0.0186,-0.0182,9.8328,1.4916,0.345,-0.7807
1935,999,699,34.382,31.605,-0.0099,0.0258,9.8634,0.5357,-0.0009,0.4281
1940,1008,694,34.385,31.545,-0.0057,-0.0041,9.7833,-0.7589,-0.1358,0.2434
1945,1006,694,34.324,31.634,-0.0292,-0.0694,9.8348,-0.0409,0.2938,-1.3728
1950,1029,693,34.376,31.574,0.0063,-0.0431,9.8426,0.4145,0.4752,-0.8684
1955,1039,690,34.332,31.652,-0.1265,0.0861,9.7453,0.164,-0.5736,0.6004
1960,1050,693,34.449,31.589,-0.0186,-0.0797,9.7894,0.4128,0.9594,0.2934
1965,1055,692,34.409,31.658,-0.0009,0.0672,9.8781,-0.079,0.3953,0.2526
1970,1063,698,34.406,31.63,-0.0109,-0.0827,9.7963,0.4203,0.0538,-0.6236
1975,1061,694,34.425,31.652,-0.0008,-0.0952,9.7331,-0.6625,0.0926,-0.2161
1980,1074,699,34.303,31.654,0.0053,-0.0785,9.7953,-1.3834,-1.0035,-0.0952
1985,1082,703,34.379,31.692,-0.0354,-0.07,9.804,0.5098,0.2299,-0.027
1990,1099,706,34.343,31.685,-0.0295,-0.0346,9.7263,0.3758,-0.4308,0.1155
1995,1097,704,34.354,31.598,-0.0496,0.0061,9.8789,-0.0307,-0.7875,-0.2458
2000,1110,710,34.342,31.63,0.0468,-0.0635,9.7893,0.234,-0.388,-0.3674
2005,1115,708,34.35,31.636,0.0791,-0.0356,9.7733,0.2489,-0.417,0.2703
2009,1120,717,34.33,31.564,-0.074,0.0004,9.8486,-0.4415,-0.0137,-0.3211
2015,1141,717,34.381,31.61,-0.0411,-0.0451,9.8238,-0.355,0.4231,0.4099
2020,1132,713,34.375,31.639,-0.0041,-0.0122,9.8154,-0.6538,0.9236,-1.8641
2025,1143,722,34.346,31.686,0.141,0.0707,9.7733,-0.7308,-0.5023,-0.7966
2029,1136,722,34.351,31.687,0.0257,0.0087,9.833,0.2961,0.3383,-0.6129
2035,1150,730,34.359,31.714,-0.0047,-0.028,9.8913,0.0014,0.2512,0.6618
2040,1156,729,34.374,31.721,0.0374,-0.0045,9.8185,0.0104,-0.4774,-0.154
2045,1162,732,34.315,31.675,0.0413,0.0964,9.8077,-0.0747,-0.2103,-0.0845
2050,1166,736,34.407,31.568,-0.0454,-0.0408,9.7805,-0.3199,-0.0367,0.0051
2055,1169,740,34.355,31.615,-0.023,-0.0175,9.7841,0.3497,-0.4513,-0.67
2060,1175,743,34.356,31.549,0.0258,0.0223,9.8325,-0.2955,-0.3132,-0.7769
2065,1171,743,34.248,31.696,0.0643,0.0839,9.8432,-0.3061,-0.737,-0.5443
2070,1175,749,34.338,31.605,-0.0344,-0.0891,9.8036,-0.4202,0.4333,0.4402
2075,1174,751,34.301,31.544,-0.014,-0.0159,9.7812,-0.1821,0.6712,-0.8801
2080,1182,759,34.401,31.633,-0.0844,-0.0004,9.74,-0.1274,-0.5261,0.3978
2085,1183,758,34.289,31.619,-0.0535,0.0037,9.7943,-0.1588,-0.6856,-0.1216
2090,1186,763,34.272,31.713,-0.026,0.0328,9.8472,-1.2635,-0.2531,-1.0807
2095,1185,768,34.294,31.565,-0.1283,0.0213,9.6927,-0.0173,0.6136,-0.432
2100,1186,769,34.246,31.643,-0.052,0.012,9.7934,-0.4637,-0.7909,0.1282
2105,1195,783,34.319,31.584,0.0016,0.0078,9.8826,1.0746,0.1025,0.6297
2110,1188,780,34.431,31.628,-0.0502,0.0812,9.8265,-0.1989,0.7393,0.0047
2115,1178,788,34.372,31.612,0.039,0.0603,9.7918,1.603,0.1647,-0.7067
2120,1192,790,34.313,31.687,0.0379,0.0007,9.8017,0.3585,0.8753,0.1104
2125,1186,793,34.356,31.629,0.0316,0.0019,9.757,0.6376,-0.7851,-0.1361
2130,1186,802,34.32,31.705,0.0036,-0.0702,9.8192,-0.3573,0.4144,0.5054
2135,1181,805,34.272,31.615,-0.0382,0.0328,9.8175,1.0084,-0.348,0.3936
2140,1179,808,34.45,31.623,0.0045,0.0217,9.8532,0.7815,-0.147,-0.191
2145,1183,804,34.405,31.642,-0.0155,0.015,9.7834,-1.1831,0.2407,-0.0275
2150,1176,821,34.35,31.625,0.0372,-0.0238,9.8507,-0.3632,0.6638,-0.1734
2155,1185,818,34.41,31.683,-0.029,-0.0324,9.7918,0.6027,0.2399,0.1415
2160,1174,828,34.337,31.625,0.0265,-0.0039,9.8443,0.6814,0.6281,-0.1766
2165,1180,823,34.274,31.672,-0.0553,-0.0749,9.7767,0.5149,-0.1077,0.0552
2170,1180,837,34.311,31.688,-0.0023,0.0148,9.7797,-0.676,-0.046,-0.8019
2175,1169,832,34.403,31.595,0.0918,-0.0339,9.7304,-0.2943,0.1929,-0.1165
2180,1165,835,34.341,31.612,0.0247,-0.0974,9.8347,0.5885,-0.1982,-0.2985
2185,1169,839,34.379,31.646,0.0009,0.0141,9.8169,0.457,0.075,0.1981
2190,1162,845,34.399,31.623,-0.0315,-0.0688,9.7355,-0.3712,-0.6102,0.5148
2195,1159,849,34.388,31.61,0.0218,-0.0736,9.8071,0.1043,0.021,0.7716
2200,1160,850,34.38,31.644,-0.0179,-0.0391,9.8285,-0.7436,-0.37,0.2078
2205,1161,856,34.293,31.664,-0.0884,-0.0259,9.874,-0.1785,0.2336,0.3581
2210,1162,859,34.406,31.683,-0.0602,0.0233,9.8555,0.5078,0.0184,-0.5192
2215,1145,857,34.386,31.632,0.0167,0.0054,9.7655,0.3726,0.5453,-0.137
2220,1151,862,34.444,31.704,0.0534,0.029,9.8538,0.9508,-0.4719,-0.0801
2225,1148,862,34.4,31.648,0.0225,-0.0104,9.8109,0.2102,0.2079,0.1695
2230,1144,866,34.411,31.823,0.0257,-0.0104,9.8096,-0.3111,0.5899,0.1014
2235,1137,862,34.299,31.666,-0.0488,0.0162,9.9329,0.651,-0.0641,-0.415
2240,1135,868,34.472,31.687,-0.0355,0.0122,9.7341,0.8548,0.1859,-0.488
2245,1136,873,34.319,31.675,0.0059,-0.025,9.7766,0.8564,-0.255,-0.0222
2250,1147,878,34.366,31.658,-0.0274,-0.0137,9.8358,0.1506,0.5875,0.3177
2255,1125,876,34.32,31.668,0.017,0.0373,9.8416,-0.3517,0.5473,-0.3461
2260,1130,873,34.349,31.696,-0.0772,0.0103,9.8079,-0.7498,-0.0651,-0.7803
2265,1126,878,34.344,31.629,0.0709,-0.1135,9.818,-0.0371,0.114,-0.8986
2270,1124,874,34.363,31.641,0.0327,0.0022,9.9142,0.7356,-0.8276,-0.4293
2275,1125,868,34.302,31.556,-0.0153,-0.0048,9.8261,0.154,-0.1966,0.3769
2280,1128,878,34.343,31.717,-0.0238,-0.1062,9.7396,0.4904,-0.1369,0.9594
2285,1118,880,34.377,31.627,0.0187,0.077,9.8621,-0.5347,0.7269,-0.3381
2290,1117,879,34.357,31.572,-0.0146,0.0464,9.8806,0.1324,0.8132,0.6059
2295,1109,879,34.348,31.669,-0.0186,0.0153,9.8219,-0.441,0.194,1.2038
2300,1109,871,34.345,31.607,0.0276,0.0002,9.8356,0.0227,-0.5421,-0.2086
2305,1111,885,34.35,31.621,0.01,-0.1069,9.8223,-0.4655,0.1203,0.1036
2310,1103,882,34.346,31.765,-0.032,-0.0065,9.8075,0.088,-0.2433,0.1548
2315,1108,881,34.243,31.692,0.0091,0.035,9.8436,0.4663,0.7085,0.729
2320,1103,884,34.306,31.548,0.0279,0.0874,9.7967,0.1861,0.1983,-0.2093
2325,1094,882,34.413,31.69,0.0368,-0.0011,9.8033,-0.3764,0.3705,-0.2189
2330,1092,877,34.309,31.69,-0.0057,0.095,9.8836,0.4188,0.1636,-0.4454
2335,1094,880,34.321,31.617,-0.003,0.0241,9.8231,0.075,-0.2245,-1.0064
2340,1095,874,34.321,31.587,-0.0461,-0.0021,9.7632,-0.3133,0.3171,0.4384
2345,1097,878,34.372,31.6,0.0441,0.0323,9.8433,-0.0108,0.4991,1.1548
2350,1100,877,34.488,31.638,-0.0061,0.0843,9.8232,-0.1659,-0.2529,-0.4348
2355,1088,881,34.4,31.644,-0.0245,0.0458,9.8265,-0.5245,-0.3835,0.0321
2360,1088,866,34.295,31.668,0.0312,0.0111,9.8694,-0.2862,0.3145,-1.0103
2365,1082,875,34.229,31.647,0.0013,-0.0688,9.7998,-0.2568,0.4011,-0.2682
2370,1080,874,34.304,31.692,0.0668,0.0179,9.8535,0.1213,-0.5874,0.0453
2375,1082,870,34.358,31.624,-0.1087,0.0221,9.8059,-0.1896,-0.3746,-1.2008
2380,1075,873,34.289,31.619,0.0136,0.008,9.8035,0.72,-0.4387,0.8451
2385,1091,871,34.336,31.662,-0.0094,-0.0076,9.8504,-0.2393,-0.2387,0.3756
2390,1075,869,34.374,31.622,0.0396,-0.0713,9.8109,0.283,-0.5603,-0.2948
2395,1068,867,34.395,31.628,0.0079,0.0556,9.7476,0.5722,0.0876,0.1087
2400,1072,862,34.335,31.717,0.0306,0.0609,9.8124,0.2848,-0.1655,-0.0733
2405,1069,864,34.435,31.689,0.1105,-0.013,9.8928,-0.4189,-0.6586,-0.8708
2410,1068,860,34.419,31.515,0.0235,0.0683,9.8095,-0.1835,0.0253,1.1133
2415,1063,866,34.327,31.698,-0.0204,0.0336,9.7319,0.8632,0.3624,0.0348
2420,1061,862,34.258,31.676,0.0665,0.0766,9.8069,-0.4619,-0.268,0.6944
2425,1066,862,34.38,31.68,-0.0033,0.0535,9.7835,0.2263,0.503,-0.5535
2430,1058,862,34.356,31.703,-0.0385,0.1161,9.8194,-0.3118,0.0751,0.3241
2435,1056,854,34.382,31.686,0.0005,-0.0298,9.8644,0.3131,0.732,0.2134
2440,1052,860,34.352,31.662,0.0421,-0.0073,9.7724,-0.335,0.0561,0.3419
2445,1047,855,34.422,31.616,0.0354,-0.0215,9.7977,0.5558,-1.0154,-0.0842
2450,1050,852,34.235,31.792,0.0421,0.0679,9.7909,-0.1813,0.9372,-0.5597
2455,1037,852,34.411,31.606,0.0236,-0.0153,9.932,-0.8884,-0.6584,0.2041
2460,1036,851,34.379,31.642,0.0205,0.0431,9.7337,0.1394,-0.286,-0.3649
2465,1030,851,34.391,31.717,-0.0248,0.0081,9.9105,0.4744,-0.3592,0.0817
2470,1031,854,34.266,31.664,0.0284,0.1659,9.777,0.2943,-0.2915,-0.9614
2475,1018,851,34.334,31.637,0.0675,0.0012,9.8189,-0.1419,-0.0318,-0.5514
2480,1015,849,34.337,31.631,0.0887,-0.0339,9.7889,-0.4482,-0.3234,0.0411
2485,1009,853,34.369,31.632,-0.1028,-0.0738,9.7923,-0.1372,0.7969,-0.4198
2490,1000,849,34.478,31.703,-0.0292,0.0805,9.7925,-0.1154,1.3844,-0.0027
2495,1003,845,34.336,31.661,-0.0175,0.0268,9.7655,-0.2634,-0.5685,-0.1083
2500,995,844,34.345,31.677,-0.0075,-0.0208,9.8229,1.2105,-0.3915,-0.538
2505,982,842,34.359,31.643,0.0097,-0.1133,9.8281,0.7997,-0.5031,-0.0644
2510,979,847,34.285,31.659,0.0326,0.0592,9.7866,0.761,-1.2391,-0.6594
2515,977,843,34.349,31.618,0.0764,-0.1113,9.7738,-0.0369,-0.0705,-0.5031
2520,965,842,34.45,31.696,0.0923,-0.0109,9.8321,-1.0058,0.0872,0.3845
2525,967,838,34.298,31.663,0.0095,0.0646,9.8362,0.1716,1.15,-0.0141
2530,958,840,34.336,31.645,-0.0378,-0.0018,9.8911,0.2225,0.3254,0.5821
2535,954,841,34.384,31.607,-0.0057,-0.0109,9.8434,-0.0551,-0.8969,0.6274
2540,939,841,34.313,31.717,0.0718,-0.0266,9.7811,0.4743,0.9806,0.0828
2545,943,836,34.391,31.705,-0.06,-0.0264,9.8104,0.9178,-0.2151,0.7033
2550,937,844,34.367,31.633,0.0297,0.0461,9.8848,-0.0275,-0.438,-0.1011
2555,923,838,34.369,31.661,-0.0285,-0.1251,9.811,1.1734,0.8315,-0.3613
2560,907,843,34.432,31.631,-0.0082,-0.0844,9.9034,0.7686,-0.5784,0.1913
2565,925,830,34.415,31.593,0.0072,-0.0543,9.8049,0.0253,-0.3739,0.1269
2570,894,829,34.316,31.512,-0.0506,0.0466,9.8629,-0.2077,0.2914,-1.0558
2575,902,834,34.308,31.694,0.0616,0.0452,9.8583,-0.5591,0.4743,0.0136
2580,895,836,34.311,31.768,0.0427,-0.0941,9.7745,-0.1068,0.5394,-0.597
2585,887,829,34.38,31.668,0.0007,0.024,9.829,-0.4141,-0.5709,0.192
2590,868,829,34.423,31.663,0.0192,0.005,9.7886,-0.3021,0.3947,-0.0561
2595,870,829,34.391,31.692,-0.019,-0.1055,9.7327,-0.2163,0.217,0.6212
2600,858,828,34.372,31.655,-0.091,-0.0944,9.8654,0.4632,0.2424,-0.0057
2605,848,829,34.357,31.715,-0.0225,-0.0102,9.8073,0.2087,0.5864,-0.4421
2610,849,827,34.337,31.672,-0.0303,-0.0106,9.751,-1.1177,0.0601,0.0039
2615,839,828,34.311,31.713,-0.0578,-0.0037,9.7145,0.2098,0.4464,0.5248
2620,840,821,34.41,31.621,-0.0304,-0.0228,9.885,0.158,0.1149,-0.1849
2625,831,824,34.377,31.687,0.0033,0.0892,9.7825,-0.372,1.0765,0.0938
2630,811,826,34.375,31.634,0.0321,0.0374,9.7725,0.458,-0.2902,-0.2921
2635,805,820,34.421,31.588,0.0278,-0.0504,9.8379,-0.3258,0.065,0.3548
2640,809,814,34.417,31.632,0.0173,0.0272,9.8044,0.1523,0.2023,-0.0275
2645,796,816,34.369,31.668,0.0246,-0.0294,9.8144,-0.2572,0.7335,0.0545
2650,792,819,34.312,31.604,0.009,0.0651,9.7855,0.2208,-0.4739,0.7956
2655,798,813,34.369,31.675,-0.0215,-0.0314,9.8116,-0.0063,0.8067,0.0199
2660,788,812,34.387,31.681,-0.0093,0.0348,9.834,-0.4816,-0.2414,0.4243
2665,770,808,34.353,31.628,0.0568,0.0713,9.7721,-0.0621,-0.5192,0.5261
2670,771,808,34.39,31.674,-0.0028,-0.0583,9.7959,-0.364,1.0452,-0.5711
2675,776,807,34.376,31.556,-0.0189,-0.0116,9.8244,-0.5649,-0.0159,0.0388
2680,764,804,34.375,31.594,-0.0208,-0.0545,9.7707,0.3826,-0.363,-0.1455
2685,750,800,34.324,31.636,-0.0371,0.0256,9.7809,0.9642,0.4054,-0.254
2690,748,800,34.462,31.662,-0.0688,0.0071,9.8022,-1.2866,0.7598,-0.5264
2695,757,799,34.371,31.677,0.0376,0.0583,9.8036,-0.1014,0.4816,-0.6942
2700,751,796,34.313,31.657,0.0108,-0.0474,9.8167,-0.3414,0.045,0.0932
2705,755,792,34.372,31.698,-0.0267,-0.0785,9.7549,0.1073,-0.0805,0.2218
2710,748,792,34.33,31.624,0.0134,0.0504,9.8167,0.7821,-0.1151,-1.4632
2715,751,789,34.351,31.599,-0.0329,-0.0881,9.8116,-0.3791,-0.6869,-0.3949
2720,748,783,34.34,31.652,-0.0163,0.001,9.8588,0.2965,-0.4925,0.4125
2725,745,786,34.371,31.658,0.0607,0.045,9.7789,-0.7884,0.0732,-0.1126
2730,746,774,34.351,31.745,0.0048,0.0695,9.8467,-0.3356,0.18,0.4626
2735,749,773,34.187,31.624,0.0048,0.0091,9.8286,-0.119,-0.4316,0.6093
2740,747,776,34.418,31.658,-0.0413,0.0083,9.8063,1.1582,-0.032,0.6807
2745,749,770,34.314,31.651,-0.0402,-0.0095,9.7336,-0.1228,0.2018,-0.3338
2750,742,775,34.455,31.595,0.028,0.0876,9.8381,0.2286,-0.1062,0.048
2755,755,767,34.332,31.652,0.0117,-0.0033,9.8314,0.0764,-0.3065,0.1084
2760,759,761,34.38,31.589,-0.0057,0.039,9.7816,-0.41,-0.0843,-0.3317
2765,764,760,34.302,31.647,-0.0972,0.0328,9.738,0.6004,0.0693,0.6072
2770,757,752,34.387,31.624,0.0184,0.0594,9.9024,0.2982,0.221,0.2986
2775,771,751,34.396,31.67,-0.1184,-0.0236,9.8056,0.6961,0.4075,0.24
2780,771,742,34.401,31.709,0.0917,0.0707,9.8702,-0.2778,-1.2218,-0.6517
2785,771,747,34.369,31.664,-0.0056,0.0245,9.7973,-1.2978,0.0482,0.169
2790,778,746,34.463,31.7,-0.0314,0.0426,9.8971,-0.5335,0.4505,0.3694
2795,795,739,34.323,31.703,0.013,-0.0182,9.6924,-0.116,-0.3305,-0.5997
2800,794,732,34.399,31.759,0.129,-0.0055,9.7811,-0.9888,-0.1689,-0.4446
2805,806,732,34.313,31.692,-0.0483,0.0122,9.8447,1.168,-0.5572,0.4478
2810,813,734,34.414,31.544,0.0362,-0.0493,9.8313,-0.341,0.0054,-0.4463
2815,811,728,34.339,31.651,-0.0048,-0.043,9.7589,-0.5817,0.4039,0.167
2820,822,726,34.373,31.554,-0.007,0.0422,9.695,-0.0322,-0.7468,-0.0775
2825,822,716,34.394,31.718,-0.0106,0.0164,9.8307,-1.3266,-0.2229,-0.5688
2830,832,723,34.359,31.643,0.0029,-0.0584,9.8493,-0.2332,-0.5423,-0.0024
2835,855,719,34.427,31.649,0.0068,0.0354,9.8291,-0.3601,-0.0593,-0.1966
2840,847,718,34.399,31.612,0.0201,0.0345,9.7817,0.0269,0.5444,-0.6575
2845,854,710,34.383,31.697,0.0421,-0.1001,9.8599,0.9458,0.4705,0.8465
2850,876,706,34.335,31.659,0.0338,-0.0387,9.8493,-0.5067,-0.414,-0.2118
2855,873,706,34.374,31.66,-0.0448,-0.0802,9.8251,-0.2127,1.1613,0.7874
2860,887,709,34.364,31.722,0.0081,0.0018,9.7626,0.2094,-0.1414,-0.368
2865,909,704,34.366,31.629,-0.0194,-0.0204,9.8394,-0.3863,-0.6456,-0.3586
2870,907,704,34.358,31.641,-0.0072,-0.0679,9.7849,-0.0629,0.5225,0.6284
2875,925,700,34.397,31.646,0.0349,0.0115,9.8281,-0.0494,0.9633,-0.067
2880,916,692,34.398,31.681,-0.0688,0.0344,9.8278,-0.4407,-0.3234,0.5022
2885,933,701,34.332,31.687,-0.0172,0.02,9.7518,-0.1248,-0.1064,-0.4982
2890,949,697,34.306,31.73,-0.0248,0.003,9.801,-0.0031,-0.0231,0.7474
2895,956,695,34.331,31.632,-0.0001,0.073,9.8267,0.3124,-0.3316,-0.0103
2900,963,691,34.32,31.716,-0.0704,-0.0311,9.7634,0.7417,-0.1271,-0.6461
2905,976,693,34.358,31.692,0.0182,0.0837,9.8992,-1.1785,0.2271,-0.2431
2910,994,692,34.348,31.68,0.0054,0.008,9.735,0.3127,-0.5307,0.9131
2915,999,690,34.341,31.716,-0.025,0.0474,9.846,-0.3959,-0.0113,-0.4447
2920,1015,695,34.384,31.68,0.0392,-0.0189,9.8432,1.0522,-0.9031,0.035
2925,1015,692,34.375,31.591,0.0108,-0.0012,9.8538,-0.9599,-0.2135,0.4286
2930,1022,699,34.395,31.653,-0.0213,-0.0614,9.7722,-0.4331,0.0928,0.0496
2935,1030,697,34.439,31.698,0.1128,0.0386,9.8104,0.1728,0.2228,0.456
2940,1039,693,34.338,31.683,0.0104,-0.0113,9.828,0.1946,0.2056,-0.1673
2945,1050,695,34.342,31.63,-0.0279,-0.0686,9.793,-0.1643,0.1328,0.3805
2950,1056,692,34.263,31.659,-0.0729,0.1325,9.7598,0.6081,-0.4663,0.203
2955,1067,695,34.366,31.692,0.0256,-0.0449,9.8332,-0.2883,0.0679,0.0818
2960,1076,704,34.3,31.663,0.0446,-0.0378,9.8414,0.0739,-0.344,-0.2152
2965,1091,698,34.407,31.654,0.068,-0.0262,9.9516,-0.4898,-0.4985,0.1319
2970,1091,700,34.381,31.619,-0.0278,-0.025,9.7567,1.4917,-0.7864,0.0903
2975,1103,702,34.406,31.688,-0.013,0.0234,9.8269,-0.0427,0.0243,0.6264
2980,1110,705,34.395,31.616,-0.0268,-0.0293,9.7674,-0.5007,-0.1269,0.0025
2985,1122,709,34.36,31.645,0.0041,0.0074,9.9119,-0.3619,0.1837,0.2595
2990,1116,709,34.408,31.648,-0.0198,0.0995,9.8361,-0.4382,0.0185,-1.2084
2995,1140,714,34.289,31.625,-0.0656,-0.0047,9.7913,0.118,0.0011,0.0018
3000,1138,718,34.327,31.634,-0.0478,0.1004,9.7531,-0.1471,-0.4192,0.5413
3005,1143,719,34.506,31.746,0.0471,-0.0223,9.7924,-0.2446,-0.8162,0.5295
3010,1148,723,34.33,31.635,0.0561,-0.0644,9.824,-0.3046,0.01,0.3518
3015,1157,726,34.388,31.603,0.0486,0.0252,9.8801,-0.7262,-0.1397,0.2741
3020,1151,725,34.287,31.649,-0.0527,-0.0805,9.8477,-0.5162,-0.3039,0.5324
3025,1163,727,34.403,31.608,-0.0642,0.025,9.7794,0.0552,-0.1126,0.2894
3030,1160,733,34.362,31.62,0.0276,0.0117,9.8844,0.4121,-0.5871,0.2111
3035,1167,737,34.4,31.662,0.0301,0.0099,9.7587,0.272,1.6501,0.0294
3040,1165,744,34.396,31.615,0.0641,0.0104,9.8959,0.9166,-0.0928,-0.4254
3045,1177,747,34.291,31.644,0.009,-0.0399,9.7505,0.561,0.0292,0.4929
3050,1172,744,34.432,31.54,0.0711,0.054,9.8121,0.3784,0.0268,-0.5356
3055,1182,753,34.334,31.711,-0.0242,0.0721,9.8388,0.3752,0.1484,-0.224
3060,1193,754,34.333,31.642,-0.0164,-0.0155,9.8012,0.6247,-0.5119,-0.1248
3065,1183,761,34.404,31.606,0.0849,0.1078,9.8348,0.4739,-0.9501,-0.2508
3070,1180,768,34.381,31.652,0.0293,-0.0311,9.7409,0.228,-0.7807,0.3524
3075,1188,765,34.264,31.697,0.0135,-0.0501,9.7625,0.5915,-0.1249,0.6869
3080,1184,771,34.411,31.674,0.0061,-0.0235,9.7787,0.3925,0.5931,-0.7328
3085,1181,775,34.233,31.762,0.0681,-0.05,9.8175,1.2681,0.1291,0.9293
3090,1184,783,34.322,31.612,0.016,0.017,9.8016,0.0533,-0.2449,0.6785
3095,1193,786,34.414,31.667,0.0365,-0.0865,9.8839,-0.5667,-0.257,-0.0164
3100,1184,795,34.425,31.655,-0.0654,0.0414,9.7228,0.2943,0.3562,-0.7708
3105,1179,798,34.345,31.658,-0.0845,0.036,9.8822,-0.3845,-0.574,0.1192
3110,1190,802,34.281,31.664,0.016,-0.0306,9.7355,-0.3167,0.124,-0.8738
3115,1176,807,34.295,31.675,-0.0206,-0.0328,9.7478,-0.3777,-0.1735,1.2838
3120,1183,808,34.417,31.69,0.0643,0.0617,9.8331,0.1108,0.7262,1.0854
3125,1174,820,34.338,31.628,-0.0374,-0.0191,9.8772,-0.5212,-0.317,-0.2132
3130,1189,814,34.316,31.708,0.0138,-0.0774,9.7893,-0.2159,-0.2871,-0.5259
3135,1178,816,34.362,31.64,0.0189,-0.0528,9.8444,0.4135,0.6648,-0.7391
3140,1179,825,34.311,31.667,-0.0397,0.0045,9.8621,0.1188,-0.2505,-0.212
3145,1181,828,34.275,31.684,0.0194,0.0194,9.8043,-0.2361,0.3769,0.656
3150,1175,833,34.364,31.67,0.0399,0.0522,9.8188,-0.2406,0.3694,0.5564
3155,1177,829,34.353,31.614,0.0024,0.0167,9.7799,-0.4729,-0.2702,-0.4569
3160,1173,838,34.354,31.694,-0.0539,0.053,9.8109,0.9322,-0.024,-0.8061
3165,1170,845,34.301,31.768,0.0465,-0.0362,9.7907,-0.0735,0.7692,0.0152
3170,1160,841,34.344,31.676,0.0018,-0.0251,9.7681,0.0484,-0.2377,0.118
3175,1167,847,34.311,31.605,0.0377,0.0741,9.8429,0.5096,0.0161,0.0964
3180,1160,850,34.427,31.649,0.0467,0.1129,9.7571,-0.3814,-0.1545,0.1944
3185,1160,854,34.48,31.648,0.0154,0.033,9.8668,0.3463,-0.0491,-0.1874
3190,1152,850,34.39,31.75,0.0245,0.0034,9.7511,0.4095,0.0893,-0.0526
3195,1148,859,34.425,31.676,-0.0137,-0.1099,9.8112,0.3963,0.802,0.7996
3200,1153,857,34.352,31.663,-0.0004,-0.0944,9.7469,0.5685,0.0369,-0.942
3205,1144,859,34.395,31.663,-0.0478,-0.0151,9.8314,-0.1257,-1.0895,-0.1122
3210,1149,864,34.365,31.637,-0.0157,0.0334,9.7781,1.2414,-0.1733,-0.3636
3215,1145,867,34.354,31.68,0.0187,-0.0287,9.7794,-0.0797,0.0946,-0.6167
3220,1135,867,34.351,31.695,-0.0018,0.0036,9.8006,-0.609,0.1693,0.4432
3225,1135,872,34.343,31.618,0.038,0.0005,9.8248,-0.0441,-0.1565,0.4196
3230,1132,871,34.343,31.647,0.0632,-0.0801,9.9139,0.5087,0.7648,-0.2062
3235,1136,871,34.285,31.684,0.0086,0.0252,9.8014,-0.2469,0.4735,0.6511
3240,1126,877,34.375,31.712,-0.0104,-0.0342,9.8104,0.1575,0.074,0.03
3245,1130,879,34.365,31.687,0.0695,0.0519,9.8045,0.3165,-0.0372,0.6503
3250,1124,874,34.391,31.716,-0.0092,0.0195,9.8196,0.1031,1.1255,-0.4409
3255,1117,876,34.4,31.723,0.0014,-0.0634,9.895,-0.3982,-0.0209,0.4243
3260,1116,874,34.393,31.708,0.022,-0.0476,9.77,0.4429,-0.244,0.4681
3265,1120,881,34.354,31.593,-0.0479,0.0462,9.8198,-0.1524,-0.0782,-0.2479
3270,1122,881,34.404,31.717,0.0476,-0.0053,9.7767,-0.4361,0.5492,-0.0577
3275,1111,878,34.41,31.666,0.0911,0.0536,9.8597,0.0083,-0.1815,0.4913
3280,1108,881,34.385,31.701,0.0717,0.0024,9.8182,-0.3202,0.2853,0.1459
3285,1107,879,34.439,31.578,0.0474,0.1091,9.8415,-0.4259,-0.1607,-0.6231
3290,1106,884,34.425,31.687,0.0203,-0.0221,9.9169,0.1041,-0.4488,-0.8971
3295,1095,879,34.437,31.674,0.0243,0.0292,9.812,-0.9232,0.3054,0.385
3300,1095,884,34.378,31.644,-0.029,0.0215,9.7827,-0.2646,0.1102,0.2776
3305,1099,877,34.33,31.618,-0.1116,-0.1087,9.7609,-0.1314,-0.2808,0.0071
3310,1100,881,34.411,31.746,-0.0735,0.0226,9.7562,0.1662,-0.1025,0.1855
3315,1087,872,34.322,31.638,0.0142,-0.0659,9.9079,-0.6382,-0.3704,0.6301
3320,1089,881,34.31,31.651,0.0075,0.0229,9.8101,-0.3355,1.3553,0.403
3325,1091,880,34.41,31.648,0.0392,-0.0111,9.7938,-0.2151,-0.0769,-0.4291
3330,1096,876,34.352,31.705,0.0254,0.0063,9.744,-0.136,-0.4596,0.4671
3335,1103,870,34.382,31.618,-0.0577,0.0934,9.846,0.2313,-0.3385,-0.2001
3340,1083,875,34.343,31.518,0.0461,-0.0162,9.7601,0.5581,-0.1981,-0.1515
3345,1094,875,34.439,31.717,-0.0605,0.0266,9.8035,-0.2244,-0.086,0.7839
3350,1087,869,34.35,31.59,-0.0291,-0.0247,9.8386,-0.4471,-0.4908,-0.0359
3355,1076,868,34.346,31.705,0.0221,-0.0012,9.766,0.3021,-0.9076,-0.3788
3360,1077,868,34.398,31.669,-0.0076,-0.0322,9.8409,-0.1348,0.4349,-0.1351
3365,1075,867,34.376,31.63,-0.0267,0.003,9.8307,-0.4681,0.2951,-0.3538
3370,1073,873,34.381,31.623,-0.0252,-0.0307,9.8325,0.5226,0.0868,-0.3138
3375,1076,875,34.304,31.725,-0.0093,-0.0529,9.8978,0.5802,-0.4318,0.6751
3380,1069,865,34.376,31.662,-0.0231,-0.0221,9.8314,-0.8917,-0.2764,-1.2254
3385,1072,864,34.338,31.687,0.0042,0.0,9.7522,-0.4698,-0.9426,0.2426
3390,1062,864,34.249,31.62,0.019,-0.066,9.8834,0.5459,0.907,-0.3354
3395,1072,861,34.255,31.624,0.0065,0.0007,9.843,0.8032,-0.4392,0.2992
3400,1071,860,34.345,31.632,-0.0413,0.0465,9.7424,-0.2736,-0.1476,0.356
3405,1058,863,34.246,31.665,-0.0175,0.0322,9.8026,-0.7873,0.346,0.1429
3410,1056,856,34.346,31.71,0.0507,0.0002,9.8501,1.3669,-0.4365,0.0493
3415,1053,855,34.362,31.663,0.025,-0.0273,9.7663,-0.7098,0.271,-0.6904
3420,1037,852,34.294,31.617,0.0142,0.0086,9.7441,-0.0149,0.5061,-0.2191
3425,1044,851,34.313,31.628,0.0294,0.0165,9.785,1.0049,0.7476,-0.5916
3430,1050,851,34.405,31.585,-0.0328,0.058,9.7584,0.8808,0.5071,0.1482
3435,1041,858,34.404,31.671,-0.0578,0.0376,9.8818,-0.4838,0.8577,0.2802
3440,1033,852,34.39,31.672,-0.045,0.0805,9.7491,0.0566,0.6569,0.7608
3445,1026,856,34.325,31.689,-0.0181,0.0413,9.8477,-0.0048,1.4472,0.3404
3450,1021,849,34.432,31.68,0.0749,-0.0096,9.7875,0.3231,0.3876,-1.0365
3455,1018,850,34.353,31.675,0.0155,-0.0184,9.7723,-0.0038,1.0705,0.1442
3460,1010,847,34.374,31.654,-0.0262,0.0357,9.8792,-0.2793,0.4676,0.1092
3465,1006,850,34.281,31.623,0.0426,0.0432,9.7818,-0.3252,0.4832,-0.2389
3470,1010,852,34.288,31.635,0.0226,0.051,9.8589,0.0028,-0.3152,0.523
3475,1006,847,34.452,31.617,0.0365,0.0228,9.8141,-0.6207,0.1411,0.9819
3480,1002,846,34.289,31.641,-0.1165,0.0915,9.8026,-0.6493,-0.4202,0.4623
3485,993,838,34.36,31.632,0.0001,-0.0585,9.8259,-0.1369,0.1268,-0.5792
3490,981,845,34.404,31.656,0.0654,-0.0668,9.8369,-0.0473,-0.1743,1.1457
3495,987,846,34.373,31.638,-0.022,-0.0569,9.8559,-0.1738,0.4217,0.0903
3500,969,838,34.41,31.723,0.0001,0.0255,9.8532,-0.1902,-0.2566,0.3889
3505,962,839,34.438,31.656,0.0055,-0.091,9.837,0.3276,-0.5354,0.0134
3510,953,843,34.324,31.627,0.0004,0.0047,9.7791,0.1306,-0.6831,-0.6872
3515,955,837,34.278,31.621,0.0137,-0.0728,9.8351,-0.4644,0.2913,0.437
3520,956,842,34.299,31.694,0.0656,0.0396,9.7757,-0.2125,-0.4137,-0.7942
3525,937,838,34.411,31.635,0.0605,-0.0666,9.7474,-0.1233,0.5558,0.2305
3530,930,834,34.331,31.724,0.0206,0.0077,9.7601,0.8226,-1.0482,-0.4905
3535,923,836,34.495,31.641,-0.0419,-0.0909,9.8242,-0.0375,-0.3533,0.1534
3540,912,839,34.383,31.689,0.0022,-0.0023,9.7835,0.9759,-0.1109,0.5021
3545,903,831,34.454,31.684,-0.0599,0.0372,9.8461,0.5503,-0.2821,-0.2414
3550,895,834,34.323,31.621,-0.0283,0.0957,9.8082,0.453,-0.3357,0.6864
3555,888,835,34.411,31.637,-0.0247,0.058,9.8968,-0.8754,-0.0521,-0.7383
3560,885,833,34.304,31.721,-0.0044,0.0404,9.7919,0.2017,0.2292,-0.209
3565,883,830,34.291,31.625,-0.0353,0.0445,9.7931,-0.763,0.3454,0.2986
3570,868,828,34.415,31.603,-0.0562,-0.0393,9.7983,-0.093,0.5925,-0.0351
3575,874,830,34.482,31.639,-0.0564,-0.0035,9.9209,1.5166,-0.5788,-0.4886
3580,867,825,34.374,31.728,0.0553,0.0142,9.775,-0.2379,0.0286,-0.319
3585,846,822,34.394,31.657,0.0055,-0.1879,9.7663,-0.4829,0.5998,-0.4342
3590,850,829,34.344,31.672,-0.035,-0.0248,9.783,1.2722,-0.2278,0.5099
3595,847,827,34.404,31.725,-0.0357,0.0288,9.7559,-0.3363,-0.0049,-0.0531
3600,833,826,34.451,31.722,-0.0379,0.0068,9.8166,-0.1183,-0.2852,0.0126
3605,824,822,34.418,31.569,-0.0233,-0.0512,9.8474,0.037,0.5731,-0.2456
3610,825,821,34.321,31.711,0.0038,-0.0059,9.7896,-0.487,-0.8178,0.5604
3615,817,824,34.379,31.638,0.0457,-0.0444,9.886,0.3116,0.5076,-0.6854
3620,808,817,34.395,31.61,0.0778,-0.0893,9.7897,-0.2163,0.0251,0.5815
3625,802,817,34.444,31.683,0.0271,0.0313,9.8055,0.5603,0.6074,-0.5532
3630,792,811,34.448,31.735,0.0385,0.0023,9.7759,-0.0755,-0.4635,-0.0812
3635,795,809,34.381,31.658,0.0444,-0.0261,9.9331,-0.0114,0.3647,-0.4874
3640,783,809,34.342,31.62,0.0071,0.0614,9.8141,0.1492,-0.0047,0.0631
3645,774,810,34.33,31.619,0.0194,0.0099,9.7985,0.3172,0.1005,0.0297
3650,769,808,34.42,31.655,-0.0119,0.1038,9.8259,0.8432,-0.1634,-0.486
3655,769,807,34.396,31.708,-0.0981,0.0004,9.7983,0.5371,0.0422,-0.0067
3660,774,804,34.362,31.704,-0.0304,0.0084,9.8107,0.096,-0.287,-0.2435
3665,757,795,34.395,31.672,0.0054,-0.0304,9.7984,-0.2657,1.5444,0.0291
3670,766,804,34.356,31.627,-0.068,0.0117,9.7983,0.277,-0.6161,0.1131
3675,761,797,34.434,31.671,0.0406,-0.0328,9.7313,-0.304,-0.3442,-0.0227
3680,761,795,34.297,31.631,-0.0278,0.0443,9.9091,-0.802,0.2677,0.205
3685,749,795,34.412,31.673,0.0276,0.0075,9.7948,0.1787,-0.6121,0.0943
3690,745,789,34.358,31.667,-0.0824,0.0228,9.8488,0.4227,-0.0227,-0.1227
3695,753,788,34.343,31.559,-0.0357,0.0201,9.7698,0.1104,-1.0521,-0.4013
3700,742,780,34.413,31.664,0.0168,0.0729,9.8821,0.4757,0.1341,-0.3942
3705,751,781,34.346,31.719,0.1002,-0.0246,9.8119,-0.1175,-0.823,0.0359
3710,747,776,34.387,31.799,0.0121,0.0574,9.7772,-0.1469,0.5648,-1.3116
3715,750,779,34.372,31.615,0.0534,-0.1229,9.7591,0.4047,-0.4066,-0.4518
3720,748,771,34.402,31.684,-0.009,-0.0013,9.8541,0.2325,0.2274,0.0808
3725,750,771,34.39,31.606,0.0635,0.0155,9.8223,0.4276,0.4514,0.0836
3730,751,768,34.327,31.638,-0.0086,-0.056,9.7833,-0.6221,0.4108,-0.2354
3735,755,764,34.322,31.642,-0.058,-0.0295,9.8687,0.1881,-0.7698,0.4925
3740,758,761,34.348,31.608,0.0729,-0.1106,9.8404,0.0646,-0.144,-0.2667
3745,768,758,34.33,31.638,0.0097,0.0484,9.8407,0.125,-0.057,0.3928
3750,765,760,34.334,31.598,-0.0024,-0.0672,9.7717,0.2315,-0.3343,0.1432
3755,772,750,34.315,31.706,0.043,-0.0131,9.8388,-0.1139,-0.0551,0.4616
3760,770,747,34.413,31.7,-0.0237,-0.027,9.7874,0.2496,-0.7701,-0.0254
3765,770,744,34.328,31.743,-0.0044,0.0158,9.8894,0.409,-0.9613,0.0817
3770,784,745,34.407,31.693,0.0527,-0.0752,9.7549,0.0743,-0.2549,0.8423
3775,781,740,34.363,31.634,0.0101,0.0406,9.7633,-0.2371,0.3817,-0.3258
3780,796,742,34.369,31.58,0.0106,0.0085,9.7959,0.0931,0.298,-1.0444
3785,806,734,34.363,31.681,-0.0376,0.0008,9.7965,-0.3646,0.047,0.3676
3790,816,729,34.395,31.609,0.0373,-0.0647,9.8248,-0.5481,-0.0695,-0.2969
3795,812,719,34.392,31.616,-0.0474,-0.007,9.9149,0.4684,0.553,-1.0451
3800,818,722,34.378,31.624,0.0474,0.0988,9.8581,0.5955,-0.0573,0.0873
3805,823,726,34.423,31.638,-0.0203,-0.0248,9.8216,0.7422,-0.1285,-0.5165
3810,832,727,34.26,31.682,-0.075,-0.0348,9.8282,0.4437,0.4752,0.8367
3815,837,718,34.386,31.593,0.1065,-0.1203,9.8817,-0.1006,-0.347,0.1933
3820,861,714,34.4,31.708,0.0575,0.0016,9.7568,-0.3782,0.0119,-0.8317
3825,860,708,34.335,31.639,0.0123,-0.0231,9.8086,0.1755,0.5793,-1.5331
3830,867,718,34.383,31.653,0.0214,0.0245,9.8419,-0.7065,0.459,0.2475
3835,886,702,34.386,31.694,0.0588,-0.0139,9.8563,0.2505,-0.2293,0.117
3840,889,704,34.329,31.673,0.0306,-0.0096,9.7767,0.2136,0.7623,-0.751
3845,895,708,34.357,31.669,0.0693,-0.0711,9.8771,0.182,-0.5718,0.1185
3850,910,704,34.374,31.713,-0.0093,0.1167,9.8312,0.384,-0.2184,-0.4155
3855,911,702,34.441,31.674,-0.0308,0.0008,9.7238,-1.4318,0.5361,0.8184
3860,931,696,34.439,31.697,0.0287,-0.0423,9.854,0.232,-0.5127,0.2051
3865,936,695,34.334,31.684,0.0327,0.0097,9.7629,0.8886,0.3585,0.3918
3870,951,695,34.381,31.69,-0.0783,0.0149,9.7677,-0.8268,-0.7956,-0.5139
3875,952,696,34.405,31.724,0.0323,-0.0457,9.7779,0.9868,0.7314,-0.7246
3880,972,697,34.364,31.725,-0.0551,0.0743,9.9281,-0.1515,-0.0384,0.4667
3885,982,694,34.35,31.606,-0.0297,-0.0029,9.7885,-0.0058,-1.0086,0.7531
3890,984,694,34.402,31.73,-0.0807,0.1025,9.8465,0.0721,0.4009,0.053
3895,993,689,34.442,31.615,0.0362,-0.0114,9.8694,-0.5045,-0.1034,0.3407
3900,1004,692,34.307,31.794,0.0142,0.0203,9.8843,-0.1357,0.6965,0.3596
3905,1013,693,34.392,31.63,0.0606,-0.0223,9.691,-0.4523,0.4326,0.275
3910,1025,697,34.41,31.757,0.002,0.0459,9.8866,-0.4024,0.3386,-0.0826
3915,1038,695,34.479,31.632,-0.0327,-0.0632,9.7792,0.4564,-0.2622,0.3111
3920,1038,691,34.371,31.631,0.062,-0.0696,9.8059,-0.4237,-0.4158,0.7521
3925,1055,690,34.381,31.691,-0.0272,-0.0371,9.8272,0.4315,0.0523,0.4955
3930,1068,697,34.39,31.718,-0.0698,-0.0188,9.8345,-0.0221,0.0886,0.2509
3935,1068,699,34.447,31.599,0.0213,0.0222,9.8109,0.3087,-0.3574,0.0055
3940,1077,695,34.423,31.578,-0.0349,-0.0219,9.7943,-0.0851,-0.5542,-0.501
3945,1087,704,34.36,31.582,-0.0458,-0.054,9.7629,-0.3507,0.1634,0.0104
3950,1093,703,34.241,31.643,0.0088,-0.0283,9.738,-0.2531,-0.6675,-0.1318
3955,1105,702,34.34,31.68,-0.0396,0.0768,9.7675,1.8088,0.2347,0.2204
3960,1102,709,34.293,31.659,-0.0379,-0.0066,9.7028,-0.092,-0.8949,1.4238
3965,1111,701,34.42,31.671,0.103,-0.0164,9.9165,1.0935,-0.1953,-0.3399
3970,1129,710,34.361,31.65,0.0101,-0.0456,9.7617,-0.0485,-0.2597,0.3249
3975,1123,711,34.395,31.7,0.0009,-0.0581,9.7556,0.6317,-0.755,0.5487
3980,1133,717,34.264,31.728,0.0017,0.0583,9.8053,0.3125,-0.5402,0.701
3985,1140,721,34.377,31.719,0.0248,0.0354,9.8835,-0.492,-0.0387,-0.2668
3990,1141,724,34.487,31.664,-0.0826,-0.0899,9.7507,-0.316,0.5136,-0.0747
3995,1164,722,34.4,31.731,-0.1429,-0.0447,9.7411,-0.2115,0.1509,0.1379
4000,1157,733,34.378,31.691,-0.0132,-0.0504,9.7165,0.4776,0.7694,-0.3931
4005,1162,731,34.381,31.601,-0.0572,-0.0629,9.8613,0.4097,-0.0874,-0.166
4010,1161,736,34.319,31.659,-0.0017,-0.0046,9.7812,-0.3546,-0.6666,0.0449
4014,1164,742,34.312,31.676,-0.0363,-0.0279,9.7582,-0.0263,-0.7287,-0.8494
4019,1171,742,34.467,31.65,0.0924,-0.0483,9.8281,0.5878,0.3996,0.0245
4025,1177,748,34.446,31.644,0.0031,-0.0215,9.8288,0.1928,0.5254,-0.1998
4030,1177,747,34.449,31.61,0.0181,0.0327,9.8452,-0.5621,0.9291,-0.3388
4035,1180,753,34.397,31.722,0.1027,0.0156,9.7146,-0.8355,0.0505,-0.0186
4040,1183,758,34.33,31.635,0.0629,0.0241,9.8951,-0.3507,0.2857,-0.4891
4045,1181,763,34.297,31.687,0.0902,-0.0236,9.8147,-0.5448,0.3679,0.2884
4050,1180,761,34.363,31.695,-0.0224,-0.0619,9.8159,-0.3825,0.559,0.552
4054,1180,771,34.324,31.684,-0.0655,-0.1063,9.8027,-0.2576,0.5461,-0.3363
4059,1190,772,34.336,31.619,-0.0646,0.0727,9.8129,-0.6086,0.735,0.8824
4065,1186,777,34.274,31.638,-0.0179,-0.0795,9.8187,0.1636,0.6868,0.5463
4070,1187,780,34.347,31.697,0.076,0.0259,9.8169,0.0446,-0.027,-0.5453
4075,1194,793,34.342,31.667,0.0578,0.0401,9.824,0.45,0.3675,-0.1137
4080,1191,790,34.368,31.56,0.0365,-0.0037,9.7797,-0.2992,-1.0261,-0.7423
4085,1189,792,34.348,31.698,-0.027,-0.0543,9.8348,0.3436,0.4847,0.4926
4090,1191,801,34.454,31.691,0.0537,-0.0938,9.8148,0.291,-0.0482,-0.9474
4094,1186,803,34.432,31.609,-0.0136,-0.0345,9.911,0.0591,-0.6293,-0.0148
4100,1190,807,34.399,31.691,-0.0318,0.0555,9.8315,0.5557,1.9199,0.0843
4105,1182,810,34.36,31.694,-0.0556,-0.0184,9.7992,-0.2275,-0.6285,0.2063
4110,1177,811,34.272,31.75,0.0778,-0.0828,9.8449,-1.0817,-0.2005,-0.2466
4115,1186,821,34.396,31.657,0.0313,-0.0002,9.8548,0.0483,-0.272,0.459
4120,1179,817,34.331,31.68,-0.0963,0.1066,9.7281,0.9241,0.5964,0.4686
4125,1185,825,34.345,31.733,-0.0231,-0.026,9.7337,-0.2507,0.5304,-0.882
4130,1172,828,34.394,31.615,0.0027,-0.0316,9.7901,0.106,-0.3507,0.4658
4135,1166,829,34.294,31.656,0.0886,-0.0808,9.8178,0.2194,-0.5444,-0.0623
4140,1172,840,34.445,31.644,-0.0163,-0.1159,9.8156,-0.092,0.1385,0.1802
4145,1164,843,34.356,31.557,0.0077,-0.012,9.8579,-0.5296,-0.5641,0.6066
4150,1165,843,34.398,31.625,-0.0299,0.0051,9.8155,-0.3374,1.3872,-0.4717
4155,1161,846,34.436,31.692,0.0305,-0.0474,9.7279,0.4216,-0.1192,-0.1561
4160,1163,849,34.412,31.741,-0.0422,-0.0649,9.7463,-0.3184,-0.9545,-0.3171
4165,1155,853,34.434,31.742,-0.0049,-0.0146,9.7964,0.353,0.2985,0.1929
4170,1143,853,34.318,31.656,-0.0718,0.1055,9.7204,0.3045,1.1981,0.4282
4175,1147,862,34.339,31.763,-0.0689,0.0116,9.8363,-0.389,0.4664,0.3073
4180,1149,862,34.388,31.652,0.0077,-0.0547,9.7691,-0.2249,-0.0716,-0.131
4185,1142,868,34.399,31.69,0.0449,-0.0407,9.7787,-0.5745,-0.483,0.3347
4190,1140,867,34.279,31.673,-0.0218,-0.0135,9.815,-0.8277,0.4762,-0.1599
4195,1142,868,34.397,31.704,-0.0085,0.0215,9.812,-0.195,0.7095,0.1393
4200,1128,867,34.434,31.645,-0.0086,-0.0176,9.8329,0.7462,0.0959,-0.097
4205,1137,870,34.342,31.598,-0.0145,0.0204,9.7534,-0.3958,0.0313,0.2398
4210,1136,869,34.332,31.661,0.0124,0.0387,9.7913,-0.9504,-0.2247,-0.5876
4215,1134,873,34.372,31.609,-0.0348,-0.0024,9.7816,-0.3793,-0.3273,0.4495
4220,1125,872,34.318,31.715,-0.047,0.0378,9.8247,-0.0067,-0.4228,0.6265
4225,1130,874,34.399,31.604,0.074,0.0138,9.833,-0.1836,0.4968,0.059
4230,1128,874,34.331,31.646,-0.0391,-0.0767,9.7759,-0.198,-0.0072,-0.3506
4235,1120,876,34.303,31.621,-0.0229,-0.0556,9.8581,0.2795,-0.7099,1.1322
4240,1112,878,34.409,31.746,0.0515,0.0294,9.7645,-1.607,-0.3759,0.3347
4245,1122,882,34.369,31.684,0.0153,0.0025,9.8593,-0.1407,-0.3595,-0.3943
4250,1114,879,34.435,31.721,0.0262,0.0209,9.7822,0.8067,-0.3469,0.2295
4255,1108,881,34.354,31.675,-0.0002,-0.0636,9.782,0.1121,-0.3413,0.2476
4260,1110,879,34.334,31.625,0.0993,-0.0236,9.7436,-0.1875,-0.6408,0.3389
4265,1100,881,34.405,31.639,0.0647,0.0687,9.7234,0.4139,0.4117,0.4912
4270,1108,883,34.418,31.638,-0.0123,-0.0115,9.8842,-0.3478,0.2213,0.3726
4275,1103,874,34.355,31.647,0.0543,-0.0241,9.7739,0.3663,-0.83,0.1012
4280,1095,879,34.394,31.731,-0.0282,0.0303,9.7944,0.34,0.2812,1.0728
4285,1092,878,34.414,31.678,-0.0109,0.0053,9.8176,0.3458,-0.3892,0.7905
4290,1098,881,34.392,31.659,0.0558,0.1025,9.8676,0.3875,-0.1733,-0.996
4295,1101,882,34.432,31.689,-0.04,0.0711,9.8537,0.0849,-0.6188,0.0151
4300,1096,874,34.377,31.682,0.0427,-0.0307,9.7754,0.1404,0.761,0.2872
4305,1095,876,34.401,31.771,0.0626,-0.0766,9.8312,-0.3754,0.3036,0.9952
4310,1100,877,34.342,31.67,0.0056,-0.0384,9.8331,-0.2899,0.455,0.144
4315,1093,880,34.383,31.687,0.0028,0.0194,9.7821,-0.397,-0.0176,-0.4233
4320,1090,876,34.399,31.668,0.0142,0.0052,9.8441,-0.2398,1.0169,0.0934
4325,1082,873,34.336,31.704,-0.0491,0.0013,9.6413,-0.1008,-1.0163,-0.3254
4330,1082,875,34.42,31.6,0.0663,-0.0813,9.7712,0.0925,-0.5267,-0.1985
4335,1081,875,34.361,31.61,0.0432,-0.0368,9.8034,0.0389,0.0516,0.2369
4340,1081,869,34.398,31.654,0.0192,-0.0681,9.8201,0.1931,-1.0303,-0.4029
4345,1078,873,34.354,31.717,0.0331,-0.0531,9.8879,0.894,0.026,0.0053
4350,1083,866,34.448,31.609,-0.0343,-0.031,9.847,-0.4748,0.2219,-0.3103
4355,1081,865,34.4,31.675,-0.0321,-0.0893,9.7984,-0.3565,-0.0591,-0.241
4360,1076,872,34.283,31.661,0.0122,-0.0363,9.7944,0.365,0.2703,-0.0101
4365,1076,863,34.416,31.68,-0.042,-0.0188,9.7915,-0.5137,0.1773,-0.1092
4370,1070,864,34.338,31.64,-0.0194,0.0072,9.7522,1.0181,0.8172,0.2254
4375,1066,865,34.392,31.684,-0.037,-0.0333,9.7945,1.8295,-0.1668,-0.485
4380,1053,864,34.299,31.72,0.0839,-0.0454,9.7348,0.2957,-0.373,-0.1056
4385,1054,860,34.334,31.665,0.052,0.0239,9.8414,0.104,0.1676,0.1944
4390,1056,860,34.309,31.649,0.0384,-0.0322,9.8828,-0.263,-0.0691,0.4134
4395,1056,863,34.319,31.656,0.0293,0.0049,9.8256,-0.2255,0.1809,0.5624
4400,1048,855,34.475,31.736,0.0082,0.047,9.8191,-0.5666,-1.0391,-0.1449
4405,1047,857,34.331,31.659,0.0249,0.0362,9.8189,-0.3964,0.2666,0.1394
4410,1041,854,34.312,31.706,-0.042,0.0938,9.849,0.1819,0.1135,0.0522
4415,1036,853,34.299,31.679,-0.0096,-0.0448,9.818,0.0001,-0.1347,-0.3193
4420,1024,852,34.411,31.663,0.0035,-0.0018,9.7884,-0.7526,0.0201,-0.3776
4425,1029,851,34.259,31.722,-0.0381,-0.0139,9.827,0.9467,-0.0268,0.7457
4430,1033,852,34.346,31.716,-0.042,0.0479,9.8511,-0.2045,-0.6176,-0.2478
4435,1015,852,34.346,31.654,-0.0221,0.0129,9.7866,-0.2984,0.4013,-0.3991
4440,1011,853,34.506,31.678,-0.0321,0.0552,9.8092,0.1544,-1.0491,-0.7853
4445,1013,842,34.354,31.664,-0.0367,0.0856,9.8958,-0.4132,-0.262,-0.2117
4450,1012,846,34.355,31.638,0.1111,0.0388,9.8059,-0.3037,-0.2121,-0.1618
4455,998,843,34.396,31.691,-0.0832,-0.1164,9.8331,-0.8529,-0.5951,-0.4642
4460,998,843,34.352,31.717,0.0703,-0.0292,9.792,-0.77,0.5178,0.5499
4465,996,843,34.402,31.678,-0.0191,-0.0667,9.7935,-0.1203,-0.316,0.8358
4470,976,839,34.351,31.707,0.0346,-0.0003,9.8301,-0.6493,0.9934,-0.9179
4475,982,840,34.42,31.703,-0.0547,0.0342,9.7668,-1.076,-0.0732,0.6049
4480,971,840,34.398,31.759,0.0138,-0.1571,9.7516,-0.8406,0.0374,0.077
4485,968,837,34.334,31.66,-0.0017,0.0011,9.8721,0.3591,0.2969,-0.2615
4490,962,837,34.393,31.659,-0.0049,-0.0526,9.7207,0.5602,0.5634,-0.0174
4495,957,845,34.396,31.63,-0.0584,0.0526,9.6869,1.2121,0.3587,0.8597
4500,950,845,34.421,31.707,0.0366,-0.0172,9.7887,0.0814,-0.6925,-0.3967
4505,939,841,34.399,31.605,-0.0084,0.0429,9.803,0.5253,-0.2281,0.5217
4510,929,836,34.419,31.693,0.0284,0.0152,9.8352,0.2101,0.7748,0.2703
4515,934,841,34.339,31.647,-0.0483,-0.0113,9.8193,-0.1416,0.0683,-0.0481
4520,919,834,34.496,31.655,0.0453,0.0392,9.869,-0.5554,0.3333,0.0929
4525,908,835,34.312,31.673,-0.0993,0.0564,9.8198,-0.6837,0.0733,0.1759
4530,901,830,34.392,31.551,-0.0709,0.0143,9.7561,0.4611,-0.8438,-0.0038
4535,896,833,34.401,31.783,-0.0891,0.0299,9.7687,0.265,0.071,0.6178
4540,886,830,34.383,31.697,-0.0303,0.001,9.7963,-0.3372,-0.153,0.0039
4545,871,830,34.344,31.624,0.0436,-0.0022,9.7477,-0.2272,-1.043,0.3184
4550,871,829,34.385,31.632,0.0298,-0.0409,9.8015,-0.2551,0.124,0.2132
4555,858,830,34.422,31.675,-0.0053,-0.0146,9.7676,-0.3784,0.4881,-0.3437
4560,856,832,34.372,31.706,0.0299,0.0575,9.8074,-0.4494,0.653,-0.4587
4565,854,832,34.437,31.678,0.0142,0.0079,9.8244,-0.2851,0.6674,0.0348
4570,845,828,34.423,31.599,-0.0077,-0.0585,9.8435,0.8048,0.4065,-0.3293
4575,839,825,34.326,31.717,0.0192,0.0376,9.8155,0.5749,-0.5172,0.2418
4580,830,825,34.409,31.656,-0.0259,-0.0227,9.818,-0.6242,0.0453,-0.3945
4585,830,825,34.347,31.636,-0.0248,-0.0985,9.7931,0.5893,0.326,-1.07
4590,826,825,34.332,31.71,-0.0485,0.0179,9.851,0.9338,0.6184,-0.1733
4595,814,817,34.359,31.653,0.0644,-0.0757,9.9386,0.5164,-0.2798,-0.0469
4600,810,821,34.379,31.658,-0.0579,0.0184,9.7775,0.5649,0.7776,-0.4165
4605,793,816,34.284,31.623,-0.0004,-0.0795,9.7727,0.2054,-0.53,-0.5514
4610,797,821,34.419,31.633,-0.0209,0.016,9.8503,0.0441,0.2283,-0.8892
4615,780,816,34.397,31.652,0.015,0.0468,9.8733,-0.3582,0.1493,0.3161
4620,783,810,34.326,31.66,0.0082,-0.0041,9.8059,0.5383,-0.0419,-1.1375
4625,783,810,34.346,31.645,0.0577,-0.0866,9.7812,-0.4227,-0.0228,0.2888
4630,779,802,34.401,31.644,-0.0411,-0.0133,9.8021,-0.916,-0.1544,-0.3493
4635,767,810,34.359,31.714,0.019,0.0662,9.8429,1.0939,-0.2768,-1.4931
4640,760,802,34.352,31.643,-0.0339,-0.0775,9.8125,-0.2446,-0.2519,-0.0127
4645,757,804,34.402,31.611,-0.0337,-0.0467,9.7475,0.6893,-0.0559,0.9858
4650,772,795,34.42,31.604,0.0346,0.0427,9.7421,-0.1381,-0.8007,-0.4723
4655,758,801,34.391,31.648,-0.0788,0.0161,9.8063,0.0672,-0.9107,0.1414
4660,762,794,34.398,31.737,-0.0051,0.0478,9.777,-0.5731,0.0477,0.229
4665,757,790,34.364,31.676,-0.0176,-0.0079,9.8387,0.108,-0.5125,0.2265
4670,755,792,34.251,31.642,0.0447,-0.0144,9.8326,0.1352,0.7278,-0.0288
4675,751,788,34.464,31.72,0.0312,-0.0633,9.8467,-0.0173,-0.3196,-0.0934
4680,743,779,34.36,31.704,-0.0478,-0.0129,9.7966,0.3955,-0.4403,0.8809
4685,755,777,34.389,31.671,0.0029,-0.0867,9.8519,-0.9608,-0.0186,0.2294
4690,747,780,34.368,31.724,0.0816,-0.0139,9.9315,-0.0417,1.1012,0.264
4695,745,772,34.352,31.774,-0.0771,-0.0099,9.7586,1.296,-0.1653,-0.2603
4700,748,770,34.382,31.664,0.0599,-0.0967,9.9009,0.026,-0.3872,0.0726
4705,744,768,34.337,31.688,-0.0134,0.0841,9.7379,0.1415,0.2269,0.2187
4710,755,765,34.379,31.742,0.0687,0.007,9.7959,0.3983,-0.0258,-0.3839
4715,755,764,34.316,31.616,-0.0152,0.0456,9.7422,-0.1882,-0.1049,0.4465
4720,758,762,34.258,31.657,-0.0389,-0.0492,9.8535,-0.1736,-0.4578,0.8462
4725,757,757,34.376,31.607,0.0438,-0.0674,9.8434,0.0119,1.2638,-0.0175
4730,774,753,34.375,31.708,-0.0697,-0.0245,9.8406,0.1263,0.6063,-0.1352
4735,763,752,34.338,31.687,-0.0844,0.0228,9.7834,0.0167,0.9392,-0.0834
4740,769,744,34.423,31.743,0.0068,0.0634,9.8433,-0.9453,0.7453,0.9161
4745,774,747,34.333,31.766,-0.0041,-0.0553,9.8088,-0.4286,0.2019,0.8015
4750,782,745,34.377,31.7,-0.0312,0.1157,9.8801,0.3308,0.0793,0.337
4755,789,739,34.414,31.676,0.0776,-0.0556,9.7662,0.0584,-0.1577,-0.1406
4760,790,739,34.427,31.726,-0.062,-0.092,9.7199,-0.0272,0.6825,0.2802
4765,791,730,34.345,31.61,0.0675,0.0288,9.7712,0.832,0.223,0.0292
4770,804,730,34.371,31.65,-0.0145,-0.0322,9.8026,0.1579,1.005,0.1151
4775,819,732,34.386,31.7,-0.0653,-0.0349,9.8249,0.277,0.5003,-0.2944
4780,821,726,34.328,31.71,0.0272,-0.0099,9.7344,0.5241,0.5375,0.6213
4785,833,717,34.391,31.691,-0.0555,0.0268,9.8544,-0.6926,0.0735,-0.3203
4790,828,717,34.412,31.642,0.0012,-0.0892,9.8589,-0.3686,-0.9885,0.4703
4795,850,718,34.454,31.685,0.0039,0.0365,9.8277,-0.5142,0.0168,-0.7066
4800,850,715,34.381,31.567,-0.1235,0.1178,9.8092,0.0489,-0.5411,-0.2641
4805,873,710,34.371,31.747,0.042,0.0467,9.7938,-0.1322,-0.0447,-0.103
4810,869,713,34.319,31.55,-0.0642,0.0689,9.8791,0.5197,0.1964,0.7792
4815,883,711,34.385,31.704,-0.0679,-0.0021,9.9066,-0.101,0.1645,-0.3639
4820,887,711,34.365,31.702,0.0999,-0.0039,9.7931,0.2078,0.6926,-0.105
4825,900,703,34.439,31.649,-0.026,-0.0643,9.875,-0.0405,0.7009,-0.2093
4830,907,702,34.351,31.63,0.0853,-0.0057,9.877,-0.8323,0.2452,-0.0277
4835,914,701,34.373,31.673,0.0151,0.0259,9.8787,-0.0914,0.5718,0.7013
4840,923,694,34.338,31.64,-0.0899,-0.053,9.8306,-0.0834,0.0217,0.5559
4845,939,698,34.439,31.618,0.0265,0.0302,9.8102,-0.1992,-1.0371,0.5106
4850,952,696,34.338,31.645,0.0111,0.0131,9.8673,-1.1091,-0.5335,0.618
4855,951,697,34.415,31.688,-0.0614,-0.0649,9.802,-0.0136,-0.26,-0.3135
4860,966,696,34.48,31.734,-0.0479,-0.0241,9.7733,0.0665,0.5946,0.0741
4865,977,693,34.44,31.69,0.018,0.0193,9.872,0.0621,-0.2047,0.5068
4870,991,693,34.442,31.669,0.0129,-0.0095,9.8577,-0.6286,0.8139,0.1057
4875,999,693,34.374,31.679,0.0377,0.1107,9.7735,-0.0656,-0.4131,0.6492
4880,1010,696,34.424,31.662,0.0199,0.042,9.8876,-0.2906,0.2059,0.4878
4885,1017,697,34.355,31.656,-0.076,0.0641,9.8294,-0.1706,0.8008,0.0835
4890,1026,691,34.399,31.704,-0.0429,-0.048,9.8369,0.0076,-0.5723,-0.1803
4895,1029,691,34.391,31.642,-0.0423,0.0221,9.7967,0.1867,-0.1331,0.8443
4900,1050,693,34.321,31.651,0.0709,-0.0415,9.7877,0.3263,-0.5166,0.517
4905,1053,694,34.374,31.674,-0.06,0.0081,9.9003,-0.8834,-0.9293,-0.6726
4910,1055,692,34.374,31.555,0.0367,-0.0274,9.7341,-0.0682,0.4655,0.1364
4915,1071,699,34.335,31.662,-0.0183,0.0047,9.7482,-0.0734,-0.0567,-0.1304
4920,1077,698,34.416,31.659,0.041,-0.0442,9.8385,0.1262,0.0318,-0.2569
4925,1083,703,34.391,31.686,-0.0321,0.1001,9.8397,0.5781,0.4911,0.4643
4930,1094,698,34.357,31.635,0.0235,-0.0179,9.873,0.5658,0.3738,-0.2688
4935,1100,702,34.288,31.596,-0.0063,-0.0002,9.787,-0.3026,0.0081,-0.2513
4940,1116,705,34.32,31.677,0.0213,-0.0379,9.7665,0.3327,0.11,-0.1959
4945,1118,709,34.352,31.603,0.0834,0.046,9.839,-0.7964,-0.2135,-0.0126
4950,1129,711,34.421,31.683,-0.0619,-0.0993,9.8147,0.0878,0.2279,0.2445
4955,1129,714,34.306,31.698,-0.0241,-0.0033,9.8257,-0.2412,-0.4536,0.4958
4960,1129,710,34.45,31.717,-0.0129,0.0191,9.8482,-0.8848,-0.6182,0.6819
4965,1139,721,34.358,31.624,0.0464,0.001,9.784,-0.8931,0.5889,-0.3167
4970,1147,725,34.362,31.633,-0.0392,-0.0456,9.7294,0.7973,0.4557,-0.6733
4975,1155,719,34.334,31.62,-0.0807,-0.0457,9.8,-0.0736,-0.1406,-0.2758
4980,1152,733,34.354,31.65,0.1038,-0.0655,9.7791,-0.2464,0.2007,-0.0006
4985,1155,728,34.406,31.769,0.0041,-0.0025,9.7807,-0.1538,0.2447,0.7387
4990,1160,733,34.339,31.719,-0.0015,0.0299,9.8609,-0.8411,-0.2118,0.3471
4995,1170,739,34.417,31.675,0.0531,-0.0207,9.7698,-0.0305,-0.7251,-0.6386
5000,1177,735,34.436,31.776,0.0416,-0.0244,9.7235,-0.3238,0.1097,1.1087
5005,1174,741,34.367,31.688,-0.04,0.024,9.7464,-0.0481,-0.5735,-0.3095
5010,1175,750,34.332,31.707,-0.0415,-0.0333,9.8529,0.103,0.2701,-0.1473
5015,1186,752,34.38,31.653,-0.0607,-0.0431,9.8236,-0.7522,0.1439,0.0872
5020,1187,757,34.395,31.717,-0.0375,-0.0658,9.8557,0.1243,-0.1962,-0.1679
5025,1183,758,34.388,31.695,-0.0266,0.0397,9.8341,0.5443,-0.1461,-0.6042
5030,1191,762,34.319,31.726,-0.0301,-0.0044,9.8306,-0.015,0.7753,1.2165
5035,1193,771,34.42,31.658,0.0387,0.0128,9.8199,-0.8037,-0.1428,-0.5142
5040,1182,772,34.335,31.66,-0.0004,0.0119,9.7783,0.2359,0.2949,-0.2844
5045,1178,782,34.361,31.693,0.0012,-0.0331,9.8178,1.2911,0.0456,0.8011
5050,1187,787,34.322,31.758,-0.0264,0.0641,9.8205,0.3574,-0.0824,-0.464
5055,1189,789,34.47,31.654,0.0649,0.0326,9.7975,-0.0717,0.0717,0.0055
5060,1175,787,34.445,31.634,-0.0735,-0.0183,9.8564,0.5036,-0.0678,0.4038
5065,1195,784,34.336,31.615,0.0824,-0.0926,9.8271,0.3081,-1.1296,0.0508
5070,1193,802,34.365,31.597,0.0038,0.1293,9.7819,-0.5486,0.7187,0.7178
5075,1186,802,34.433,31.598,0.0448,-0.0017,9.7448,-0.5787,0.1054,0.7209
5080,1182,808,34.369,31.711,0.0721,0.0865,9.805,0.035,-0.325,0.1564
5085,1173,810,34.373,31.737,-0.0315,-0.0757,9.8037,0.2373,0.0347,0.5064
5090,1184,817,34.462,31.601,-0.1036,0.0177,9.799,-0.1249,0.2732,0.1978
5095,1181,822,34.344,31.644,-0.0342,-0.0269,9.8083,-0.4105,0.6671,-0.4906
5100,1172,821,34.309,31.654,0.1224,0.0471,9.7583,0.0575,0.1853,-0.4695
5105,1169,823,34.377,31.605,-0.022,0.039,10.0122,-0.1191,-0.6615,-0.8502
5110,1179,830,34.421,31.672,0.0404,-0.0236,9.8049,-1.005,0.2386,-0.626
5115,1165,838,34.403,31.636,-0.0758,-0.0057,9.9059,-0.9642,0.2169,-0.4667
5120,1178,839,34.417,31.611,-0.0183,0.0352,9.7756,-0.4826,-0.0491,0.3565
5125,1165,839,34.392,31.747,0.0354,0.0285,9.7222,1.0079,0.2145,-0.2451
5130,1163,841,34.425,31.812,-0.0205,-0.0453,9.7514,-0.4918,-0.6387,-0.6967
5135,1165,847,34.366,31.675,0.0387,-0.0649,9.8403,0.0542,-0.0303,0.1054
5140,1158,851,34.403,31.698,0.0216,0.0302,9.8122,-0.1386,-0.613,-0.0764
5145,1161,851,34.365,31.699,0.0353,-0.0105,9.8291,-0.2535,-0.0385,0.7976
5150,1153,859,34.328,31.701,-0.0229,0.003,9.8208,0.5131,-0.3809,-0.351
5155,1149,860,34.332,31.656,-0.0526,-0.0984,9.9125,-0.324,0.7569,0.383
5160,1142,861,34.4,31.721,0.0365,0.0287,9.8227,0.3278,-0.0646,-0.2979
5165,1153,866,34.562,31.674,0.0278,0.0423,9.8982,-0.6118,0.0914,0.24
5170,1156,866,34.35,31.682,0.1009,-0.006,9.9112,-0.6001,-0.0312,-0.4573
5175,1139,862,34.49,31.605,0.0965,-0.0181,9.8084,0.8004,0.3429,-0.9824
5180,1139,868,34.355,31.585,-0.0383,0.0482,9.8659,-0.4266,0.2887,-0.1527
5185,1131,871,34.441,31.679,-0.029,-0.0177,9.7222,-0.4999,0.5379,0.221
5190,1130,869,34.474,31.648,-0.009,0.0647,9.7957,0.3474,-0.0311,0.6748
5195,1126,873,34.436,31.734,-0.065,0.0199,9.8432,-0.6956,-0.4529,0.1159
5200,1134,873,34.419,31.613,-0.0398,0.0034,9.8141,-0.1342,-0.1979,0.6776
5205,1124,874,34.415,31.753,-0.0385,-0.0246,9.7863,0.7552,0.8164,0.3593
5210,1116,877,34.4,31.59,0.0735,0.0061,9.8335,0.6621,-0.4875,0.3693
5215,1123,876,34.329,31.636,-0.0261,-0.0503,9.7605,-0.463,0.0117,0.4964
5220,1117,876,34.454,31.647,-0.0492,0.1032,9.8487,-0.1863,0.3744,-0.0969
5225,1117,879,34.462,31.638,0.0308,0.0756,9.8335,0.4001,-1.07,-0.1181
5230,1113,882,34.398,31.52,0.0774,0.0827,9.7606,0.6295,-0.9715,0.4352
5235,1111,873,34.363,31.623,0.0265,0.0464,9.8851,-0.92,0.1278,-0.674
5240,1104,873,34.316,31.652,0.0399,0.0876,9.7515,0.166,-0.0261,1.0994
5245,1112,871,34.456,31.601,0.1216,0.0228,9.8689,0.3395,0.7572,-0.049
5250,1103,880,34.375,31.76,0.0527,0.1105,9.7972,-0.098,-0.1919,-0.3703
5255,1108,878,34.377,31.682,0.0589,-0.0164,9.8585,0.735,-0.8568,-0.5543
5260,1102,878,34.327,31.723,0.0412,-0.1152,9.849,0.9232,-0.0277,0.2953
5265,1113,876,34.344,31.689,0.015,-0.0302,9.821,-0.0133,-0.5831,-0.8413
5270,1095,877,34.369,31.684,-0.0308,-0.0074,9.7659,0.6739,-0.0434,-0.0028
5275,1094,875,34.308,31.661,-0.0176,-0.0015,9.7936,-0.2726,-0.4764,0.3439
5280,1094,877,34.359,31.704,-0.047,-0.0465,9.78,-0.0986,0.2678,-0.3402
5285,1096,873,34.481,31.665,0.0239,0.007,9.9152,0.0272,-0.2844,0.2221
5290,1086,872,34.359,31.604,-0.0409,-0.0652,9.8061,0.2154,-0.1307,0.3023
5295,1083,871,34.413,31.759,0.0612,-0.0169,9.7927,0.0253,-0.0089,-0.4027
5300,1090,875,34.36,31.754,0.0393,0.0643,9.7835,0.2105,-0.5947,0.4602
5305,1088,875,34.317,31.695,0.0526,-0.0318,9.8161,-0.5101,0.3053,0.1888
5310,1093,869,34.444,31.807,-0.0493,-0.0028,9.748,0.0939,0.6198,-0.4298
5315,1079,873,34.415,31.678,-0.032,0.0728,9.781,0.5207,-0.4317,-0.1418
5320,1075,873,34.396,31.729,-0.0691,0.0124,9.831,0.4173,-0.7558,-0.2321
5325,1076,870,34.452,31.644,-0.0257,0.1192,9.8625,-0.3657,1.1391,-0.1066
5330,1075,871,34.376,31.726,0.0221,-0.0495,9.8339,0.3922,0.3603,0.459
5335,1081,865,34.437,31.664,-0.0324,-0.0238,9.7603,-0.2306,0.4908,0.8845
5340,1070,865,34.424,31.662,-0.0079,0.0105,9.879,0.432,0.5013,0.057
5345,1067,866,34.418,31.596,0.0093,-0.0259,9.8711,0.3498,-0.1285,0.2438
5350,1077,867,34.299,31.69,-0.0465,-0.0061,9.8524,-0.239,-0.0285,0.0319
5355,1078,865,34.38,31.64,0.0627,-0.0216,9.8255,-0.5238,0.3484,0.5818
5360,1070,862,34.466,31.681,0.0377,-0.0209,9.8013,-0.2915,0.2671,0.5548
5365,1059,860,34.452,31.662,0.0222,-0.0041,9.8048,-0.1433,0.4977,0.2424
5370,1051,861,34.459,31.629,-0.0422,-0.045,9.807,-0.364,0.2689,-0.3333
5375,1051,856,34.277,31.672,-0.016,0.0218,9.8494,-1.1241,0.1302,-0.3454
5380,1047,853,34.397,31.718,0.0378,0.0059,9.762,-0.493,-0.4243,0.5405
5385,1038,851,34.431,31.739,-0.0276,0.0142,9.8017,-1.1896,-0.6631,0.7282
5390,1051,859,34.317,31.678,-0.0426,-0.0268,9.7785,-0.3073,-0.4436,0.3901
5395,1037,848,34.294,31.593,-0.0263,-0.0627,9.7832,0.0959,-1.1816,-0.196
5400,1034,852,34.385,31.712,-0.0273,-0.0485,9.7607,0.077,0.473,0.217
5405,1028,846,34.331,31.656,0.0144,-0.0271,9.8155,0.3975,0.1174,-0.0206
5410,1018,851,34.416,31.622,-0.0732,-0.0855,9.7768,-0.4169,-0.2805,-0.5282
5415,1017,844,34.497,31.745,-0.0455,-0.0242,9.7694,0.357,0.1786,-0.0137
5420,1012,847,34.408,31.658,0.1039,0.0169,9.7754,-0.3977,-0.7565,0.6432
5425,1013,845,34.296,31.596,-0.0052,0.0361,9.8348,0.3586,0.3832,-0.75
5430,1004,846,34.444,31.744,-0.015,-0.1024,9.8456,0.6779,-0.608,0.6377
5435,1002,844,34.328,31.647,-0.0342,-0.0054,9.8237,-0.4078,0.3054,-0.8002
5440,1003,845,34.442,31.765,-0.0762,-0.0414,9.7853,0.032,-0.0108,0.0199
5445,983,843,34.345,31.67,-0.0399,-0.0639,9.8595,0.6165,0.4643,0.3279
5450,986,842,34.51,31.636,0.0036,-0.078,9.7824,-0.1234,-0.5141,-0.264
5455,970,843,34.4,31.627,0.0257,-0.0256,9.9046,-0.5808,-0.6689,0.4096
5460,971,842,34.32,31.642,0.0253,-0.035,9.7614,-0.5682,-0.06,0.1416
5465,961,840,34.395,31.687,0.0457,-0.0299,9.8844,0.005,0.058,-0.1613
5470,960,837,34.303,31.724,-0.0157,-0.0394,9.8368,-0.5495,-0.3805,-0.2276
5475,952,844,34.44,31.683,-0.0449,-0.0283,9.8338,0.176,0.2971,0.0426
5480,943,835,34.398,31.804,-0.0737,0.0588,9.7453,-0.422,1.1544,0.1937
5485,932,840,34.365,31.707,0.0307,-0.0186,9.8156,-0.8978,0.1638,0.2803
5490,937,840,34.374,31.717,-0.067,-0.0189,9.7572,0.7937,0.1235,-0.5935
5495,930,834,34.39,31.688,-0.024,0.02,9.7879,-0.4493,-0.0423,-0.2923
5500,918,835,34.358,31.678,0.11,0.0651,9.8097,0.4303,0.2027,0.3209
5505,915,831,34.477,31.71,0.0679,-0.0279,9.6983,-0.2481,0.7068,0.1659
5510,904,836,34.417,31.677,0.0475,0.0103,9.7757,0.2271,-0.865,0.3292
5515,894,833,34.484,31.711,-0.0447,0.0053,9.8136,-0.0539,-0.2716,0.155
5520,899,835,34.407,31.698,0.0085,0.0424,9.8888,0.4288,-0.6679,0.5095
5525,885,832,34.46,31.788,0.061,0.006,9.8363,-0.4985,-0.2759,-0.2306
5530,879,834,34.411,31.696,0.0602,0.107,9.8228,0.3378,-0.8692,-1.9567
5535,870,834,34.416,31.61,-0.0215,-0.0121,9.725,-1.0728,-0.1374,-0.6941
5540,859,832,34.457,31.618,-0.0289,-0.0354,9.7555,-0.5965,-0.6108,0.1228
5545,851,827,34.391,31.675,0.0055,-0.0198,9.7985,0.1087,0.3942,-0.3437
5550,836,828,34.326,31.664,0.0324,-0.0189,9.8725,-0.2712,-0.2934,0.4846
5555,836,824,34.36,31.67,-0.0216,-0.0221,9.7441,0.4386,0.3063,-0.8581
5560,832,827,34.441,31.727,0.0094,0.0238,9.8757,-0.2507,0.3258,-0.6095
5565,824,824,34.454,31.6,0.0537,-0.0275,9.7966,-0.989,-0.2905,-0.1886
5570,821,821,34.475,31.727,-0.0262,0.0696,9.8281,-0.5787,0.7209,-0.0008
5575,808,820,34.451,31.697,-0.1056,-0.06,9.7882,-0.2509,0.1148,0.1007
5580,809,818,34.446,31.656,0.1311,0.0355,9.8359,-0.6233,-0.8328,-0.1997
5585,801,819,34.363,31.657,0.0284,-0.0934,9.7834,-0.43,-0.5706,0.0577
5590,795,815,34.377,31.659,0.0392,0.0275,9.8104,-0.1011,-0.8111,-0.0281
5595,778,816,34.411,31.768,-0.0526,0.0317,9.7862,1.0186,0.0851,0.7083
5600,787,815,34.336,31.637,0.0251,0.0451,9.8046,0.2213,-0.5009,-0.9179
5605,779,811,34.425,31.632,-0.0717,0.085,9.7875,0.5613,0.9916,-0.0936
5610,773,810,34.331,31.775,0.026,0.049,9.8758,-0.3087,-0.3688,0.4172
5615,772,810,34.338,31.704,0.0508,-0.1026,9.8804,0.2234,0.1359,0.1045
5620,760,805,34.448,31.739,0.0439,0.027,9.7613,-0.5771,0.0811,-0.6594
5625,762,797,34.394,31.635,0.0552,0.0468,9.7391,-0.0756,-0.2607,0.2522
5630,767,802,34.381,31.747,0.0501,-0.0494,9.8405,0.1509,0.4599,-0.3232
5635,770,795,34.347,31.706,0.0053,0.1302,9.703,0.4889,-0.7649,0.029
5640,754,798,34.451,31.694,0.0223,-0.0512,9.7628,-1.1952,0.1572,0.1623
5645,752,795,34.384,31.63,0.0061,0.0776,9.8273,0.4077,0.8359,-0.4474
5650,761,794,34.361,31.735,-0.0223,0.0053,9.7914,0.8866,-0.0816,1.319
5655,741,793,34.491,31.771,0.0138,-0.0532,9.8839,-0.0946,-0.2245,0.2036
5660,758,780,34.376,31.728,-0.0099,0.0811,9.7852,0.8561,1.0376,-0.4058
5665,751,781,34.353,31.731,-0.1102,0.0499,9.8262,0.3241,-0.3672,0.5415
5670,741,782,34.338,31.694,-0.0011,0.0067,9.8007,0.8526,0.055,-0.2297
5675,747,778,34.35,31.556,-0.0619,-0.0665,9.7616,-0.525,-0.3335,-0.4376
5680,740,776,34.469,31.591,-0.039,-0.0324,9.8684,1.0137,-0.1631,-0.1802
5685,754,770,34.466,31.606,-0.0996,0.0236,9.8249,-0.6772,-0.15,-0.2895
5690,756,766,34.39,31.622,-0.0186,-0.0144,9.8047,-0.0942,0.0803,-0.4458
5695,756,768,34.408,31.757,0.0508,0.028,9.8066,-0.0865,-0.1946,-1.0555
5700,756,762,34.406,31.71,-0.0076,0.0314,9.854,0.8136,-0.2729,0.5748
5705,758,756,34.417,31.701,0.0158,-0.0349,9.7812,0.457,-0.1435,-0.5937
5710,763,754,34.385,31.64,0.1094,-0.0249,9.8076,-0.9992,-0.7784,0.0239
5715,771,754,34.429,31.652,-0.0208,0.0246,9.8373,-0.2768,-0.2853,-0.2506
5720,771,749,34.439,31.742,0.123,-0.0055,9.7893,0.2735,0.1046,-0.757
5725,771,743,34.365,31.756,-0.0301,-0.0055,9.7822,1.0686,0.5057,0.1432
5730,777,741,34.396,31.737,-0.0607,-0.0198,9.789,0.5379,-0.0045,-0.9634
5735,787,743,34.413,31.806,0.0088,-0.0302,9.8185,-0.5392,0.3007,-0.0697
5740,808,736,34.419,31.611,0.0188,0.0511,9.8296,-0.3361,0.306,-0.28
5745,801,731,34.438,31.727,0.0847,-0.0062,9.7871,0.467,-0.4211,0.0551
5750,802,731,34.418,31.746,0.0624,-0.0045,9.8327,0.362,0.176,0.3568
5755,813,729,34.447,31.579,0.0781,-0.0412,9.8611,-0.1907,0.5871,-0.0139
5760,827,725,34.373,31.711,0.0013,-0.0776,9.8795,-0.2345,0.2411,-0.9042
5765,830,721,34.413,31.735,-0.0005,0.0236,9.8426,-0.2293,0.199,0.9994
5770,840,725,34.337,31.758,0.0607,0.0086,9.778,0.3286,0.3649,0.9575
5775,842,715,34.308,31.768,-0.0124,0.018,9.7336,-0.5254,-1.1875,0.3842
5780,853,721,34.31,31.668,-0.0123,0.0431,9.7958,0.3257,0.4072,0.5205
5785,859,711,34.406,31.718,0.1062,0.0492,9.7997,-0.2673,-1.1014,-0.0479
5790,876,707,34.415,31.588,0.0835,0.0205,9.9163,0.265,-0.0805,0.1295
5795,880,710,34.408,31.684,-0.0069,-0.0115,9.891,0.1981,0.1872,0.1149
5800,894,708,34.308,31.731,0.003,0.0407,9.8103,1.1103,0.2396,-0.1494
5805,902,701,34.4,31.699,0.0072,0.0095,9.7878,0.0566,0.1454,-0.4667
5810,909,702,34.342,31.601,-0.0065,0.0178,9.8371,0.4556,-0.2774,-0.6384
5815,920,704,34.332,31.651,0.0518,-0.0026,9.8045,0.4638,0.4104,1.0359
5820,927,700,34.389,31.742,0.0332,-0.018,9.7637,1.3622,0.9662,0.3602
5825,949,700,34.341,31.753,-0.0975,0.0491,9.6892,0.1618,-0.7161,0.4476
5830,942,695,34.378,31.773,-0.0402,0.04,9.764,0.2233,-0.1416,0.9997
5835,945,693,34.367,31.702,0.0242,-0.112,9.8253,0.0621,0.0359,0.8848
5840,961,695,34.356,31.664,-0.0377,0.0107,9.748,-0.1006,-0.335,0.393
5845,976,699,34.346,31.818,0.0493,0.0889,9.8502,-0.5137,0.0085,-0.4447
5850,982,695,34.337,31.681,-0.0247,-0.0152,9.7795,0.0137,0.7693,-0.4447
5855,994,693,34.401,31.687,0.0335,-0.0898,9.69,0.3073,-0.3191,0.2834
5860,1003,687,34.372,31.646,0.0183,0.0276,9.8788,-0.8119,0.0779,-0.4982
5865,1018,692,34.398,31.612,0.0207,0.0368,9.796,0.0689,0.2847,-0.2367
5870,1025,698,34.435,31.609,0.1079,-0.0431,9.7892,-1.1166,-0.7366,-0.6096
5875,1036,693,34.51,31.747,0.0506,-0.0693,9.8576,-0.2613,0.487,-0.879
5880,1043,691,34.376,31.659,-0.0141,-0.0656,9.8338,-0.1134,0.0814,-0.1881
5885,1053,693,34.283,31.648,0.0004,0.0132,9.8903,0.1105,0.5312,0.0991
5890,1063,699,34.389,31.673,-0.0532,0.026,9.9581,0.6326,0.5036,0.2438
5895,1071,699,34.471,31.598,-0.0459,0.02,9.701,0.6154,-0.312,-0.2504
5900,1082,697,34.434,31.73,-0.0068,0.0329,9.8397,0.4887,-0.1842,-0.1784
5905,1087,708,34.355,31.612,0.0382,-0.0295,9.8442,-0.117,0.1511,0.2881
5910,1097,700,34.353,31.668,-0.0162,0.0773,9.8348,0.0274,-0.8145,0.3833
5915,1099,708,34.432,31.65,-0.1019,-0.0749,9.7448,-0.1354,-0.0116,1.4743
5920,1110,705,34.397,31.721,0.006,-0.0951,9.7832,-0.1779,1.2221,0.1162
5925,1119,709,34.375,31.631,-0.0326,-0.0423,9.8614,-0.7972,-0.5327,0.7244
5930,1126,710,34.375,31.804,0.0459,-0.0005,9.7576,-0.198,0.5247,-0.413
5935,1130,709,34.397,31.563,-0.1044,-0.0129,9.7764,0.0916,0.2427,-0.237
5940,1133,719,34.474,31.658,-0.0309,0.0705,9.9117,-0.5515,0.9319,0.3395
5945,1134,719,34.338,31.627,0.0222,0.0246,9.791,-0.9712,-0.5722,-0.6838
5950,1146,721,34.445,31.659,-0.0192,-0.026,9.8605,0.2625,-0.8577,0.414
5955,1152,724,34.345,31.664,-0.0073,-0.0173,9.7457,-0.0203,0.5313,0.4873
5960,1155,728,34.336,31.777,-0.0437,-0.0664,9.8214,-0.4743,-0.5701,0.3586
5965,1160,733,34.439,31.773,-0.0217,0.0033,9.8818,-0.4833,0.309,-0.1715
5970,1162,737,34.371,31.656,0.0174,0.0848,9.7585,-0.531,0.4374,0.4039
5975,1169,738,34.418,31.649,-0.1095,-0.0045,9.7479,-0.4409,0.4531,1.0939
5980,1166,745,34.375,31.699,-0.0634,0.03,9.8164,0.4115,-0.4261,0.4463
5985,1175,744,34.366,31.669,0.0436,0.0492,9.7778,-0.5196,-0.3924,-0.1388
5990,1179,750,34.416,31.752,0.0014,-0.0325,9.8493,0.1152,-0.2647,-0.5549
5995,1191,752,34.403,31.717,-0.0451,0.082,9.8152,-0.3417,0.1415,0.8375
6000,1179,758,34.411,31.682,-0.0106,-0.0582,9.8778,0.1133,0.5017,0.5175
6005,1175,756,34.372,31.676,-0.0319,0.0763,9.8327,-0.0024,-0.1859,-0.2997
6010,1185,764,34.37,31.744,0.029,-0.0107,9.8327,0.0142,0.6251,-0.1031
6015,1188,775,34.382,31.677,-0.0037,-0.0389,9.9058,0.2833,-0.4972,0.7199
6020,1185,771,34.354,31.609,0.0099,0.0161,9.9002,-0.2283,-0.6678,-0.5306
6025,1191,783,34.331,31.567,-0.0357,0.1027,9.8114,-0.4005,0.6052,-0.6358
6030,1194,785,34.34,31.677,-0.0672,0.011,9.9049,-0.5355,-0.3892,0.1731
6035,1179,790,34.432,31.759,-0.0126,0.0428,9.7489,0.383,-1.0923,-0.368
6040,1192,795,34.276,31.705,0.0859,-0.0505,9.8039,1.0354,-0.3005,-0.5811
6045,1185,797,34.327,31.627,0.0113,-0.0518,9.77,-0.0686,-0.0114,0.1414
6050,1185,804,34.42,31.704,-0.02,-0.0129,9.7445,-0.468,0.3446,0.8096
6055,1185,804,34.376,31.729,0.0291,-0.005,9.7754,0.0602,0.11,-1.0108
6060,1174,810,34.456,31.606,-0.0077,0.0131,9.8017,0.1728,0.1489,0.6221
6065,1186,809,34.346,31.686,0.0047,0.0248,9.8799,-0.2671,0.0086,0.5147
6070,1170,818,34.363,31.653,-0.059,0.0511,9.7306,-1.2094,-0.6637,0.081
6075,1170,817,34.511,31.708,0.0474,0.0012,9.8486,0.7403,-1.1053,-0.2624
6080,1179,819,34.358,31.558,-0.0183,0.0361,9.831,0.4776,0.7291,-0.8434
6085,1173,831,34.406,31.685,0.0418,-0.0737,9.7349,-0.1482,0.208,-0.3469
6090,1165,830,34.346,31.675,-0.0066,0.0493,9.83,-0.5904,-0.3941,0.9025
6095,1171,828,34.293,31.634,-0.0471,-0.0542,9.8262,-0.1855,-0.0244,0.8966
6100,1166,840,34.392,31.608,0.0025,0.0123,9.8255,0.1822,0.1474,0.526
6105,1168,842,34.44,31.721,-0.0885,-0.0242,9.7127,-0.2536,0.4307,-0.2701
6110,1164,843,34.439,31.678,0.0251,-0.0035,9.7659,-0.3315,0.4649,-0.7329
6115,1159,851,34.358,31.682,-0.0675,0.0268,9.8545,-0.437,-0.6538,-0.1016
6120,1155,848,34.306,31.615,0.0345,-0.0151,9.7661,0.0724,1.0118,-0.0557
6125,1155,848,34.325,31.823,-0.038,0.0151,9.7929,0.1505,-0.9552,0.3624
6130,1160,856,34.522,31.682,0.0086,0.0417,9.8781,-0.065,-0.0607,0.1622
6135,1150,857,34.414,31.682,0.0506,0.0767,9.8002,0.4526,-0.9281,0.3758
6140,1146,857,34.419,31.711,-0.06,0.0293,9.7648,-0.4487,-0.137,-0.3061
6145,1144,861,34.477,31.769,0.0519,-0.0221,9.849,-0.4974,0.1689,-0.5921
6150,1148,862,34.338,31.733,-0.0134,0.0497,9.7415,-0.9658,0.0063,1.103
6155,1144,868,34.43,31.672,0.0728,-0.0157,9.8297,0.6514,0.4637,0.2903
6160,1127,867,34.464,31.786,0.0254,0.0124,9.8317,0.2148,-0.0995,-0.0724
6165,1139,875,34.435,31.622,0.0374,0.0369,9.9035,0.0803,-1.0457,0.5692
6170,1128,873,34.439,31.706,0.0165,-0.0053,9.8581,0.5849,-1.67,0.9911
6175,1120,874,34.416,31.628,-0.0207,0.0694,9.7476,0.2058,-0.1146,0.1101
6180,1127,878,34.384,31.713,-0.0037,-0.0687,9.8488,0.5917,0.0162,-0.4455
6185,1122,877,34.291,31.602,-0.0614,0.0554,9.7766,0.5512,-0.4215,0.5595
6190,1114,874,34.389,31.678,0.0686,0.0551,9.8408,-0.0771,-0.2778,-0.728
6195,1124,881,34.366,31.718,0.0698,-0.02,9.7828,0.402,-0.6083,-1.031
6200,1125,877,34.393,31.676,0.0259,-0.082,9.7626,-0.3462,-0.0574,0.3616
6205,1110,872,34.396,31.694,-0.0283,-0.0525,9.7151,0.1201,-0.3171,0.2955
6210,1111,874,34.395,31.69,-0.0659,0.0007,9.7684,-0.2701,0.4246,0.2073
6215,1123,875,34.4,31.661,0.009,-0.0364,9.7574,-0.178,0.452,0.6815
6220,1112,877,34.491,31.709,0.0508,0.0327,9.8185,0.3685,-0.6057,0.5891
6225,1106,880,34.404,31.697,0.0419,0.0748,9.7681,-1.2004,0.8407,-0.7149
6230,1110,880,34.326,31.686,-0.0511,-0.0942,9.879,-0.1196,0.151,-0.3575
6235,1109,875,34.403,31.577,0.0716,-0.0447,9.8864,-0.3084,0.3531,0.9156
6240,1102,876,34.317,31.613,0.023,-0.0183,9.842,-0.6251,-0.3329,-0.3162
6245,1105,877,34.414,31.806,0.0032,-0.1111,9.7672,-0.0751,-0.2293,-0.313
6250,1101,875,34.391,31.737,-0.0246,-0.0878,9.8886,-0.2929,0.4893,-1.3551
6255,1098,877,34.332,31.681,0.0353,0.0162,9.7433,-2.0362,0.2358,0.0435
6260,1091,881,34.435,31.739,-0.0868,-0.0471,9.7174,-0.3636,0.2968,-0.6049
6265,1089,877,34.407,31.632,0.0379,-0.0142,9.8142,-0.7354,0.124,-0.1969
6270,1085,881,34.404,31.595,0.0348,0.114,9.896,-0.7438,-0.2633,-0.2182
6275,1089,873,34.509,31.69,0.0281,-0.021,9.879,-0.0508,0.8069,-0.248
6280,1086,873,34.334,31.694,0.1153,-0.0372,9.7469,-0.1963,0.5751,0.9386
6285,1083,877,34.348,31.702,0.0436,-0.0953,9.8526,-0.0051,-0.0159,0.1003
6290,1079,872,34.338,31.69,-0.0003,0.0281,9.7808,1.2137,0.0068,0.0156
6295,1083,866,34.399,31.645,-0.0375,-0.0372,9.772,-0.1894,-0.323,-0.3273
6300,1076,869,34.379,31.66,0.0221,0.0061,9.7382,-0.216,-0.1267,-0.6284
6305,1085,874,34.421,31.686,-0.0825,-0.0487,9.7924,-0.0803,-0.3921,0.5462
6310,1078,870,34.393,31.728,-0.0065,0.0728,9.8964,-0.5245,0.8298,-0.3332
6315,1066,863,34.443,31.727,-0.0236,0.1254,9.8639,-0.2182,0.3373,-0.4558
6320,1066,864,34.46,31.615,0.0471,-0.0909,9.6927,-0.4395,0.7494,0.3403
6325,1063,862,34.372,31.654,-0.1708,-0.0889,9.88,0.1092,-0.0807,-0.7328
6330,1061,867,34.435,31.646,-0.046,0.0256,9.7393,0.1731,0.0443,0.1073
6335,1060,858,34.312,31.619,0.0576,0.1155,9.7969,1.088,-0.6098,0.7441
6340,1061,859,34.365,31.66,-0.0284,0.0432,9.7667,-0.3035,0.7067,-0.537
6345,1060,863,34.425,31.65,0.0483,-0.0142,9.7782,0.5051,0.0204,0.9205
6350,1056,855,34.418,31.671,-0.0123,-0.0145,9.818,-0.2769,0.1066,0.0609
6355,1053,856,34.402,31.713,0.001,-0.1293,9.8367,-0.8471,0.3988,0.3701
6360,1046,857,34.421,31.728,-0.0052,0.0001,9.8561,-0.4193,-0.0626,0.0199
6365,1054,854,34.35,31.696,-0.032,0.0126,9.7734,-0.4786,-0.3612,-0.0142
6370,1034,853,34.419,31.567,-0.0708,-0.0385,9.8592,0.2857,-0.9296,0.1967
6375,1041,856,34.426,31.716,0.0519,0.0015,9.7778,-0.2985,-0.0542,-0.5233
6380,1040,857,34.449,31.779,-0.0146,0.0563,9.7911,-0.1988,0.4742,-0.9419
6385,1030,853,34.424,31.647,0.0025,-0.0017,9.7919,-0.0255,-0.9017,-0.5169
6390,1024,850,34.41,31.701,0.0128,-0.0151,9.7932,-0.3031,-0.6249,-0.2475
6395,1026,853,34.358,31.642,0.0916,-0.03,9.8437,-0.8059,-0.1629,-0.1398
6400,1015,853,34.421,31.652,-0.0763,0.0108,9.8509,-0.7669,0.552,-0.7898
6405,1009,848,34.351,31.698,-0.0299,-0.0472,9.7839,0.2171,0.7239,0.0434
6410,999,845,34.34,31.676,-0.037,-0.0319,9.8098,-0.6411,0.0057,0.211
6415,1002,842,34.366,31.657,-0.057,0.0101,9.8768,0.137,0.1073,-0.0505
6420,990,846,34.418,31.749,0.0346,0.0063,9.76,-0.7779,-0.0258,-0.6306
6425,987,851,34.403,31.626,0.0858,-0.0106,9.8444,0.4044,-0.2638,0.015
6430,984,839,34.41,31.746,-0.0059,-0.0819,9.8839,0.2707,0.3328,0.079
6435,977,840,34.375,31.625,0.0877,-0.0125,9.8511,0.7857,-0.0607,-0.2611
6440,961,841,34.407,31.722,0.0358,-0.0224,9.8166,0.5905,-0.3339,0.3871
6445,957,839,34.406,31.689,-0.0694,0.0099,9.8594,0.5789,0.8096,-0.0797
6450,953,839,34.353,31.691,-0.0372,0.0811,9.8106,-0.0225,0.5443,-0.2255
6455,952,841,34.351,31.656,-0.0012,-0.1106,9.8088,-0.4792,-0.3023,-0.092
6460,943,840,34.428,31.696,-0.0916,-0.0023,9.7655,0.0258,0.3021,-0.1827
6465,946,834,34.343,31.68,0.0322,-0.0779,9.8487,-0.4649,-0.5098,0.1433
6470,928,837,34.384,31.663,-0.0209,-0.0511,9.7902,-0.057,0.405,-0.6293
6475,925,838,34.339,31.648,-0.1114,0.038,9.8342,-0.5166,0.0516,0.3974
6480,921,838,34.384,31.637,0.0023,-0.0506,9.8101,-0.0821,0.2269,-0.8199
6485,907,834,34.407,31.728,0.0185,-0.0109,9.865,-0.4019,-0.1815,0.1076
6490,910,828,34.385,31.673,0.0264,-0.0581,9.7702,-1.266,0.038,0.5208
6495,896,839,34.446,31.679,-0.0787,0.0742,9.77,-0.6753,-0.8871,-0.3387
6500,880,829,34.328,31.697,0.1017,0.0037,9.7434,-0.2365,0.2088,0.5405
6505,886,833,34.43,31.674,0.0501,0.0139,9.8222,0.9994,-0.4474,-0.6144
6510,881,830,34.391,31.742,0.0594,0.0716,9.8136,-0.1914,0.02,-0.0832
6515,866,830,34.323,31.719,0.0328,-0.0023,9.7688,0.2473,0.2718,-0.143
6520,865,830,34.321,31.715,0.0548,0.0085,9.7549,-0.4983,-0.0056,-0.2553
6525,851,824,34.487,31.666,0.0339,0.1023,9.8388,0.5785,0.5299,1.0444
6530,845,824,34.363,31.736,0.0621,-0.0842,9.855,-0.4971,-0.3434,-0.0865
6535,841,824,34.542,31.711,-0.0133,0.0157,9.8016,-0.4351,0.3132,0.1624
6540,837,826,34.375,31.745,-0.0853,0.0267,9.8095,-0.2982,0.3415,-0.9369
6545,825,827,34.347,31.699,-0.0356,0.0328,9.7315,-0.0827,-0.1896,0.4517
6550,812,825,34.475,31.742,-0.0599,-0.0373,9.7569,0.5801,-1.1088,-0.1749
6555,805,815,34.438,31.693,-0.0438,0.0141,9.7945,-0.9082,-0.7463,0.3455
6560,811,821,34.445,31.732,-0.0087,-0.0093,9.8641,1.1176,-0.416,-0.3063
6565,788,819,34.398,31.738,0.0111,0.0207,9.7589,-0.0033,-0.4744,0.6779
6570,791,814,34.414,31.746,-0.0162,0.1002,9.861,-0.4835,-0.2414,-0.2502
6575,789,816,34.349,31.752,0.0135,0.0403,9.7995,0.5784,-0.6656,0.8091
6580,781,804,34.473,31.732,0.0675,0.0226,9.7966,-0.3644,-0.3417,-0.3122
6585,779,814,34.39,31.689,-0.0394,0.0521,9.8024,0.3878,0.1008,0.0391
6590,777,805,34.333,31.673,-0.0738,0.0564,9.7971,0.0786,-0.2193,-0.0205
6595,770,802,34.416,31.741,0.0196,0.0366,9.8624,-0.0053,0.7584,0.1903
6600,762,805,34.412,31.759,-0.0078,-0.0296,9.8513,0.1249,-0.0069,0.9803
6605,758,803,34.357,31.67,0.0749,0.042,9.8937,-0.5511,0.3872,0.2203
6610,755,797,34.349,31.672,0.0721,-0.058,9.7808,-0.1131,-0.1413,-0.3638
6615,752,790,34.363,31.721,-0.066,-0.0548,9.7583,0.7324,-1.0506,-0.994
6620,748,798,34.441,31.678,0.008,-0.0763,9.7233,-0.9342,-0.6789,0.63
6625,750,790,34.413,31.663,0.0207,0.0238,9.804,1.1333,-1.196,0.1888
6630,754,789,34.456,31.744,-0.0606,0.0377,9.8218,-1.8057,-0.7203,-0.187
6635,742,781,34.363,31.755,0.1437,0.047,9.9042,0.479,-0.0594,0.6335
6640,749,785,34.302,31.704,0.0034,-0.014,9.8523,-0.1321,-0.1361,0.0408
6645,749,775,34.374,31.645,-0.0167,-0.0334,9.8507,0.1112,-0.7636,0.0384
6650,755,775,34.467,31.73,0.007,0.1274,9.7456,0.2854,0.196,0.4037
6655,748,771,34.35,31.625,-0.0065,0.06,9.8926,0.3137,-0.9176,0.0545
6660,757,774,34.47,31.612,0.0191,0.0663,9.8891,-0.4986,-0.5322,0.8146
6665,751,766,34.491,31.644,-0.0307,0.0567,9.8664,0.4737,0.017,1.048
6670,750,772,34.368,31.69,0.0241,-0.0418,9.7643,-0.1271,-0.5508,0.9218
6675,752,758,34.37,31.747,0.0436,-0.0539,9.937,-0.535,-0.2094,-0.0135
6680,749,755,34.424,31.739,0.0076,-0.0319,9.8663,-0.141,0.4796,0.4201
6685,758,760,34.452,31.685,-0.015,0.1009,9.8496,-0.3755,-0.342,-0.1919
6690,765,750,34.344,31.709,-0.0488,-0.0443,9.8011,0.0657,0.0811,-0.1616
6695,762,754,34.373,31.643,0.0406,0.0092,9.6324,-0.0181,-0.8348,-0.1009
6700,772,744,34.516,31.689,0.0866,-0.033,9.7716,0.4155,0.301,0.1134
6705,775,745,34.43,31.644,-0.0235,-0.0325,9.8357,0.2695,0.2775,0.3911
6710,789,741,34.397,31.607,0.0412,0.0859,9.8086,0.0508,-0.347,0.0154
6715,794,738,34.39,31.681,-0.0259,-0.0432,9.8387,0.1342,0.266,0.9112
6720,779,736,34.421,31.684,-0.0405,0.0511,9.7081,-0.4763,-0.8632,0.5019
6725,805,727,34.417,31.753,-0.0102,0.0423,9.7273,-0.0667,-0.1402,-0.2112
6730,800,733,34.412,31.607,-0.0851,0.0693,9.778,0.1021,-0.1025,-0.3205
6735,821,730,34.424,31.733,-0.0221,0.0042,9.7852,-0.1187,-1.0442,-0.3378
6740,819,719,34.371,31.703,0.0852,0.0394,9.8318,-0.0672,-0.5745,0.2889
6745,813,723,34.401,31.721,-0.0719,-0.0776,9.758,-0.5088,0.6236,-0.2245
6750,843,722,34.487,31.642,-0.039,-0.0066,9.892,-0.1571,-0.7356,0.4092
6755,845,715,34.335,31.743,-0.02,0.0176,9.7986,-0.8211,-0.7088,-0.0327
6760,854,715,34.442,31.697,0.0269,0.0684,9.868,0.6705,0.122,0.4009
6765,857,712,34.431,31.716,0.0268,-0.0421,9.8468,-0.0959,0.2215,-0.2646
6770,867,711,34.384,31.674,-0.0458,-0.0326,9.8386,-0.057,0.2537,0.3427
6775,879,711,34.286,31.66,0.0297,0.0324,9.8228,-0.0751,0.2398,-0.3759
6780,890,710,34.386,31.664,0.0815,-0.0037,9.7507,0.1415,0.1654,0.1127
6785,894,710,34.399,31.829,-0.041,-0.036,9.8065,0.173,-0.0205,0.5172
6790,909,708,34.414,31.686,0.0194,0.0663,9.6922,0.3907,-0.0096,-0.2639
6795,912,702,34.351,31.732,-0.0369,0.0188,9.7492,0.4151,-0.34,-0.6696
6800,926,700,34.385,31.692,0.0724,-0.0481,9.783,-0.2191,-0.8995,0.3188
6805,942,695,34.404,31.733,-0.0009,0.0548,9.7893,-0.6289,-0.1546,0.2179
6810,947,699,34.335,31.636,0.043,0.0713,9.7834,0.6579,0.8994,-0.341
6815,962,694,34.473,31.575,-0.0197,0.0499,9.8407,0.319,-0.3997,0.3131
6820,964,695,34.368,31.787,-0.0181,0.043,9.8479,-0.7658,0.9068,0.8638
6825,973,700,34.395,31.674,-0.0094,0.0643,9.7584,0.1299,-0.7223,0.1126
6830,986,696,34.342,31.628,-0.0427,0.0201,9.7273,0.0842,-0.1535,0.9297
6835,1004,695,34.361,31.649,0.0918,-0.0725,9.7408,-0.0901,-0.6533,0.5872
6840,1008,699,34.4,31.719,-0.0556,-0.0953,9.8231,0.0632,0.226,0.2429
6845,1024,692,34.378,31.659,0.0391,0.0741,9.7813,-0.1645,0.6474,0.5481
6850,1033,692,34.396,31.747,0.0552,0.0384,9.7961,0.1354,0.495,-0.7894
6855,1032,690,34.379,31.721,-0.0424,-0.0748,9.873,-0.5482,-0.0132,0.6807
6860,1039,695,34.392,31.716,-0.0062,-0.0439,9.8664,-0.002,0.155,0.0189
6865,1056,693,34.524,31.726,0.0098,0.0038,9.7726,-0.2361,0.5275,-0.1603
6870,1061,696,34.406,31.753,-0.0417,-0.0374,9.7909,-0.6131,0.383,-1.2025
6875,1078,697,34.507,31.671,0.0238,-0.0324,9.8398,0.41,-0.1862,0.4617
6880,1077,698,34.403,31.663,0.0291,0.0031,9.6928,-0.5224,0.5363,0.1461
6885,1089,698,34.341,31.647,-0.0476,-0.0204,9.8093,-0.3133,0.0881,-0.0419
6890,1103,704,34.371,31.637,0.0862,0.0023,9.746,-0.871,0.1392,0.2666
6895,1108,702,34.49,31.718,0.0566,-0.0153,9.8004,0.4287,-0.0906,-0.5741
6900,1112,705,34.366,31.718,0.0241,-0.0757,9.7867,0.1752,0.7777,-0.0479
6905,1112,707,34.342,31.667,0.0618,-0.0103,9.8564,-0.0481,1.2482,0.1194
6910,1120,707,34.357,31.626,0.0232,-0.0021,9.7065,-0.3349,0.4233,0.2181
6915,1130,713,34.345,31.719,-0.0522,0.0998,9.7762,-0.2423,0.0506,-0.2831
6920,1135,712,34.41,31.618,-0.0582,0.0178,9.8435,0.5511,0.1015,-0.107
6925,1141,718,34.405,31.671,-0.0016,0.0705,9.8797,0.4138,0.2693,-0.376
6930,1154,717,34.435,31.725,0.0332,0.0422,9.8732,0.2756,0.6401,1.1708
6935,1154,721,34.44,31.693,-0.0601,-0.0495,9.8178,0.7795,0.4771,-0.0786
6940,1155,730,34.373,31.592,-0.0429,0.055,9.761,-0.2264,-1.4602,0.4268
6945,1168,730,34.367,31.694,-0.0316,-0.0708,9.834,-0.437,-0.3024,0.4126
6950,1165,736,34.383,31.769,-0.0084,-0.0185,9.7796,-0.1409,0.2758,0.2302
6955,1177,739,34.439,31.739,-0.1038,-0.021,9.7832,-0.6555,-0.7899,0.4727
6960,1174,737,34.429,31.734,0.0412,-0.0271,9.7593,-0.1353,1.2705,-0.406
6965,1176,748,34.431,31.697,-0.0337,-0.1078,9.8357,0.4354,-1.082,-0.657
6970,1182,747,34.441,31.707,0.08,0.0039,9.7829,0.8624,0.0431,0.5264
6975,1178,755,34.367,31.617,0.05,-0.1421,9.8736,0.2793,-0.3561,0.0759
6980,1177,761,34.436,31.622,0.0174,0.0177,9.8209,-0.044,0.3233,-0.5512
6985,1188,756,34.384,31.628,0.052,-0.0144,9.8822,-0.7129,0.804,-0.4268
6990,1183,761,34.491,31.64,0.0537,0.0165,9.8018,-0.7067,0.5894,0.1163
6995,1190,769,34.336,31.635,0.1122,0.0498,9.7544,0.5521,-0.0822,-0.4103
7000,1185,772,34.41,31.653,-0.0302,0.045,9.7495,0.6853,0.2384,0.0767
7005,1184,780,34.385,31.699,-0.0217,-0.0523,9.868,-0.1286,1.0106,-0.9672
7010,1196,786,34.376,31.665,-0.0212,0.0019,9.8179,-0.1769,0.1306,-0.1984
7015,1187,787,34.338,31.721,0.0102,-0.0502,9.7379,-0.9536,0.1103,0.2997
7020,1192,791,34.423,31.745,0.038,-0.0148,9.7911,-0.6355,0.1555,0.744
7025,1194,797,34.33,31.741,-0.025,0.079,9.8495,-0.4762,0.4077,0.2533
7030,1183,802,34.388,31.645,-0.0365,0.1125,9.7276,-0.0242,-0.5022,-1.4408
7035,1182,807,34.423,31.754,-0.0127,-0.0818,9.6919,0.3701,0.7837,0.5715
7040,1193,809,34.381,31.63,-0.0716,0.0075,9.7392,0.1582,-0.0524,0.4788
7045,1179,811,34.34,31.712,-0.0072,0.1155,9.8598,0.2439,0.576,-0.858
7050,1180,814,34.381,31.657,-0.0203,0.0319,9.7745,0.6969,-0.0468,0.2877
7055,1175,819,34.412,31.742,-0.0229,0.0296,9.7529,-0.2018,-0.2095,0.5248
7060,1171,815,34.352,31.712,0.0301,-0.0418,9.8708,0.0634,-1.4894,-0.1435
7065,1188,824,34.381,31.703,-0.0306,-0.015,9.817,-0.2433,-0.1585,0.0242
7070,1187,837,34.461,31.688,0.047,-0.01,9.8039,-0.3764,-0.5025,0.686
7075,1176,844,34.461,31.644,-0.0641,-0.0013,9.7935,0.7938,-0.1631,-0.414
7080,1168,832,34.326,31.643,-0.0375,0.0292,9.8612,-0.8088,0.2795,-0.0055
7085,1177,841,34.42,31.727,0.0161,0.01,9.8205,-0.3549,0.1828,0.3372
7090,1169,839,34.382,31.691,0.0599,0.0633,9.9042,0.0213,0.3294,-0.4311
7095,1167,843,34.37,31.654,0.0584,-0.0723,9.7814,-0.29,-0.8742,-0.8054
7100,1160,848,34.446,31.639,-0.0041,-0.0628,9.7288,-0.2023,0.8023,-0.4003
7105,1161,851,34.481,31.743,0.0133,0.0963,9.881,-0.5542,-0.1037,0.5586
7110,1147,859,34.451,31.769,-0.0606,-0.0211,9.866,-0.6275,-0.0927,-0.5476
7115,1147,859,34.427,31.768,-0.0608,0.0042,9.8352,0.6714,-0.1539,0.0123
7120,1151,863,34.292,31.744,0.0393,0.0947,9.7242,0.1617,0.6203,-0.0697
7125,1150,860,34.338,31.675,-0.018,0.0727,9.7639,0.3615,-0.4955,0.5432
7130,1140,863,34.374,31.704,0.0482,0.0842,9.7785,0.019,-0.5453,-0.0219
7135,1140,871,34.437,31.696,-0.0178,-0.148,9.8487,-0.1491,-0.6037,0.5459
7140,1131,867,34.396,31.696,0.0253,-0.1039,9.8785,0.2709,-0.1092,-0.0949
7145,1132,870,34.363,31.726,-0.0514,0.036,9.7985,0.229,-0.2974,0.1726
7150,1131,869,34.429,31.689,0.0362,0.0766,9.8521,-0.1539,-0.3606,0.1477
7155,1124,872,34.417,31.708,0.1032,0.0299,9.8003,0.2287,-0.0195,-0.3189
7160,1121,868,34.429,31.695,-0.0084,-0.0132,9.7588,0.0669,-0.6537,0.0106
7165,1114,875,34.362,31.664,-0.1016,-0.0001,9.7679,-0.4359,0.0517,0.2952
7170,1126,882,34.361,31.641,-0.1091,0.0198,9.9501,0.5934,-0.3884,-0.5945
7175,1122,879,34.393,31.737,-0.1105,0.0869,9.8274,0.0903,0.378,-0.402
7180,1123,874,34.494,31.674,0.0623,0.0531,9.8424,0.0436,0.7241,0.0614
7185,1114,877,34.416,31.675,0.1053,-0.0609,9.7819,-0.4518,-0.0039,0.0134
7190,1110,874,34.455,31.679,0.0099,-0.0167,9.8342,-0.0846,-0.2204,0.1758
7195,1108,885,34.391,31.74,-0.0433,0.0692,9.7793,-0.2582,0.0154,0.5576
7200,1104,878,34.413,31.659,-0.1236,-0.0214,9.837,0.0742,0.3129,0.4834
7205,1111,882,34.402,31.722,-0.0215,-0.0086,9.8072,-0.5998,-0.2275,-0.2533
7210,1104,884,34.373,31.66,0.0496,0.0152,9.8045,-0.0568,0.6155,-0.8368
7215,1098,881,34.419,31.741,0.0476,-0.0691,9.7091,-0.497,0.6604,0.3456
7220,1108,875,34.382,31.71,0.0175,0.0,9.797,0.4428,-0.0222,0.2355
7225,1111,875,34.416,31.851,0.0088,-0.0199,9.7722,-0.3417,0.4434,-0.0511
7230,1100,875,34.429,31.722,0.038,0.0665,9.7237,0.5504,-0.3032,0.1684
7235,1096,879,34.422,31.75,0.0103,-0.0128,9.8465,0.8387,0.6957,-0.8391
7240,1093,880,34.431,31.789,-0.0238,-0.0181,9.711,0.984,0.0603,-0.4374
7245,1100,873,34.495,31.709,0.0399,0.0545,9.8343,0.3264,0.2419,-0.0999
7250,1094,877,34.426,31.735,0.0072,-0.0085,9.7353,-0.1491,0.0552,0.1909
7255,1084,879,34.433,31.697,0.0214,0.0194,9.7374,-0.7533,-0.2013,-0.1703
7260,1088,877,34.401,31.681,0.0476,-0.0099,9.7718,-0.3612,-0.3309,-0.3469
7265,1074,871,34.432,31.625,0.0118,-0.0256,9.828,0.2706,-1.0911,0.7286
7270,1079,871,34.308,31.734,0.0569,0.0205,9.7969,-0.8219,0.3206,0.4552
7275,1083,871,34.43,31.81,0.029,0.099,9.7177,-0.5369,0.0673,0.0389
7280,1080,869,34.409,31.732,0.0428,-0.0173,9.8198,-0.7359,0.0383,0.407
7285,1079,868,34.361,31.724,-0.0305,-0.0631,9.7788,-0.3044,0.7586,-0.3469
7290,1086,864,34.506,31.652,0.012,-0.0074,9.7556,-0.3915,-0.2557,-0.3954
7295,1079,864,34.358,31.697,-0.0544,-0.0845,9.8556,0.9056,0.2668,0.5453
7300,1068,865,34.478,31.737,0.0167,0.0276,9.6984,0.7133,0.5091,0.1498
7305,1069,863,34.484,31.681,0.0677,-0.0262,9.8076,0.0925,-0.3183,-0.0379
7310,1068,858,34.417,31.803,-0.0139,0.006,9.7943,0.3344,0.9953,0.0679
7315,1065,861,34.291,31.604,-0.0485,-0.0727,9.7596,-0.0764,0.523,-1.0563
7320,1068,864,34.429,31.77,-0.0489,-0.0154,9.6964,0.1858,-0.0292,-0.5029
7325,1055,861,34.398,31.667,-0.0201,-0.0846,9.7551,0.0025,-0.2715,-0.2737
7330,1057,863,34.389,31.677,-0.049,0.0275,9.8095,0.1575,-0.1141,-0.6892
7335,1059,863,34.412,31.722,0.0097,-0.0417,9.8708,0.9668,-0.2568,-0.4674
7340,1056,857,34.354,31.636,0.0616,0.0294,9.741,0.1669,-0.5517,-0.2651
7345,1046,854,34.373,31.7,0.0976,-0.0202,9.7827,-0.1005,-0.1032,0.4629
7350,1043,850,34.363,31.665,-0.0353,-0.0359,9.7985,0.2921,-1.3417,-0.2527
7355,1035,856,34.33,31.738,0.0439,0.0123,9.7707,-0.0163,0.4158,-0.3965
7360,1031,852,34.429,31.708,-0.0426,0.0928,9.9256,0.9924,-0.2739,0.2753
7365,1033,849,34.44,31.667,-0.0126,-0.0313,9.8263,0.7633,0.763,-0.4826
7370,1028,846,34.411,31.672,-0.1616,-0.0119,9.8441,-0.4064,1.3104,-1.1383
7375,1021,849,34.336,31.588,-0.0259,0.0342,9.7377,0.3213,0.186,0.4142
7380,1016,852,34.355,31.655,-0.0676,0.0093,9.8222,0.0038,0.4646,-0.6593
7385,1011,852,34.393,31.597,0.0152,0.0682,9.7617,-0.2683,-0.2737,-1.3011
7390,1012,846,34.444,31.552,0.0919,-0.1116,9.8273,0.1091,0.3391,-0.1204
7395,1010,850,34.317,31.673,0.0064,0.0329,9.8031,-0.2906,-0.1957,0.2619
7400,1002,842,34.36,31.822,0.0332,0.131,9.7996,0.7918,0.1838,-0.9779
7405,986,844,34.393,31.72,-0.0085,-0.0407,9.786,-0.0649,0.7497,0.5217
7410,986,847,34.393,31.778,0.0759,0.037,9.7468,-0.6041,0.2423,-0.3122
7415,979,839,34.466,31.675,-0.063,0.0156,9.7306,0.4183,-0.4389,-0.5026
7420,969,845,34.438,31.632,0.0228,-0.0317,9.8944,-0.804,1.0087,0.3192
7425,964,845,34.481,31.759,-0.0023,-0.1234,9.788,-0.1374,-0.25,-0.4069
7430,960,842,34.452,31.646,-0.0528,-0.0465,9.7853,-0.9347,-0.3024,0.0391
7435,951,843,34.377,31.748,0.0127,0.0914,9.8107,0.2629,-0.1798,-0.5277
7440,947,836,34.429,31.637,-0.0272,0.0049,9.747,-0.9159,0.901,-0.1897
7445,931,837,34.405,31.774,-0.0275,-0.0058,9.8265,0.7354,0.0315,-0.0646
7450,931,839,34.384,31.642,0.0556,-0.083,9.7826,0.7062,0.1193,0.2575
7455,926,836,34.454,31.726,0.0125,-0.0514,9.8431,-0.3336,-0.958,0.8628
7460,907,831,34.337,31.673,-0.0171,-0.0786,9.8504,0.1577,-0.5125,0.9791
7465,897,834,34.43,31.713,0.0301,-0.0188,9.805,-1.0453,0.3676,0.5571
7470,914,832,34.461,31.74,-0.0254,0.0028,9.7939,0.4831,0.3127,-0.1395
7475,893,831,34.399,31.74,0.036,-0.0549,9.819,0.1819,-0.0469,1.17
7480,894,832,34.425,31.756,-0.011,-0.0317,9.7768,0.0858,-1.0825,0.1548
7485,877,828,34.435,31.705,-0.0209,0.0309,9.9011,0.1235,-1.1508,-0.6127
7490,879,835,34.433,31.742,-0.0511,0.0173,9.8359,0.7517,0.5803,-0.0528
7495,873,837,34.32,31.649,-0.0984,-0.0056,9.811,0.313,0.7246,0.3805
7500,857,830,34.478,31.734,0.1012,0.0302,9.8844,-0.3518,-0.2083,0.1362
7505,856,826,34.394,31.647,0.044,0.0287,9.8245,-0.8129,0.6749,-0.2818
7510,842,828,34.449,31.716,0.0189,0.0021,9.778,-0.3606,-0.1858,0.1609
7515,841,824,34.315,31.696,-0.0494,0.0917,9.7874,-0.8608,0.5546,0.0965
7520,828,828,34.432,31.689,-0.052,-0.0704,9.7438,0.1997,0.7997,-0.6917
7525,824,819,34.417,31.704,-0.0844,-0.0129,9.8693,1.2988,0.2125,-0.365
7530,816,820,34.351,31.721,-0.028,-0.0141,9.8779,-1.3485,0.5964,-0.4876
7535,822,821,34.382,31.761,-0.004,-0.0105,9.8104,0.9324,-0.2784,-0.0502
7540,804,821,34.499,31.682,-0.0168,0.0022,9.823,-0.3897,0.2935,0.1721
7545,797,813,34.407,31.675,-0.0,-0.0422,9.8179,-0.6746,-0.1533,-0.1658
7550,799,814,34.413,31.699,0.043,-0.0374,9.8496,-0.0246,-0.1193,0.1897
7555,792,818,34.482,31.739,-0.0126,0.0624,9.7567,0.2915,-0.3447,-0.2563
7560,784,817,34.45,31.73,-0.0241,-0.0416,9.8,-0.5588,0.6166,-0.0082
7565,778,812,34.387,31.689,-0.0365,-0.0086,9.8378,0.499,-0.0518,0.3197
7570,768,810,34.434,31.677,-0.0197,0.0409,9.8498,0.3479,-0.4208,-0.4165
7575,778,802,34.399,31.668,0.0175,-0.067,9.8413,-0.466,0.7274,-0.4016
7580,764,805,34.353,31.67,-0.024,0.0123,9.7495,-0.1515,-0.0372,0.1931
7585,766,797,34.443,31.679,-0.0212,-0.012,9.8295,0.0302,0.1375,0.6207
7590,760,800,34.367,31.729,-0.1227,0.0252,9.841,-0.3991,-0.1399,0.3276
7595,755,800,34.381,31.664,0.0309,-0.0608,9.7698,0.1999,-0.6599,-0.5148
7600,754,795,34.417,31.681,-0.0683,-0.0157,9.8297,-0.2764,0.4305,0.28
7605,757,795,34.397,31.712,0.1112,0.0465,9.7864,1.5332,-0.3795,0.0954
7610,746,788,34.35,31.739,-0.0231,0.0895,9.857,0.676,-1.0732,0.4075
7615,754,792,34.382,31.691,-0.0009,0.0031,9.8487,-0.1201,0.5708,-0.8962
7620,745,789,34.376,31.731,-0.091,-0.0686,9.7091,-0.2262,-0.4807,0.083
7625,747,778,34.304,31.698,-0.0117,-0.0549,9.8115,-0.4417,0.4784,-0.0895
7630,752,779,34.418,31.667,0.0599,-0.0087,9.7789,0.4124,-0.7276,-0.8884
7635,750,775,34.482,31.731,0.0558,-0.0123,9.7737,-0.1959,-0.3992,-0.2853
7640,746,774,34.34,31.732,0.0394,0.0294,9.8561,0.3379,-0.4013,-0.8033
7645,743,767,34.367,31.795,-0.0354,0.0167,9.7357,0.1805,0.3207,0.4207
7650,753,771,34.403,31.655,0.0238,0.0489,9.7848,1.0933,0.0416,-0.0534
7655,761,763,34.334,31.659,-0.0558,-0.0236,9.8175,0.2816,0.255,0.4217
7660,758,755,34.445,31.725,-0.0546,-0.0202,9.8026,0.3798,-0.3565,0.8584
7665,757,762,34.367,31.686,-0.0434,0.035,9.7851,-0.4416,0.4464,-1.2327
7670,761,757,34.38,31.76,-0.0769,-0.0571,9.8093,-0.5142,-0.4899,-0.1793
7675,761,754,34.373,31.725,0.0995,-0.0249,9.8664,-0.778,-0.7894,0.7137
7680,768,751,34.427,31.641,-0.0437,-0.0081,9.8287,-0.5058,0.1852,-0.109
7685,765,744,34.462,31.71,0.0899,-0.0248,9.7813,0.8755,-0.2219,0.6914
7690,788,743,34.356,31.649,-0.0529,-0.0947,9.7723,0.2569,0.5169,-0.0893
7695,793,738,34.462,31.677,-0.0681,-0.0338,9.813,0.3208,0.0578,0.0729
7700,798,733,34.343,31.74,0.0395,-0.006,9.775,-0.0801,0.1365,0.0658
7705,799,729,34.464,31.667,-0.0548,-0.026,9.8401,0.951,0.3848,-2.044
7710,802,725,34.356,31.785,0.0791,-0.0218,9.7516,0.1943,0.6217,-0.3412
7715,809,732,34.449,31.684,0.002,-0.0238,9.7165,-0.391,-0.5486,-0.7164
7720,817,725,34.406,31.761,-0.0537,0.0265,9.7826,-0.0467,-0.461,0.1719
7725,829,718,34.408,31.643,0.0438,-0.0003,9.8421,0.143,0.8859,0.7877
7730,836,718,34.311,31.731,0.0668,-0.0429,9.8096,-0.1632,-0.4766,0.3747
7735,838,719,34.419,31.689,0.0469,-0.044,9.8497,0.806,0.0939,0.2175
7740,852,712,34.315,31.699,-0.0335,-0.0929,9.7014,0.4478,-0.2944,-0.1129
7745,866,712,34.467,31.685,-0.0442,-0.0856,9.8526,-0.2043,0.0976,0.7646
7750,866,713,34.378,31.709,-0.0081,-0.0685,9.7557,-0.3047,-0.3022,-0.2327
7755,877,707,34.377,31.726,0.017,-0.0105,9.8307,-0.5674,0.6204,-0.5145
7760,889,707,34.425,31.711,-0.0555,0.08,9.7612,-0.1008,0.1892,-0.3395
7765,896,701,34.418,31.667,-0.0716,-0.0053,9.7465,0.7565,-0.6793,0.1314
7770,907,699,34.379,31.841,-0.0628,0.033,9.76,-0.2521,0.5269,-0.1543
7775,916,699,34.364,31.72,0.0513,0.0221,9.7628,-0.3375,-0.5007,0.2625
7780,918,696,34.431,31.653,0.0116,0.0215,9.8173,-0.2612,-0.0949,-0.1884
7785,936,695,34.415,31.728,0.0392,0.003,9.7732,-0.6638,-0.0291,0.5077
7790,946,702,34.38,31.729,0.0327,0.0722,9.8238,-0.1333,-0.7487,-0.8963
7795,955,694,34.476,31.648,0.0464,0.0048,9.8984,0.4274,0.0982,-0.2186
7800,967,692,34.331,31.668,0.0614,-0.0141,9.8555,-0.3977,-0.2976,-0.3492
7805,968,694,34.381,31.761,0.0427,-0.0422,9.7678,0.1458,-0.1099,-0.223
7810,985,695,34.491,31.732,0.0426,0.0536,9.8469,0.4455,-1.3045,0.7343
7815,997,693,34.471,31.682,-0.0064,-0.0585,9.7934,-0.1016,0.5254,0.5176
7820,1009,694,34.486,31.671,-0.0386,0.0157,9.7608,0.1013,0.496,-0.7247
7825,1025,697,34.402,31.686,0.0045,-0.0138,9.7605,-0.7425,0.8103,0.5736
7830,1026,691,34.379,31.672,0.0342,-0.1013,9.8239,-0.9392,0.2872,0.2325
7835,1037,692,34.481,31.561,0.0031,-0.0437,9.8153,-0.6067,-0.9296,0.2224
7840,1045,690,34.326,31.687,-0.0824,-0.0169,9.8556,0.3016,-0.3485,-0.2399
7845,1052,688,34.437,31.773,0.0267,-0.0366,9.7873,0.4299,0.6614,-0.4301
7850,1065,696,34.358,31.663,-0.0279,0.0656,9.7645,0.315,0.5454,0.3461
7855,1069,699,34.321,31.775,0.007,-0.0444,9.7574,-0.3013,-0.3835,-0.2683
7860,1082,698,34.339,31.701,-0.0527,0.0012,9.8339,-0.7463,0.6245,-0.8279
7865,1078,700,34.4,31.575,-0.0247,-0.1043,9.7606,0.2561,-0.4937,0.4553
7870,1104,707,34.453,31.724,0.0874,0.0002,9.797,-0.2668,-0.3849,0.24
7875,1107,703,34.474,31.702,-0.0707,0.0338,9.836,-0.5371,-0.4214,0.5404
7880,1106,708,34.387,31.725,-0.0012,-0.101,9.7699,-0.6649,-0.1445,-0.7642
7885,1113,706,34.366,31.578,0.03,0.0206,9.8164,-0.3388,0.7354,0.7565
7890,1127,705,34.432,31.803,-0.0105,-0.0091,9.7768,-0.4803,-0.8717,-0.8752
7895,1134,709,34.323,31.734,-0.0135,0.0161,9.8308,0.3096,-0.038,-0.238
7900,1133,713,34.366,31.645,0.0228,-0.022,9.7729,-0.3355,0.1617,0.5117
7905,1140,725,34.401,31.73,0.0386,-0.0904,9.8058,0.0564,0.0087,-0.5888
7910,1150,722,34.431,31.677,0.0209,0.0003,9.8864,0.1729,0.0847,-1.1133
7915,1146,726,34.419,31.672,-0.0158,0.1111,9.7196,0.3987,-0.3247,-0.0293
7920,1148,731,34.284,31.71,0.0554,-0.0051,9.8137,-0.1869,0.2108,0.0724
7925,1161,736,34.39,31.684,0.0233,-0.0369,9.8774,-0.4315,0.4177,0.2733
7930,1162,738,34.289,31.696,0.0711,0.0742,9.8768,0.2712,-1.2248,0.5937
7935,1170,744,34.368,31.693,0.0368,-0.0065,9.7267,0.5272,0.567,0.6096
7940,1174,742,34.432,31.661,-0.0041,-0.0346,9.8058,0.4816,-0.156,0.4637
7945,1189,742,34.445,31.671,-0.0005,-0.0634,9.8745,-0.528,-0.7186,0.1866
7950,1176,749,34.406,31.686,0.0681,0.1037,9.8356,0.3454,0.7729,-0.1699
7955,1188,754,34.481,31.725,-0.0003,0.1191,9.7578,0.0802,0.0396,0.3175
7960,1184,758,34.346,31.767,0.042,-0.0221,9.7019,-0.5635,-0.2736,0.2261
7965,1182,764,34.404,31.739,-0.0693,-0.0167,9.8447,0.7274,0.2842,-0.1105
7970,1187,764,34.432,31.682,0.0506,0.0077,9.8068,0.5229,-0.6059,-0.0861
7975,1185,770,34.475,31.671,0.0119,-0.1395,9.761,0.573,-0.5851,0.2767
7980,1189,775,34.364,31.755,-0.1188,0.055,9.8861,-0.6079,-0.4853,0.8076
7985,1187,774,34.508,31.645,0.1132,-0.0467,9.8874,0.4321,-0.0688,-0.4321
7990,1189,786,34.416,31.728,-0.022,-0.0159,9.8301,0.1716,-0.2077,0.4145
7995,1187,788,34.402,31.743,0.0436,0.0636,9.9189,-0.6168,-1.01,-0.1105
8000,1175,789,34.398,31.736,-0.0229,-0.0281,9.8483,0.426,0.1678,0.3373
8005,1197,796,34.358,31.725,0.0651,0.1068,9.8351,0.336,-0.4633,-1.3771
8010,1183,798,34.485,31.675,-0.0782,0.0801,9.8507,-0.9821,-0.2002,-0.3301
8015,1188,807,34.329,31.631,0.0854,0.0128,9.7827,-0.3537,0.4529,0.246
8020,1186,806,34.46,31.762,-0.039,-0.1213,9.758,-0.5192,-0.35,-0.1061
8025,1181,811,34.417,31.712,0.06,-0.0528,9.8597,-0.6761,-0.1332,-0.57
8029,1183,820,34.451,31.766,-0.0998,0.0101,9.7821,-0.5531,0.2022,-0.0276
8035,1184,818,34.299,31.743,-0.0065,0.0354,9.8029,0.0565,0.1672,-0.1139
8039,1168,824,34.44,31.695,0.0321,-0.0882,9.7491,0.3055,0.3866,-1.0382
8045,1178,827,34.381,31.608,0.0005,-0.003,9.7815,-0.0251,-0.2464,-0.1807
8050,1167,833,34.437,31.705,0.0224,0.0209,9.7501,-0.1678,-0.2071,-1.2864
8055,1163,837,34.466,31.655,-0.0194,-0.0345,9.8241,-0.3223,-0.3584,0.2536
8060,1173,836,34.385,31.685,-0.0438,-0.0017,9.7459,-0.5816,-0.5824,-1.1329
8064,1179,842,34.424,31.638,0.0075,0.0957,9.8134,0.1389,-0.0201,0.1352
8070,1165,847,34.364,31.681,-0.0429,-0.0001,9.9034,0.0068,-0.6669,-0.2108
8074,1156,849,34.328,31.637,0.0049,-0.0027,9.8328,0.0207,0.3877,0.147
8080,1168,850,34.37,31.67,0.0085,-0.0752,9.8053,0.1759,0.407,-1.0761
8085,1158,855,34.464,31.758,-0.0197,-0.0515,9.8389,-0.6422,0.0058,0.4417
8090,1155,859,34.423,31.654,-0.11,0.0804,9.8057,0.5874,-1.1253,-0.6056
8095,1149,856,34.399,31.722,-0.0106,-0.0385,9.7769,0.6943,-0.3701,-0.6874
8100,1145,862,34.429,31.693,0.0435,0.01,9.837,0.6151,0.8767,-0.837
8105,1161,864,34.416,31.664,-0.0496,0.0427,9.8297,0.9656,-0.1081,-0.2466
8109,1143,872,34.446,31.654,-0.0054,-0.0638,9.8443,0.1065,0.3296,0.5148
8115,1146,870,34.386,31.623,0.0199,0.0723,9.8093,-0.2936,0.5185,-0.0281
8119,1141,868,34.321,31.746,0.0496,0.0088,9.8823,0.1966,-0.9535,-0.4158
8125,1138,872,34.382,31.641,0.0067,0.0687,9.8173,0.4048,0.3058,-0.2731
8130,1127,874,34.391,31.808,-0.0205,0.0066,9.8322,-0.7747,0.2077,-1.4415
8135,1135,874,34.309,31.683,0.0262,0.0566,9.785,-0.3857,-0.2555,-0.2865
8140,1132,875,34.394,31.73,-0.0546,-0.0848,9.8695,-0.457,-0.1245,0.4047
8145,1118,872,34.356,31.713,0.0156,0.057,9.7072,-0.2639,-0.7615,0.8223
8150,1128,879,34.356,31.675,-0.0127,-0.0329,9.7992,-0.1876,-0.2891,-0.2896
8154,1120,871,34.366,31.743,0.0544,0.0357,9.7528,-0.0486,0.0677,-0.3167
8160,1121,880,34.411,31.727,0.0644,0.0331,9.8364,0.4484,-0.4809,0.4884
8164,1110,874,34.315,31.625,0.0816,0.0562,9.9354,0.3343,0.0107,-0.2095
8170,1114,881,34.4,31.702,-0.0351,0.0757,9.7889,0.3937,0.4298,-0.2088
8175,1104,878,34.356,31.754,-0.0296,-0.0787,9.8248,0.2286,0.2891,0.2221
8180,1107,879,34.417,31.834,-0.0411,-0.0551,9.8072,0.4665,-0.1695,-0.3888
8185,1101,878,34.436,31.766,-0.0233,0.0109,9.8763,0.0996,-0.1925,0.6394
8189,1104,878,34.434,31.687,-0.0156,-0.0062,9.7579,0.8852,0.5725,-0.2805
8195,1105,880,34.464,31.71,0.09,-0.0689,9.7686,-0.1816,-0.7542,0.3058
8200,1104,882,34.371,31.742,-0.0692,0.0518,9.7987,-0.3928,-0.5938,-0.2581
8205,1101,873,34.442,31.687,0.0663,0.0407,9.7787,0.5312,0.4218,0.3733
8210,1094,878,34.423,31.704,-0.0203,0.0333,9.7541,0.5114,1.3389,0.0507
8215,1095,878,34.367,31.827,0.064,0.0152,9.8456,0.1044,-0.0331,-0.5839
8220,1089,879,34.349,31.721,0.1148,0.0292,9.774,-0.3259,-0.1191,0.9068
8225,1091,877,34.397,31.613,-0.0441,-0.1019,9.8454,-0.4635,1.0176,-0.4211
8230,1094,877,34.352,31.643,0.0367,0.1385,9.7987,-0.2423,-0.8218,0.0936
8235,1093,876,34.41,31.711,-0.031,0.0176,9.8106,-0.3288,-0.1718,0.6027
8240,1097,877,34.419,31.738,-0.0288,-0.0188,9.8601,-0.3056,0.3524,0.4733
8245,1084,883,34.396,31.627,0.009,-0.0097,9.8458,0.2349,0.3963,-0.4766
8250,1083,867,34.486,31.624,-0.0171,-0.0978,9.8468,-0.4874,-0.0963,-0.8848
8255,1078,864,34.329,31.656,-0.041,-0.0357,9.8941,-0.6805,-0.9952,-0.6329
8260,1078,868,34.399,31.716,0.0234,-0.033,9.7971,0.4578,0.1094,0.0044
8265,1076,869,34.412,31.705,-0.0329,0.0499,9.7817,-0.3889,-0.2234,-0.3893
8270,1076,865,34.375,31.65,0.0386,-0.0718,9.78,-0.2356,-0.0259,0.6163
8275,1066,864,34.435,31.714,0.0074,-0.0022,9.8009,-0.0453,0.2208,-0.7608
8280,1075,866,34.497,31.712,0.0098,-0.0754,9.7589,-0.8491,0.6096,0.0449
8285,1075,867,34.388,31.738,-0.0191,-0.0941,9.7271,-0.921,-0.0902,-0.0878
8290,1071,859,34.381,31.687,0.0953,-0.082,9.7406,-1.3075,0.1938,-0.1143
8295,1061,860,34.41,31.738,-0.0845,0.1536,9.8885,0.1776,0.8589,-0.4284
8300,1055,864,34.378,31.664,-0.0309,-0.0498,9.754,0.1363,-0.0069,0.7783
8305,1052,859,34.405,31.667,-0.0326,-0.0242,9.8306,-0.4334,-0.5738,-0.3022
8310,1053,861,34.436,31.689,0.1103,0.0322,9.8466,-0.1524,0.4644,0.1537
8315,1056,860,34.448,31.676,0.0035,0.0311,9.8403,0.6039,0.1477,-0.6776
8320,1052,857,34.429,31.694,-0.0253,-0.0542,9.8816,0.2702,-0.0933,-0.4642
8325,1052,856,34.45,31.663,0.0699,-0.019,9.7647,0.3433,-0.8142,-0.3597
8330,1050,856,34.463,31.692,-0.0815,-0.0018,9.7316,-0.7493,-0.6975,-0.2069
8335,1042,856,34.374,31.726,-0.0198,-0.0426,9.9166,-0.4966,0.2446,-0.2597
8340,1032,853,34.418,31.617,0.0512,-0.0974,9.7892,-0.5788,0.7805,-0.3827
8345,1030,854,34.451,31.77,0.0585,0.0019,9.7319,0.1208,0.3832,-0.9386
8350,1025,848,34.381,31.679,0.0342,-0.0491,9.8615,-0.4919,-0.2575,0.0062
8355,1015,851,34.405,31.621,-0.0553,0.0413,9.9204,0.4749,-0.2161,-0.7388
8360,1016,847,34.376,31.63,-0.0074,-0.0969,9.852,0.6705,0.4955,-0.1218
8365,1020,845,34.463,31.761,0.0602,0.0321,9.816,0.1249,0.357,0.6259
8370,1007,843,34.383,31.713,-0.0188,0.0183,9.8508,0.2823,-0.3457,-0.2076
8375,997,844,34.51,31.66,-0.0137,-0.0232,9.8759,-0.1202,-0.0289,-1.0885
8380,979,847,34.399,31.708,-0.044,-0.0912,9.8673,0.8765,-0.5158,1.0378
8385,986,846,34.398,31.623,0.0418,-0.0221,9.7905,-0.0709,-0.3022,-0.2299
8390,984,845,34.32,31.687,0.04,0.0402,9.7659,1.1664,0.0833,-0.2081
8395,985,840,34.331,31.764,-0.0525,-0.0623,9.8771,-0.2256,0.506,0.1292
8400,971,842,34.402,31.779,0.0083,-0.0021,9.9243,-0.8116,1.0778,-0.4297
8405,963,837,34.436,31.672,-0.0405,-0.0011,9.8157,-0.1989,-0.3344,0.402
8410,960,842,34.364,31.646,0.0262,-0.065,9.7599,-0.3631,-0.1547,-1.2744
8415,955,841,34.422,31.719,-0.0406,-0.0114,9.8142,0.0048,0.2587,-0.0721
8420,947,842,34.359,31.652,-0.0158,-0.0466,9.7821,-0.2824,0.2721,0.7596
8425,930,840,34.424,31.679,-0.0655,0.0106,9.7927,-0.0599,-0.2103,0.3815
8430,934,837,34.408,31.712,0.047,-0.0223,9.9039,-0.1286,-0.1245,0.6022
