timestamp_ms,ir_finger,ir_toe,temp_finger,temp_toe,ax,ay,az,gx,gy,gz
0,1051,768,33.656,25.648,0.021,-0.0261,9.7764,0.6161,0.2487,-0.4681
5,1054,769,33.56,25.679,0.054,-0.0499,9.8176,0.1017,0.2178,-0.4281
10,1067,767,33.644,25.598,0.0253,-0.0317,9.8002,0.0623,0.5014,0.3092
15,1082,766,33.583,25.711,0.0745,-0.0033,9.845,0.4449,-0.446,0.6685
20,1088,764,33.592,25.621,-0.0142,-0.0649,9.7302,-0.8406,0.1106,-0.2965
25,1105,763,33.663,25.648,0.0092,0.0193,9.8754,-0.3866,0.1887,-0.1448
30,1111,755,33.609,25.63,0.0321,-0.0424,9.8727,-0.2893,-0.5258,0.8388
35,1117,757,33.581,25.605,0.0223,-0.0435,9.839,0.3393,0.468,0.6673
40,1138,754,33.481,25.574,0.0374,0.0008,9.7965,0.6464,-0.1198,-0.5758
45,1134,752,33.63,25.7,0.053,0.0038,9.8373,-1.0999,0.8042,-0.5739
50,1151,750,33.564,25.576,-0.0172,0.0047,9.8449,-0.2492,-0.2458,0.3157
55,1151,747,33.695,25.693,-0.0296,0.0497,9.8013,-0.4347,0.212,0.0484
60,1153,744,33.603,25.662,0.0245,-0.0844,9.7436,0.233,0.1085,-0.3846
65,1150,744,33.559,25.731,0.007,-0.0297,9.8515,-0.746,0.3708,-0.658
70,1172,742,33.52,25.664,-0.0107,-0.0369,9.8529,-0.804,0.15,-0.13
75,1172,738,33.551,25.664,-0.0018,0.0277,9.8644,-0.2238,-0.3313,-0.1982
80,1190,748,33.571,25.703,0.0869,0.0405,9.7753,-0.1947,0.5575,0.3225
85,1181,741,33.541,25.697,0.0719,0.1023,9.8322,-0.3326,-0.1803,0.0408
90,1176,733,33.613,25.626,-0.042,0.0164,9.7676,-0.2915,-0.3425,-0.4251
95,1183,745,33.618,25.729,-0.0424,-0.0212,9.7899,-0.8768,-0.4393,0.3421
100,1188,739,33.596,25.682,0.0154,0.0697,9.8418,-0.046,-0.8592,-0.9169
105,1184,733,33.582,25.691,0.0025,0.0092,9.7627,-0.4986,0.659,0.7688
110,1193,742,33.668,25.747,-0.0009,0.0427,9.7951,-0.1123,-0.2532,0.575
115,1179,744,33.708,25.629,0.0369,0.0377,9.8594,0.4184,0.9253,0.4903
120,1191,741,33.535,25.646,0.0285,-0.0952,9.7752,0.2206,0.5412,0.2072
125,1180,740,33.562,25.605,-0.0543,0.0742,9.7563,0.4971,0.2533,-0.2363
130,1177,746,33.656,25.601,0.1218,-0.0384,9.8696,0.2073,0.4717,0.0932
135,1186,736,33.564,25.627,0.0779,0.002,9.8618,0.0785,0.0552,0.6187
140,1175,741,33.651,25.592,-0.0195,0.0163,9.881,0.5645,-0.6479,0.8713
145,1182,743,33.577,25.633,0.0,-0.0454,9.7598,-0.1133,0.1534,0.4512
150,1164,745,33.54,25.675,0.0644,-0.0172,9.8114,0.7735,-0.0565,0.5468
155,1170,749,33.566,25.625,-0.036,-0.0222,9.8202,0.5609,0.1641,0.2332
160,1176,750,33.581,25.699,-0.0139,-0.0546,9.8195,-0.0456,0.9177,-0.0675
165,1166,749,33.625,25.589,-0.0854,0.0669,9.8964,0.0139,0.3343,0.208
170,1163,750,33.612,25.574,0.0811,-0.0358,9.8212,0.1055,0.6335,-0.1863
175,1161,760,33.609,25.623,0.0233,0.044,9.8229,0.358,-0.7369,0.6317
180,1144,762,33.548,25.658,-0.0376,0.0979,9.7246,-0.2352,-0.4771,0.0557
185,1154,763,33.551,25.667,0.0104,-0.0256,9.8168,-0.406,-0.0762,-0.0423
190,1139,766,33.542,25.635,-0.0636,0.0328,9.7695,0.2214,-0.2676,0.4166
195,1147,764,33.574,25.617,0.0855,-0.0158,9.8828,0.3528,-0.6526,0.3759
200,1139,773,33.54,25.63,-0.0021,-0.0496,9.854,0.1492,0.0853,0.3332
205,1133,773,33.59,25.734,0.0395,0.0339,9.8333,-0.157,-0.2929,-0.3949
210,1133,781,33.555,25.594,-0.0514,-0.0009,9.8185,0.4281,0.6352,0.7006
215,1131,784,33.673,25.614,-0.0527,-0.0102,9.8226,-1.0415,0.5695,-0.1238
220,1119,785,33.65,25.627,-0.0292,-0.0105,9.741,0.1907,-0.1468,-0.3953
225,1119,787,33.615,25.686,-0.1289,0.038,9.7657,-1.1046,0.5842,0.3672
230,1121,791,33.586,25.746,-0.0189,-0.0034,9.7493,-0.1342,-0.1497,0.4785
235,1119,794,33.522,25.661,0.0477,-0.0173,9.7547,-0.1143,0.1933,-0.1355
240,1104,794,33.628,25.683,-0.0857,-0.0631,9.757,-0.0396,-0.3027,0.5327
245,1104,798,33.582,25.722,0.043,-0.0813,9.8475,-0.7202,-0.5652,-1.1928
250,1109,804,33.676,25.717,0.0767,0.0319,9.8698,0.3723,-0.2673,0.4392
255,1106,810,33.629,25.648,0.0161,0.0201,9.8445,0.6977,0.0714,-0.1879
260,1095,814,33.603,25.616,0.029,0.0879,9.7403,1.1666,0.1949,0.1274
265,1102,814,33.657,25.693,0.1378,0.0422,9.8244,-0.1228,-0.6792,0.1677
270,1100,813,33.596,25.554,-0.0317,0.0981,9.6723,-0.4489,-0.3657,0.3904
275,1097,826,33.518,25.676,-0.0791,0.0212,9.773,0.0988,-0.6361,-0.3822
280,1079,823,33.541,25.643,0.05,-0.0063,9.7816,0.0872,-1.121,-0.1762
285,1084,826,33.673,25.679,-0.056,0.0082,9.8253,0.2045,-0.2563,0.0163
290,1084,833,33.611,25.648,0.0658,-0.0991,9.8416,-0.0895,0.1735,-1.2332
295,1085,829,33.505,25.666,0.049,0.0745,9.8169,0.0237,0.395,0.8263
300,1095,835,33.576,25.631,-0.0103,0.0385,9.8066,-0.5972,-1.0415,-0.6967
305,1081,834,33.599,25.613,0.0727,0.0003,9.8509,0.4076,0.5321,0.1888
310,1078,834,33.644,25.695,-0.0848,-0.0472,9.8054,-0.2562,-0.0719,0.1995
315,1078,841,33.699,25.664,0.0836,-0.0089,9.7808,-0.9368,1.082,0.2154
320,1074,836,33.52,25.694,0.1075,-0.1032,9.8713,-1.1287,0.7654,-0.4807
325,1066,842,33.611,25.674,0.1035,0.0231,9.8712,0.428,-0.0762,0.1107
330,1072,843,33.694,25.635,-0.0801,-0.0485,9.7515,-0.0344,-0.2835,-0.0496
335,1054,844,33.646,25.63,0.0925,-0.0282,9.7562,0.9112,0.1122,-0.2658
340,1048,845,33.681,25.564,0.0072,0.0371,9.8205,-0.7366,0.1097,0.3084
345,1048,843,33.563,25.732,0.0415,0.1025,9.824,-0.3311,-0.0219,0.1754
350,1054,842,33.668,25.712,-0.1027,-0.0022,9.7256,-0.234,-0.5039,0.0975
355,1045,845,33.566,25.626,0.0801,0.0299,9.9224,0.1316,0.7427,0.3843
360,1040,848,33.599,25.565,0.0444,0.0404,9.8402,0.8462,-0.2553,0.0137
365,1031,845,33.528,25.638,-0.0063,-0.0229,9.7819,-0.2319,0.2132,0.8017
370,1029,850,33.634,25.632,0.0495,0.0156,9.8432,0.1231,0.078,-0.5592
375,1013,847,33.639,25.673,-0.0565,-0.0838,9.8129,0.4002,-0.7668,0.1403
380,1013,839,33.65,25.624,0.0268,-0.0382,9.7342,-0.04,-0.0541,0.2859
385,1004,842,33.653,25.707,0.0507,-0.0272,9.8668,0.945,-1.2516,0.0025
390,1000,838,33.713,25.672,-0.0128,0.0501,9.7564,-0.4964,-1.0451,-0.3459
395,986,845,33.605,25.583,0.0034,0.1467,9.8748,-0.5836,-0.1845,-0.5176
400,979,839,33.59,25.644,0.0126,-0.0821,9.8317,-0.9455,-0.1306,-0.2516
405,969,846,33.599,25.646,-0.0313,-0.0022,9.8538,-0.0509,0.2826,-1.1358
410,964,843,33.612,25.546,0.0473,0.001,9.7823,-0.1082,-0.1789,-0.5516
415,954,837,33.593,25.653,-0.0203,0.0159,9.7415,0.2424,0.0227,0.1695
420,934,839,33.561,25.678,-0.0312,0.001,9.8513,-0.016,-0.1179,0.1891
425,933,849,33.67,25.59,-0.0009,-0.1029,9.8442,0.3391,0.9176,-0.5432
430,913,839,33.533,25.568,-0.1268,-0.0236,9.7842,0.7987,0.058,-0.6106
435,908,839,33.668,25.715,-0.0503,-0.0977,9.8648,0.005,-0.9748,-0.3483
440,907,836,33.572,25.704,0.0586,-0.0014,9.8545,0.5029,-0.3873,0.675
445,880,834,33.656,25.581,-0.0286,0.0335,9.8176,-0.7409,-0.7457,-0.2949
450,881,832,33.527,25.602,0.0854,0.0882,9.7783,0.5763,0.8312,-0.9065
455,861,835,33.613,25.648,0.0875,-0.0354,9.8707,-0.4266,0.8772,0.1338
460,859,835,33.634,25.592,-0.086,0.0186,9.7803,-0.2615,-0.2393,-0.2534
465,846,830,33.643,25.632,-0.0027,0.0307,9.831,0.548,0.7651,0.7514
470,833,829,33.691,25.601,0.0567,0.054,9.8184,0.1977,0.4144,-0.3794
475,842,835,33.691,25.563,-0.0207,0.0346,9.7629,0.0265,0.1147,1.1629
480,822,826,33.553,25.607,0.0721,0.0233,9.9162,0.0951,-0.2626,-0.0607
485,808,834,33.585,25.609,0.0009,-0.0417,9.8,-0.8552,0.5365,0.3378
490,810,822,33.685,25.723,-0.052,0.0985,9.8307,0.9625,-0.5742,0.094
495,794,824,33.593,25.706,0.034,-0.0383,9.8151,1.0938,-0.6269,-0.4251
500,785,831,33.598,25.664,0.0675,-0.0069,9.7677,0.7391,0.8763,-0.0934
505,783,829,33.691,25.702,0.0086,-0.0191,9.8368,0.0589,-0.3191,-0.3868
510,777,830,33.702,25.652,0.0209,0.0546,9.8995,0.5123,0.8239,0.2109
515,769,827,33.613,25.711,0.0099,0.0799,9.8958,0.0533,-0.3513,0.7565
520,759,822,33.576,25.593,-0.0354,0.0364,9.9405,-0.7003,0.0755,-0.3057
525,759,827,33.552,25.646,0.0222,0.0108,9.7619,0.6436,-1.2506,-0.1319
530,756,820,33.608,25.617,0.0126,0.0084,9.8411,-0.1886,-0.1285,0.1287
535,751,820,33.538,25.661,-0.0731,0.0026,9.7733,-0.4047,-0.1795,-0.1989
540,754,828,33.678,25.758,0.0,0.0322,9.7765,0.774,0.7667,-0.0635
545,751,822,33.637,25.654,-0.0004,-0.0395,9.8907,-0.0457,-0.2442,0.6303
550,752,819,33.648,25.626,0.0154,-0.0343,9.7975,-0.425,-0.2176,0.1133
555,738,823,33.696,25.702,-0.0009,0.0405,9.8174,-0.4423,0.1074,-0.2897
560,749,823,33.631,25.718,0.0473,-0.0504,9.746,0.4686,-0.4455,-0.4355
565,749,817,33.597,25.657,-0.0255,0.0885,9.8068,-0.1364,-0.1977,-0.4486
570,751,819,33.578,25.794,0.0168,0.0558,9.8351,-0.075,0.5538,-0.5537
575,758,816,33.613,25.514,-0.0472,-0.0266,9.8117,-0.2538,-0.3764,-0.0122
580,765,816,33.574,25.682,0.0411,0.1106,9.8902,0.8448,0.5419,-0.1415
585,761,814,33.573,25.564,0.1465,-0.0089,9.8509,0.2058,-0.1517,-0.0544
590,764,814,33.663,25.716,-0.0065,0.0238,9.8152,0.0102,0.2794,0.9942
595,765,815,33.691,25.719,-0.0173,0.0476,9.8019,-0.8749,-1.0009,0.0116
600,785,808,33.515,25.604,0.0125,-0.0514,9.7233,0.381,-0.2749,0.549
605,795,812,33.628,25.654,0.0041,-0.0486,9.8338,0.5013,-0.4398,-0.5441
610,798,809,33.552,25.735,0.0254,-0.0039,9.8541,0.8447,-0.4279,0.609
615,809,807,33.502,25.675,-0.0643,0.0229,9.805,-0.1712,-0.1669,0.2282
620,813,809,33.484,25.736,-0.0056,-0.0066,9.8223,0.2917,0.4947,0.7505
625,831,802,33.734,25.672,-0.0093,0.069,9.8488,-0.5183,-0.1232,0.0984
630,840,802,33.539,25.525,-0.0594,0.025,9.865,0.472,-0.1523,-0.0222
635,850,802,33.7,25.65,-0.0803,0.0065,9.7672,-0.4552,0.1641,0.5448
640,869,804,33.725,25.689,0.0394,-0.029,9.7829,0.2968,-0.4369,-0.4254
645,870,798,33.636,25.689,-0.116,0.0046,9.8599,-0.2538,-0.1108,-0.1258
650,887,795,33.649,25.623,-0.0205,-0.1178,9.8366,-0.4556,0.6692,0.1507
655,906,796,33.604,25.687,-0.0355,0.0651,9.7624,0.2107,0.6484,0.9189
660,922,796,33.549,25.729,0.0442,-0.089,9.8051,-0.0919,0.3694,-0.0181
665,939,787,33.566,25.717,0.061,-0.072,9.8234,0.4908,0.0449,0.1812
670,953,792,33.655,25.724,0.0634,0.0273,9.8747,0.7542,-0.0593,-0.3905
675,951,789,33.628,25.722,-0.0885,0.026,9.9102,0.2785,0.657,-0.8867
680,970,786,33.577,25.651,-0.026,-0.0245,9.8381,0.4365,0.4598,-0.1124
685,987,791,33.62,25.688,0.009,-0.027,9.8897,0.0397,-0.2278,0.7029
690,987,777,33.626,25.652,0.0432,-0.0523,9.7389,0.3736,-0.7639,0.7329
695,1019,778,33.636,25.675,0.018,-0.0478,9.7968,0.0754,-0.6866,0.3148
700,1020,774,33.592,25.576,0.0851,-0.1131,9.8263,0.1161,0.5816,-0.0708
705,1041,775,33.692,25.584,0.0252,-0.016,9.8893,0.2429,0.0041,0.1207
710,1052,769,33.618,25.665,-0.0523,0.0284,9.8182,0.1887,-0.0152,-0.1751
715,1067,773,33.58,25.648,0.0236,-0.0644,9.7914,0.1357,-0.5185,0.4515
720,1079,768,33.621,25.64,-0.0089,-0.0547,9.8066,-0.1663,-0.2215,-0.7526
725,1090,768,33.677,25.612,-0.0588,0.0252,9.8105,0.9164,0.3033,-0.0751
730,1089,764,33.682,25.651,-0.0706,0.027,9.8304,0.4547,0.1957,0.7248
735,1111,757,33.609,25.668,-0.0242,0.0791,9.8343,0.9889,0.1661,-0.4083
740,1116,756,33.508,25.685,0.0549,-0.0092,9.7613,-0.5359,0.5962,-0.2703
745,1123,751,33.633,25.61,-0.0008,-0.0215,9.7777,-0.1547,-0.6173,0.1589
750,1133,750,33.6,25.531,0.002,0.0094,9.7957,0.2941,-0.5215,0.4337
755,1145,757,33.629,25.565,0.1281,0.0917,9.7994,-0.1622,-0.6333,0.2249
760,1151,744,33.567,25.699,-0.0789,-0.0468,9.8796,-1.0417,-0.2869,0.0046
765,1153,745,33.67,25.695,-0.0256,-0.0052,9.8328,0.8865,-0.3742,-0.6658
770,1173,744,33.671,25.781,-0.0539,-0.0033,9.6837,-0.1697,-0.4852,-0.3836
775,1164,750,33.623,25.67,0.0266,-0.0722,9.833,-0.7733,0.2,-0.5548
780,1172,739,33.65,25.736,-0.0058,-0.0532,9.8827,-1.0117,-0.9864,0.3758
785,1185,740,33.74,25.636,-0.0248,-0.0053,9.8403,-0.5962,-0.3849,0.0907
790,1182,742,33.619,25.635,0.0731,0.0243,9.821,-0.9625,0.1435,0.4485
795,1181,743,33.641,25.651,0.0462,-0.0073,9.8726,-0.8763,0.333,0.8044
800,1191,739,33.609,25.627,-0.0209,0.0654,9.7662,-0.0031,0.5929,-0.6052
805,1183,740,33.687,25.7,-0.0254,-0.023,9.7722,0.0854,0.2378,0.0657
810,1184,739,33.71,25.717,-0.0766,-0.0697,9.8502,-0.2477,-0.3441,0.5417
815,1198,739,33.604,25.657,0.0199,-0.0629,9.8121,0.294,0.1929,-0.707
820,1188,742,33.597,25.662,-0.0191,-0.0604,9.763,-0.2947,-0.2061,-0.4233
825,1188,739,33.518,25.696,-0.062,-0.0169,9.86,0.7564,-0.3014,0.1549
830,1188,737,33.653,25.689,0.0566,-0.0177,9.9066,0.6897,-0.4131,0.3268
835,1189,741,33.641,25.635,-0.0008,0.0677,9.8292,-0.5435,-0.1141,-0.0246
840,1189,736,33.519,25.665,0.1049,0.0445,9.7852,-0.3066,0.4768,0.0839
845,1182,740,33.601,25.617,0.048,-0.0087,9.8422,0.3765,-0.1448,-0.5655
850,1173,746,33.601,25.671,0.0094,-0.1185,9.7646,-0.3336,-0.2342,-0.7835
855,1173,745,33.582,25.653,-0.0255,-0.024,9.7869,-0.5322,-0.1989,0.2054
860,1171,748,33.586,25.578,0.029,0.0415,9.8827,-0.1974,-0.7555,-0.1891
865,1172,749,33.705,25.729,-0.0262,0.0191,9.8255,0.056,0.457,-0.281
870,1165,753,33.601,25.76,-0.0041,-0.0127,9.8366,0.4069,0.1529,-0.0339
875,1169,754,33.711,25.565,-0.0438,-0.0459,9.8067,0.7788,0.2281,-0.4578
880,1165,757,33.615,25.644,0.0668,0.09,9.8467,-0.2445,-0.1516,-0.5764
885,1152,756,33.678,25.627,0.0652,-0.1269,9.8402,-0.2499,-0.0898,0.1067
890,1153,761,33.607,25.674,0.0313,0.0302,9.8473,0.0148,-0.2419,0.9819
895,1149,763,33.641,25.617,0.0063,0.0709,9.8603,0.1381,0.2324,-0.0882
900,1145,771,33.658,25.677,-0.0846,0.0157,9.7743,-0.4001,0.2186,-0.4215
905,1141,768,33.551,25.658,0.0125,-0.0039,9.9176,0.3092,0.2186,-0.8813
910,1135,777,33.563,25.745,-0.0746,0.022,9.8551,-0.337,-0.6478,0.1861
915,1132,776,33.596,25.746,-0.0231,0.0119,9.842,0.0339,0.0146,-0.4355
920,1126,779,33.707,25.689,0.0786,-0.0081,9.8389,-1.1038,0.5514,-0.2366
925,1121,783,33.623,25.65,0.0321,-0.0085,9.8488,0.7191,-0.3214,0.0077
930,1119,787,33.586,25.675,0.0558,-0.0424,9.8314,0.6207,0.3862,0.4733
935,1120,790,33.618,25.654,-0.0092,0.0282,9.8318,-0.1273,-0.0808,0.3535
940,1112,793,33.642,25.746,0.0063,-0.0216,9.7758,-0.136,-0.6495,-0.2207
945,1113,800,33.608,25.667,-0.0157,0.1539,9.7714,-0.7531,-0.0544,-0.46
950,1108,795,33.65,25.665,0.025,0.0204,9.7931,-0.0793,0.1971,1.4566
955,1109,803,33.662,25.705,-0.0155,-0.0889,9.8831,-0.4217,0.4423,-1.0316
960,1116,812,33.645,25.65,0.0618,0.0716,9.8353,-0.3423,-0.5018,-0.6682
965,1101,811,33.569,25.601,-0.0103,-0.0275,9.8354,-0.402,0.2129,0.222
970,1099,810,33.621,25.658,0.0496,0.0215,9.8151,-0.578,0.3584,-0.3864
975,1090,818,33.627,25.714,0.0347,0.0263,9.7814,0.5793,0.2197,0.5471
980,1092,819,33.645,25.704,0.0147,-0.0099,9.8151,-0.161,-0.7671,0.6112
985,1088,823,33.593,25.638,-0.0148,-0.0031,9.8735,0.1137,-0.3662,1.0103
990,1092,820,33.691,25.707,-0.0176,-0.0142,9.8909,0.3845,0.0089,0.2023
995,1091,826,33.665,25.583,-0.0674,0.0036,9.7427,-0.368,0.1596,0.1198
1000,1083,827,33.648,25.668,-0.0877,-0.009,9.8491,-0.3851,0.9536,0.1672
1004,1076,832,33.597,25.721,-0.0504,-0.0272,9.8731,0.2426,-0.4958,0.6135
1010,1072,837,33.635,25.611,-0.0596,-0.0403,9.8354,-0.6217,-0.4374,-0.1947
1014,1091,835,33.65,25.677,-0.0107,-0.0077,9.8496,-0.2485,0.0903,-0.3244
1020,1076,834,33.603,25.631,-0.0531,0.0427,9.8164,0.3377,-0.209,-0.381
1025,1070,839,33.636,25.647,-0.0442,-0.0606,9.856,-0.0169,-0.7408,-0.296
1030,1067,839,33.603,25.566,0.0191,0.0105,9.7782,0.2217,-0.1493,0.6621
1035,1074,839,33.617,25.727,-0.0322,-0.0528,9.7443,-0.12,0.1203,-0.1967
1040,1061,842,33.652,25.669,-0.1026,-0.0429,9.8185,0.1815,-0.3692,0.7951
1045,1058,849,33.63,25.683,0.0019,-0.0054,9.8509,-0.8767,-0.1354,0.2339
1050,1049,845,33.665,25.651,0.051,0.0521,9.7528,0.6187,-0.2055,-0.0325
1055,1039,843,33.632,25.619,-0.034,0.0216,9.785,-0.8514,-0.3641,0.1517
1060,1039,845,33.607,25.677,0.0144,0.0532,9.7966,0.4295,-0.8046,-1.0915
1065,1041,847,33.642,25.687,0.09,-0.0251,9.8111,-0.714,-0.5094,0.4784
1070,1028,845,33.705,25.622,-0.0123,0.0196,9.8247,-0.55,0.0923,-0.1177
1075,1023,848,33.78,25.697,0.0382,-0.0465,9.7776,-0.2755,0.8016,0.548
1080,1021,840,33.538,25.628,0.055,0.0151,9.825,0.3726,-0.1279,-0.7811
1085,1018,848,33.655,25.633,0.0418,0.0266,9.7651,-0.6653,-0.1104,0.2343
1090,1011,846,33.573,25.621,0.0015,-0.0597,9.8559,-0.3441,0.2864,0.5463
1095,1004,851,33.612,25.662,-0.0422,0.0929,9.7606,0.3217,-0.1594,-0.7455
1100,974,842,33.62,25.686,0.1056,-0.0173,9.8766,-0.568,-0.4426,-0.4767
1105,973,843,33.654,25.666,-0.0849,0.0441,9.7883,-0.5003,-0.3041,-0.3484
1110,975,844,33.566,25.674,0.012,0.0616,9.8339,-0.3767,0.0747,0.859
1115,972,844,33.7,25.664,0.1123,-0.0063,9.7505,0.3846,-0.0777,0.011
1120,961,847,33.548,25.584,0.0171,-0.0089,9.8422,-0.003,0.6849,0.3251
1125,945,841,33.591,25.695,0.1185,-0.0235,9.9253,1.0058,0.3203,-0.2594
1130,934,836,33.629,25.671,-0.0019,0.0884,9.7817,-0.8477,0.5855,0.5174
1135,923,843,33.593,25.653,-0.0193,-0.0343,9.8926,0.1664,-0.7318,-0.1097
1140,923,838,33.602,25.715,0.0022,-0.0014,9.7915,0.1033,0.3713,-0.7678
1145,895,837,33.534,25.582,0.032,0.0342,9.8778,0.3059,-0.2291,-0.6578
1150,896,833,33.685,25.667,0.0526,-0.0675,9.8638,-0.4404,-0.9276,-0.1634
1155,897,832,33.567,25.642,0.0029,-0.0079,9.9065,-0.2197,-0.2241,0.5122
1160,877,839,33.571,25.621,0.0351,0.0511,9.8192,-0.0754,1.0753,-0.2968
1165,868,833,33.541,25.728,-0.0615,-0.0289,9.7552,-0.4078,0.2826,0.5403
1170,847,832,33.577,25.695,-0.0108,-0.0939,9.7771,-0.8759,0.0668,-0.5161
1175,845,829,33.664,25.647,-0.0625,0.0105,9.816,-0.0593,-0.0307,0.4074
1180,842,832,33.605,25.658,0.0063,-0.0441,9.8422,0.2779,0.7324,-0.8093
1185,831,829,33.658,25.687,0.0597,0.0576,9.7776,0.0749,-0.1275,0.6617
1190,817,830,33.567,25.727,0.0108,0.0076,9.7629,-0.4877,-0.9055,-0.6769
1195,809,828,33.58,25.6,0.0283,0.0947,9.8041,-0.1013,0.0149,0.6527
1200,805,831,33.569,25.706,0.0149,-0.0588,9.8599,-0.225,-0.001,-0.5033
1205,783,826,33.585,25.766,0.0576,0.0597,9.8032,-0.5006,0.1782,-0.334
1210,789,824,33.665,25.678,0.0258,-0.0634,9.8016,-0.5441,-0.2673,0.1719
1215,784,830,33.659,25.611,0.1103,0.0357,9.8125,0.0721,-0.1027,-0.0501
1220,763,823,33.639,25.677,0.071,0.0421,9.8571,-0.9657,-0.37,0.1501
1225,765,821,33.667,25.677,0.0129,0.0696,9.8404,-0.3132,0.0808,-0.4407
1230,757,825,33.62,25.607,0.0123,-0.0089,9.8303,0.8439,0.0213,-1.0786
1235,750,825,33.532,25.713,0.0007,0.0222,9.8151,-0.2058,0.2384,-0.5081
1240,745,824,33.675,25.702,0.0167,0.1022,9.8463,0.3191,0.3867,0.3857
1245,750,824,33.638,25.638,0.0247,0.0809,9.7007,0.6507,-0.1574,-0.9447
1250,746,820,33.636,25.626,0.0225,0.0858,9.7557,0.7003,-0.2223,0.4313
1255,752,817,33.613,25.72,-0.0093,0.0803,9.8468,-0.7142,0.0324,-0.016
1260,753,822,33.646,25.63,0.0413,-0.0804,9.742,0.025,0.3915,0.0555
1265,744,819,33.673,25.621,-0.0326,0.0048,9.81,-0.0157,0.1162,0.1712
1270,746,816,33.667,25.689,0.056,-0.0296,9.8222,-1.3779,0.1083,0.0368
1275,751,816,33.7,25.691,0.0042,-0.0517,9.9347,-0.6774,1.2371,0.3341
1280,752,823,33.667,25.597,0.0792,0.0674,9.8414,-0.1051,0.6154,-0.3082
1285,768,817,33.558,25.656,-0.0408,-0.0006,9.7409,0.7432,-0.9606,-0.3836
1290,763,813,33.65,25.638,-0.0171,-0.0035,9.8785,-0.0716,0.1007,-0.3394
1295,767,815,33.584,25.605,-0.0558,0.0023,9.8159,0.5956,-0.1044,0.3859
1300,769,818,33.571,25.692,-0.0063,0.0329,9.8264,0.0836,0.1387,-0.0503
1305,774,809,33.633,25.647,0.0292,0.0435,9.8806,-0.3792,-0.7252,-0.2718
1310,788,811,33.637,25.652,-0.0415,0.105,9.8109,-0.0311,0.4469,0.549
1315,795,809,33.663,25.658,0.056,0.0324,9.8025,-0.3043,-0.8207,0.6545
1320,817,810,33.626,25.695,-0.0413,0.0002,9.7794,1.009,-0.6738,0.7409
1325,817,804,33.658,25.733,-0.0861,-0.0704,9.7173,-0.4553,-0.3966,0.1624
1330,831,808,33.585,25.598,0.0462,-0.0194,9.8269,-0.3531,-0.0499,-0.3138
1335,831,812,33.658,25.719,0.031,0.0911,9.7628,0.4985,0.0808,-0.7314
1340,856,804,33.622,25.634,-0.0829,-0.0585,9.8117,0.7683,0.1567,0.3241
1345,857,799,33.641,25.731,0.0611,-0.0328,9.7986,-0.1473,-0.3548,0.4545
1350,871,801,33.663,25.723,-0.0145,0.0106,9.8942,0.1654,1.0012,0.2935
1355,887,799,33.585,25.694,0.0332,-0.0685,9.7458,-0.5951,-0.4659,0.3108
1360,897,798,33.644,25.745,0.0333,0.0215,9.8569,-0.5816,0.2491,-0.0833
1365,917,792,33.67,25.629,0.0224,-0.0028,9.7947,1.0356,-1.0167,0.171
1370,921,793,33.58,25.69,0.0641,0.0222,9.8173,0.6768,-0.3888,0.2253
1375,945,788,33.732,25.742,0.0058,-0.0245,9.8779,-0.7885,-0.0985,-0.787
1380,954,786,33.652,25.669,-0.0098,0.0013,9.834,-0.4113,-0.3033,0.2071
1385,962,786,33.739,25.726,-0.0293,-0.0228,9.7781,-0.6089,-0.0355,-1.2607
1390,993,784,33.572,25.63,-0.0782,0.06,9.7392,-0.2558,0.3895,0.3595
1395,996,779,33.607,25.705,0.0158,-0.0391,9.7797,0.4946,0.9843,0.7492
1400,1001,773,33.613,25.661,-0.0371,-0.0817,9.7803,1.4303,-0.2754,-0.3229
1405,1023,773,33.628,25.524,0.026,0.0408,9.7788,0.9977,-0.2109,0.0001
1410,1042,772,33.688,25.683,0.0222,0.0572,9.8316,0.2057,0.4137,0.6974
1415,1049,765,33.628,25.7,0.088,0.0124,9.8256,-0.0662,0.7673,0.2008
1420,1060,767,33.56,25.658,0.0097,-0.0503,9.8397,0.7676,-0.9234,0.1795
1425,1066,771,33.598,25.55,-0.0198,0.0,9.7951,-0.0518,0.1865,-0.1642
1430,1094,767,33.594,25.705,0.0085,0.0239,9.7991,-0.3061,-0.144,-0.4955
1435,1091,762,33.619,25.657,0.0678,0.0609,9.7792,0.2257,0.1953,-0.1583
1440,1098,759,33.64,25.686,0.0057,-0.0125,9.7783,-1.1368,-0.1421,0.383
1445,1113,754,33.677,25.676,0.0247,-0.0012,9.7805,0.2689,0.287,0.0256
1450,1121,758,33.598,25.73,-0.0075,-0.0029,9.7221,0.2556,-0.9745,-0.2835
1455,1143,749,33.619,25.652,-0.0227,0.0431,9.7757,-0.023,-0.1691,0.2249
1460,1143,757,33.701,25.627,0.0301,0.0274,9.8475,-0.3397,-0.1975,-0.5974
1465,1144,747,33.617,25.689,0.0497,-0.0625,9.8706,0.3571,-0.7012,-0.6624
1470,1145,745,33.708,25.724,0.0495,0.0126,9.8375,0.399,-0.3177,-0.4777
1475,1155,740,33.608,25.641,0.0076,0.0682,9.692,-0.2405,0.8169,-0.3069
1480,1175,748,33.594,25.606,0.036,0.0143,9.7692,0.187,-0.474,-0.0026
1485,1171,742,33.598,25.655,-0.0379,0.0349,9.7779,-0.601,-0.4053,0.2443
1490,1171,739,33.615,25.651,-0.0065,0.0135,9.7579,-0.7355,-1.1762,-0.5361
1495,1176,737,33.624,25.651,-0.0278,-0.0648,9.8604,0.5189,-1.0381,-0.1828
1500,1175,736,33.639,25.641,0.0603,0.0396,9.9261,-0.3298,0.3239,0.0551
1505,1180,736,33.712,25.749,0.0036,-0.0365,9.7601,0.286,0.5158,-0.4652
1510,1183,736,33.67,25.707,-0.0094,-0.0807,9.786,0.5646,0.1714,-0.0073
1515,1187,736,33.684,25.723,0.0028,-0.05,9.8438,0.2449,1.3441,-0.6045
1520,1187,736,33.592,25.745,-0.0379,-0.0647,9.8514,-0.1359,-0.0747,0.3818
1525,1188,741,33.66,25.729,-0.091,0.0504,9.8272,0.5157,0.2775,0.5189
1530,1194,737,33.553,25.582,0.0282,-0.0198,9.8907,0.4442,0.3167,-0.1352
1535,1180,735,33.638,25.75,-0.0505,-0.044,9.7366,0.6615,0.8178,-0.1269
1540,1191,738,33.58,25.642,-0.0335,0.0482,9.8433,0.2497,0.4521,-0.0623
1545,1180,745,33.604,25.668,-0.0605,-0.0051,9.8734,-0.4029,-0.2522,0.4506
1550,1180,744,33.656,25.623,-0.032,0.0561,9.8035,-0.37,-0.4761,0.0028
1555,1183,750,33.598,25.651,0.0011,0.0469,9.8416,-0.1038,-0.4035,-0.1555
1560,1180,741,33.744,25.619,0.0434,0.0293,9.8828,0.3522,-0.6271,-0.0138
1565,1160,750,33.544,25.672,-0.0541,0.0089,9.8281,-1.4069,0.4651,-0.8082
1570,1173,747,33.636,25.672,0.0345,0.0666,9.8756,0.9527,-0.1809,0.4402
1575,1166,755,33.595,25.68,-0.0872,0.0627,9.8541,0.1487,0.2935,-0.5453
1580,1159,755,33.645,25.742,-0.0295,-0.0527,9.8529,0.3568,-0.7094,0.5695
1585,1160,754,33.637,25.699,-0.0333,-0.0642,9.8044,0.3514,0.4253,0.1232
1590,1155,760,33.627,25.683,-0.0452,-0.069,9.8671,-0.6338,0.4105,-0.0763
1595,1148,762,33.621,25.584,0.0635,-0.1174,9.7883,0.029,-0.0237,-0.0613
1600,1146,764,33.649,25.605,-0.0236,0.0998,9.7854,0.6747,0.4113,0.5451
1605,1138,775,33.601,25.715,0.0143,0.0062,9.8517,-0.4913,0.1712,-0.3671
1610,1149,772,33.604,25.636,0.0246,-0.0275,9.8275,-0.1107,0.6262,0.2684
1615,1134,777,33.664,25.649,-0.1154,-0.091,9.8024,0.6635,-0.0172,0.1132
1620,1133,774,33.591,25.631,0.0672,0.0714,9.7535,-0.1153,-0.4121,-0.308
1625,1133,773,33.614,25.663,-0.0443,0.0933,9.845,0.7077,0.1185,-0.9408
1630,1121,784,33.67,25.601,0.0126,-0.0666,9.8057,-0.1967,-0.4272,1.0434
1635,1126,789,33.653,25.631,0.0227,0.1089,9.7574,-0.1245,-0.3251,-0.2896
1640,1117,795,33.644,25.738,0.0702,0.1244,9.8004,-0.0009,0.1434,0.4906
1645,1123,795,33.628,25.678,0.0194,-0.0172,9.7875,-0.1184,-0.6156,0.9597
1650,1116,791,33.646,25.575,-0.0803,0.0093,9.8152,0.1234,0.3449,-0.0767
1655,1109,798,33.568,25.758,-0.0525,-0.003,9.7982,0.5482,-0.1901,-0.9208
1660,1117,807,33.657,25.664,0.007,-0.0293,9.7288,-0.5363,0.9351,-0.7279
1665,1101,809,33.688,25.642,-0.0473,-0.1382,9.828,0.3052,0.3739,-0.3305
1670,1097,816,33.611,25.65,-0.0573,-0.036,9.7681,-0.1906,-0.3314,0.2629
1675,1097,814,33.553,25.731,-0.0051,-0.0251,9.8422,-0.1051,-0.7136,0.1468
1680,1097,815,33.597,25.591,0.0072,0.0818,9.7911,-0.4687,-0.0843,-0.0588
1685,1095,821,33.549,25.743,0.0012,-0.0292,9.8684,0.2426,-0.1727,-0.1813
1690,1094,819,33.582,25.684,0.0523,0.0008,9.8413,0.4792,-0.079,-0.6849
1695,1091,820,33.686,25.666,-0.0693,0.0176,9.7402,0.3797,-0.864,0.2466
1700,1087,828,33.617,25.716,0.0688,-0.0379,9.7814,0.006,0.1946,-0.0659
1705,1080,829,33.704,25.676,0.07,-0.0004,9.8463,0.0485,0.2728,-0.6039
1710,1077,835,33.606,25.673,0.023,0.1071,9.7876,-0.1183,-0.0321,0.0161
1715,1085,831,33.707,25.718,-0.008,0.0431,9.7473,-1.3837,0.0606,0.7258
1720,1078,836,33.613,25.621,0.0089,0.071,9.77,0.3382,-0.3076,0.4081
1725,1074,837,33.666,25.706,0.0069,0.0638,9.8452,0.1596,0.2636,0.6964
1730,1078,834,33.758,25.632,-0.0422,0.0078,9.8867,0.6557,-0.4884,0.2876
1735,1067,846,33.615,25.653,-0.0011,0.0699,9.7188,-0.1986,-0.3477,0.0664
1740,1065,844,33.721,25.704,-0.0141,-0.0423,9.8786,-0.4739,-0.4644,-0.5636
1745,1070,841,33.614,25.644,0.0459,0.0022,9.7903,0.4767,-0.4243,-0.0756
1750,1055,839,33.644,25.672,-0.0871,-0.0223,9.7634,-0.5564,-0.152,-0.0741
1755,1056,845,33.721,25.758,-0.054,0.0411,9.7975,0.3132,0.0008,-0.1758
1760,1042,844,33.646,25.62,0.0136,-0.019,9.877,-0.384,0.147,-0.0776
1765,1042,844,33.683,25.648,-0.0053,-0.0352,9.81,-0.2857,1.1965,0.0649
1770,1036,845,33.638,25.575,-0.0031,0.023,9.8711,-0.1796,-0.3778,-0.2335
1775,1027,842,33.594,25.665,0.0587,-0.0502,9.752,-0.484,-0.9355,-0.0356
1780,1030,844,33.664,25.659,-0.0246,0.0312,9.833,0.2094,-0.7496,0.9375
1785,1017,846,33.579,25.661,0.0427,0.0236,9.8292,-0.4023,-0.0948,-0.1751
1790,1014,847,33.619,25.677,0.0071,-0.0489,9.6797,0.0773,0.1524,-1.5017
1795,1009,847,33.59,25.699,-0.079,-0.1276,9.8148,0.0454,0.3891,-0.1216
1800,992,847,33.596,25.727,0.0178,0.1241,9.8533,0.4351,0.1362,0.4436
1805,998,850,33.652,25.655,0.0371,-0.049,9.7864,0.2836,0.0213,0.3926
1810,970,846,33.63,25.683,-0.0666,0.0506,9.7519,0.8667,0.6117,0.4983
1815,982,841,33.597,25.699,0.045,0.0377,9.8429,-0.0532,0.6284,-0.3173
1820,957,846,33.517,25.687,-0.0237,0.0479,9.8451,-0.0784,-0.1046,-1.0486
1825,961,843,33.615,25.681,0.0865,0.0085,9.7252,0.3135,0.9072,0.1804
1830,952,840,33.719,25.628,-0.0155,0.0137,9.879,-0.5641,0.88,0.0954
1835,933,832,33.594,25.651,0.0281,0.07,9.7954,0.3462,0.1809,0.3981
1840,936,845,33.592,25.624,0.0841,0.007,9.7432,0.1576,-0.4207,-0.0371
1845,922,837,33.568,25.658,-0.072,-0.0063,9.8425,0.5525,-0.6066,0.5947
1850,908,834,33.676,25.729,-0.0396,-0.0025,9.7382,0.937,0.2806,-0.0632
1855,906,833,33.622,25.666,-0.0411,-0.1051,9.7337,0.4786,0.6396,0.0355
1860,892,832,33.516,25.698,-0.0487,-0.0391,9.7411,-0.4864,-0.3135,-0.676
1865,881,835,33.508,25.673,0.0574,0.0428,9.8093,-1.0055,1.0826,-0.1092
1870,863,835,33.666,25.724,-0.0349,-0.0149,9.7664,0.4879,0.9309,-0.3362
1875,861,834,33.571,25.735,-0.004,0.0159,9.8404,0.1231,-0.1355,-0.2516
1880,851,832,33.585,25.695,0.0076,-0.034,9.7581,0.6838,-0.5031,-0.5021
1885,840,832,33.623,25.682,0.0979,-0.0298,9.7214,-0.1091,0.8036,0.087
1890,828,831,33.612,25.675,-0.0208,0.0832,9.7874,0.4378,0.0627,0.7822
1895,818,824,33.671,25.686,0.006,0.0336,9.8536,1.0481,0.7422,-0.2902
1900,814,824,33.567,25.648,-0.1086,-0.079,9.8368,-0.3344,0.0637,0.2033
1905,801,831,33.616,25.663,0.0251,-0.0653,9.8887,-0.2552,0.2161,-1.0908
1910,789,825,33.544,25.624,-0.0519,-0.0383,9.798,0.8105,0.1247,0.0744
1915,789,825,33.642,25.675,-0.0333,-0.0896,9.7971,0.3161,-0.8868,-0.206
1920,778,824,33.64,25.687,-0.114,0.0289,9.7615,0.8765,0.0786,-0.5643
1925,779,827,33.63,25.69,-0.0461,0.0059,9.7988,-0.3097,-0.5716,0.0408
1930,774,827,33.579,25.647,0.0577,-0.0391,9.8128,-0.2754,0.6073,-0.6334
1935,761,820,33.681,25.698,-0.0258,0.0121,9.8063,0.3704,-0.5822,-0.1801
1940,755,821,33.646,25.675,0.0819,0.1039,9.7723,-0.4901,-0.2325,0.9901
1945,762,827,33.637,25.632,0.0046,0.0165,9.6836,0.6243,0.2847,0.1915
1950,747,821,33.657,25.826,0.0742,-0.0397,9.8652,0.2662,-0.0831,0.5032
1955,758,822,33.572,25.775,0.0251,0.0472,9.7075,-0.1433,0.4547,0.7319
1960,752,823,33.588,25.679,-0.0007,-0.0391,9.8413,0.391,0.2131,-0.3596
1965,747,817,33.621,25.7,-0.0386,-0.0235,9.8316,0.2757,0.0264,-0.0586
1970,747,827,33.657,25.682,-0.068,-0.0086,9.7738,0.5477,-0.6454,0.5016
1975,742,815,33.537,25.657,0.003,-0.0556,9.7814,-0.2315,-0.2052,0.3922
1980,752,820,33.659,25.604,-0.0832,0.0797,9.6985,0.0275,-0.0648,1.0572
1985,750,818,33.65,25.655,0.0339,-0.0325,9.8754,-0.1694,0.2898,-0.0304
1990,765,821,33.665,25.58,-0.0449,0.0883,9.8179,-0.3644,0.4773,-0.3048
1995,758,812,33.673,25.637,0.0247,0.0037,9.8194,-0.9613,0.4675,-0.1961
2000,763,816,33.585,25.643,0.0494,-0.0149,9.7393,-0.2013,0.1558,0.3552
2005,781,811,33.649,25.643,-0.0457,-0.0106,9.816,-0.9097,-0.1449,0.486
2009,776,813,33.643,25.655,0.0119,0.0461,9.8243,0.5055,-0.3623,-0.3518
2015,789,813,33.55,25.73,0.0254,-0.0722,9.8749,1.3981,0.7822,0.8059
2020,793,814,33.538,25.615,0.0126,0.0169,9.8976,-0.6441,-0.29,0.6377
2025,807,809,33.647,25.7,0.0353,0.0728,9.8092,0.3679,0.0076,-0.4095
2029,812,808,33.546,25.63,0.0383,0.0402,9.8041,1.0346,0.662,-0.1145
2035,825,807,33.654,25.638,-0.0417,-0.0143,9.8736,-1.3893,-0.2836,0.0536
2040,837,805,33.565,25.627,-0.0,-0.0196,9.7545,-0.3558,0.1727,-0.7624
2045,850,802,33.658,25.624,0.0036,-0.019,9.8021,0.9304,-0.6211,0.4104
2050,864,800,33.713,25.685,0.0968,-0.0223,9.8657,-0.1829,-0.964,-0.4546
2055,877,801,33.581,25.645,-0.0586,0.0401,9.8064,-0.1396,0.2134,-0.5832
2060,879,794,33.712,25.746,0.0443,0.0973,9.8226,-0.4502,0.4491,0.1164
2065,900,799,33.626,25.698,0.0109,0.026,9.815,-0.4206,0.479,-0.2056
2070,915,799,33.621,25.624,0.0176,0.0146,9.79,-0.7718,-0.6975,0.3326
2075,930,788,33.61,25.675,0.0459,0.0174,9.8529,-0.2529,-0.5038,0.4488
2080,941,789,33.573,25.629,0.023,0.0469,9.7824,0.2672,1.6102,-0.3253
2085,952,789,33.552,25.615,0.0663,0.0524,9.7315,0.6238,-0.0911,-0.585
2090,963,785,33.655,25.727,0.0269,-0.0458,9.7457,0.4063,0.717,1.107
2095,986,781,33.668,25.683,-0.0472,0.0172,9.7821,-0.2457,0.0815,0.2499
2100,997,784,33.551,25.645,-0.0428,0.0553,9.7432,1.176,-0.3427,0.7336
2105,1006,770,33.592,25.698,-0.0335,0.0111,9.8601,-0.1193,0.5526,0.1277
2110,1015,776,33.671,25.733,0.0107,0.0062,9.8217,-0.2475,-0.18,0.1726
2115,1030,780,33.622,25.675,0.0135,-0.0116,9.8498,0.5718,-0.5227,-0.2699
2120,1046,773,33.626,25.661,0.0046,0.0115,9.7753,-0.6676,0.9845,0.3846
2125,1057,755,33.66,25.653,-0.0212,0.064,9.8977,0.4877,-0.1157,0.8695
2130,1069,764,33.633,25.806,-0.084,0.0947,9.8679,-0.3277,0.4368,0.9375
2135,1084,760,33.653,25.693,-0.0462,0.0846,9.7502,-0.2796,0.6237,0.676
2140,1096,761,33.625,25.717,-0.1401,0.0589,9.8124,0.3169,0.0625,0.0684
2145,1108,764,33.711,25.597,0.0169,-0.0004,9.8089,-0.1155,-0.071,0.5916
2150,1108,759,33.642,25.687,-0.0384,0.0069,9.8163,-0.1979,0.1853,-0.3176
2155,1121,756,33.636,25.731,0.0534,0.0406,9.6983,0.3976,0.5871,-0.5855
2160,1131,751,33.533,25.656,-0.0126,-0.0129,9.793,-0.3275,-0.4704,-0.3059
2165,1144,747,33.635,25.726,0.0027,0.0197,9.8489,-0.8863,0.6176,0.8608
2170,1149,751,33.649,25.651,-0.0354,0.0632,9.8537,-0.1533,0.9274,0.5761
2175,1154,750,33.564,25.704,-0.1268,0.0653,9.7441,0.0536,-0.4411,0.3023
2180,1164,741,33.659,25.642,0.0568,-0.0001,9.7756,0.5048,-0.1218,-0.003
2185,1162,744,33.573,25.657,-0.0129,-0.1437,9.778,0.4569,0.2758,0.3559
2190,1168,748,33.693,25.717,-0.0299,-0.0266,9.8481,-0.4195,0.4316,0.2165
2195,1171,744,33.686,25.664,0.0652,0.0076,9.7857,0.9387,0.1011,0.3128
2200,1173,740,33.559,25.691,0.0729,-0.0068,9.8308,0.2367,-0.5043,0.0219
2205,1180,739,33.669,25.663,-0.0186,0.0458,9.8169,-1.1785,-0.5404,-0.5151
2210,1185,746,33.766,25.666,0.0243,-0.0037,9.8009,-0.1496,0.004,-0.3443
2215,1178,741,33.64,25.654,-0.0627,0.0292,9.7752,0.1621,-0.5805,-0.2403
2220,1189,743,33.646,25.672,0.0178,0.0508,9.7927,0.5426,-0.4899,-0.3978
2225,1186,731,33.608,25.676,0.043,-0.0822,9.8544,-0.8685,0.3966,0.4945
2230,1189,738,33.654,25.644,0.0191,0.0137,9.9214,-1.1291,-0.4597,-0.2775
2235,1191,739,33.605,25.654,0.1194,-0.0202,9.7755,0.4663,0.1348,-0.3206
2240,1183,738,33.643,25.749,-0.0558,0.0072,9.7494,0.3587,-0.4596,0.0085
2245,1189,740,33.615,25.665,-0.0967,0.0515,9.8661,0.7325,0.9269,-0.3872
2250,1185,742,33.624,25.671,-0.0333,-0.1399,9.8334,0.2092,-0.7494,0.4037
2255,1181,742,33.717,25.68,0.0201,0.0134,9.8541,0.1207,0.0166,0.1294
2260,1172,745,33.648,25.617,-0.0251,-0.0122,9.8424,-0.1018,-0.1286,-0.4665
2265,1176,745,33.684,25.73,-0.0294,-0.0039,9.7548,0.2665,-1.028,0.236
2270,1183,746,33.721,25.731,-0.0462,-0.0351,9.784,-0.2604,-0.2528,-0.0279
2275,1174,752,33.622,25.745,0.0805,-0.0441,9.7635,-0.1673,-0.4827,0.2468
2280,1158,750,33.71,25.698,-0.0731,0.0189,9.8002,0.0303,0.2733,0.4499
2285,1165,748,33.613,25.694,-0.0282,-0.0569,9.7817,-0.6246,0.8638,-0.2991
2290,1158,756,33.705,25.682,-0.0297,-0.0067,9.8458,0.3996,0.5221,-0.9562
2295,1158,755,33.609,25.721,0.0195,-0.0417,9.7643,-0.3587,-0.2329,-0.3864
2300,1154,761,33.619,25.651,-0.0455,0.0601,9.8495,0.4193,0.3007,0.1688
2305,1147,762,33.683,25.619,0.0253,-0.0795,9.7534,0.5699,-0.2378,0.1706
2310,1142,770,33.573,25.646,-0.0291,0.0795,9.7713,0.4499,0.3197,-0.005
2315,1136,774,33.668,25.766,0.0428,0.1006,9.7313,-0.8373,-0.1057,0.1126
2320,1130,773,33.582,25.714,-0.0711,0.0228,9.834,-0.0315,0.6234,-0.584
2325,1141,785,33.606,25.698,-0.0142,-0.0052,9.765,-0.8845,0.5353,-0.6599
2330,1132,782,33.584,25.635,-0.018,-0.029,9.8846,0.932,0.0249,-0.8601
2335,1132,779,33.597,25.648,0.0405,0.0764,9.8864,0.2136,0.2251,-0.6188
2340,1126,787,33.62,25.651,-0.0108,-0.0775,9.6999,-1.3494,-0.1293,-0.2622
2345,1111,789,33.674,25.594,0.0445,-0.0865,9.7935,0.5651,-0.5188,0.6046
2350,1116,792,33.648,25.68,-0.0232,-0.0223,9.8083,0.2177,-0.3109,-0.1548
2355,1120,801,33.677,25.639,0.0014,0.0176,9.855,-0.2831,0.1548,-0.2089
2360,1112,797,33.649,25.702,-0.0067,0.0018,9.8514,-0.694,-0.5826,-0.4226
2365,1114,801,33.661,25.689,0.0094,0.114,9.7982,0.6809,0.0318,0.5569
2370,1106,803,33.58,25.679,-0.0259,-0.0366,9.8229,-0.0635,0.6372,0.1386
2375,1100,810,33.634,25.64,0.009,0.0003,9.8557,-0.1477,-0.9906,-1.6338
2380,1104,812,33.715,25.73,-0.0495,0.0287,9.8516,0.0759,-0.812,-0.1302
2385,1106,820,33.66,25.731,-0.0645,-0.0114,9.7648,0.2934,-0.4163,0.7076
2390,1102,815,33.631,25.72,0.0109,-0.0113,9.7294,-0.2528,0.2248,0.4069
2395,1097,820,33.613,25.709,-0.0261,-0.0131,9.7894,0.5552,1.0502,-0.1702
2400,1087,818,33.655,25.693,0.0615,0.0066,9.8495,-0.0484,-0.1062,0.1732
2405,1090,824,33.709,25.758,0.0404,0.0681,9.8627,-0.0115,-0.1502,0.9279
2410,1088,826,33.567,25.634,0.0061,0.0714,9.8338,0.3619,-0.6603,-0.5533
2415,1096,832,33.657,25.654,-0.0061,-0.0747,9.8465,1.002,0.3325,0.4339
2420,1091,833,33.678,25.706,-0.002,-0.0107,9.7816,0.0918,0.4211,-0.1452
2425,1076,835,33.545,25.685,-0.0071,-0.089,9.8048,0.2889,-0.1451,0.7248
2430,1067,838,33.628,25.767,0.0237,-0.0003,9.892,0.5895,0.0443,0.7556
2435,1073,839,33.635,25.644,-0.054,0.0301,9.835,-0.3099,0.2994,-0.4839
2440,1062,842,33.594,25.652,-0.0131,0.0142,9.8054,-0.2076,0.1611,0.8651
2445,1064,840,33.591,25.742,-0.0747,-0.0592,9.8175,0.0187,-1.1741,0.77
2450,1063,842,33.656,25.593,0.0065,0.1122,9.83,-0.8332,-0.387,-0.1715
2455,1054,839,33.714,25.709,-0.0152,0.0288,9.8476,0.2807,0.1564,0.0116
2460,1052,839,33.582,25.646,0.067,0.0115,9.8018,-0.2162,0.6925,0.1644
2465,1053,846,33.583,25.728,-0.0167,0.0711,9.879,-0.275,0.8129,-0.334
2470,1040,844,33.656,25.599,0.0554,0.0502,9.8789,-0.5068,0.251,-0.6591
2475,1038,847,33.566,25.604,-0.0332,0.0032,9.8854,-0.4459,-0.3146,-0.1904
2480,1026,848,33.596,25.734,-0.0658,0.0279,9.8536,-0.6861,-0.3158,-0.5553
2485,1021,846,33.637,25.656,0.0546,0.115,9.895,0.7423,-0.0942,0.8365
2490,1021,835,33.643,25.746,0.0724,-0.0177,9.8529,-0.2302,-0.5594,-0.6291
2495,1008,845,33.634,25.649,0.0425,-0.0074,9.8808,-0.0085,-0.2144,0.6535
2500,1003,841,33.699,25.653,0.0681,0.0345,9.7042,-0.0303,0.0617,-0.2074
2505,1004,844,33.698,25.695,-0.015,-0.0671,9.8258,-0.0301,-0.0692,0.232
2510,996,841,33.689,25.612,0.0878,0.0465,9.7554,0.9024,-0.2725,0.1739
2515,986,838,33.549,25.594,0.0379,0.0405,9.8222,0.0097,-1.1411,0.1605
2520,972,844,33.531,25.65,0.0232,-0.0449,9.8078,0.1046,0.0916,-0.1251
2525,970,846,33.737,25.615,0.0458,-0.0461,9.8806,0.043,1.2097,-0.2146
2530,966,838,33.602,25.652,0.0508,-0.1083,9.856,0.1624,0.7756,0.1105
2535,956,844,33.661,25.709,0.0424,0.0008,9.7582,-0.1184,-0.0964,1.4082
2540,944,837,33.581,25.627,0.0032,0.0174,9.7955,0.2468,-0.6274,-0.4836
2545,936,838,33.635,25.651,0.0201,0.014,9.8236,-0.221,-0.1687,-0.4116
2550,920,843,33.64,25.653,0.0886,-0.0101,9.8278,0.2311,0.6565,0.2309
2555,906,840,33.619,25.657,0.0169,-0.015,9.7682,0.0807,-0.5499,0.4577
2560,907,837,33.735,25.728,-0.0301,0.0044,9.8759,0.3509,-0.5435,-0.5244
2565,886,836,33.612,25.677,0.0647,-0.0325,9.8006,0.5279,-0.1003,0.7234
2570,877,834,33.596,25.671,-0.0046,-0.0773,9.7339,0.3421,0.1165,0.874
2575,865,830,33.696,25.686,-0.0286,-0.032,9.8765,0.4502,-0.4877,0.2258
2580,857,829,33.568,25.663,0.0703,0.0476,9.8298,-0.0107,0.7491,0.9334
2585,849,835,33.653,25.751,-0.0019,0.0294,9.8569,-0.1885,0.3458,-0.6164
2590,842,833,33.667,25.73,-0.0277,-0.1485,9.8488,-0.7101,-0.9253,-0.5489
2595,830,825,33.612,25.673,0.0478,-0.063,9.8867,-0.4166,-0.4034,0.454
2600,809,834,33.673,25.695,-0.0682,-0.0358,9.7643,0.6712,0.1579,-0.0477
2605,813,831,33.605,25.713,-0.0118,-0.0052,9.8113,-0.1915,-0.3984,0.0655
2610,806,825,33.626,25.693,0.0481,-0.0178,9.8283,-0.0463,-0.1315,-0.4806
2615,797,822,33.665,25.701,-0.0754,0.018,9.8222,-0.6916,-0.6832,0.5923
2620,783,828,33.599,25.741,0.0449,0.0605,9.8108,-0.6339,-0.2977,-0.6132
2625,777,823,33.54,25.651,0.0196,0.0038,9.7701,-0.073,0.8508,0.3949
2630,780,828,33.548,25.613,-0.0149,0.0736,9.7837,-1.1248,0.4965,-0.3695
2635,770,827,33.689,25.722,0.0344,0.0262,9.7828,-0.126,-0.2052,0.132
2640,767,827,33.752,25.654,0.0508,0.039,9.7777,0.513,0.0284,-0.4775
2645,763,825,33.631,25.632,0.0233,0.0122,9.7998,0.4746,-0.6125,-0.0396
2650,746,825,33.672,25.726,-0.0708,-0.0014,9.7434,-0.958,0.5683,0.4332
2655,751,819,33.684,25.652,-0.0102,-0.0099,9.7666,1.0943,0.3627,0.2426
2660,753,820,33.633,25.591,-0.0017,0.0635,9.9585,0.573,0.4839,0.681
2665,746,819,33.628,25.662,-0.0022,-0.0281,9.7863,0.6546,0.4565,-0.4557
2670,757,818,33.677,25.649,0.0943,0.0546,9.8515,0.8591,-0.133,-0.0146
2675,744,818,33.64,25.755,0.0213,-0.1177,9.8692,0.6927,-0.3326,-0.7527
2680,749,819,33.587,25.754,-0.0338,-0.0374,9.8291,0.0167,0.1949,0.9925
2685,757,819,33.736,25.641,-0.0013,-0.0401,9.8315,0.2212,-0.0102,0.1385
2690,750,819,33.598,25.684,-0.0367,-0.0552,9.8629,-0.3156,0.7424,-0.0324
2695,756,818,33.676,25.649,0.063,0.0006,9.7735,-0.4698,-0.8414,0.4639
2700,763,818,33.605,25.657,-0.0184,-0.0043,9.7895,-0.3326,0.6022,0.1813
2705,771,814,33.642,25.679,-0.0243,0.0739,9.7289,0.4443,0.0692,0.3321
2710,778,813,33.63,25.685,0.0142,0.0065,9.8264,-0.2582,-0.4471,-0.2551
2715,775,811,33.618,25.649,-0.0311,-0.0236,9.8575,-0.2435,-0.0504,0.0052
2720,780,813,33.695,25.649,0.0472,-0.035,9.8607,0.2505,0.6895,-0.5426
2725,794,805,33.645,25.743,0.0676,-0.0646,9.8903,0.0544,-1.1554,-0.4502
2730,794,806,33.579,25.511,0.0474,-0.0061,9.8119,0.1145,0.3832,-0.626
2735,811,807,33.633,25.661,-0.0243,0.0864,9.8249,0.0144,1.005,-0.3357
2740,824,811,33.585,25.663,0.0279,0.0083,9.7747,0.0801,0.4645,0.0901
2745,825,808,33.659,25.747,0.098,0.055,9.7905,-0.7617,0.2132,0.0624
2750,849,806,33.57,25.614,0.0333,0.0306,9.8125,0.5545,0.1796,0.2927
2755,861,802,33.603,25.66,-0.0316,0.0564,9.8949,-0.1699,-0.4374,0.3295
2760,867,801,33.628,25.667,-0.0269,-0.0151,9.8679,-0.6928,-0.4404,0.992
2765,884,801,33.592,25.66,-0.1135,0.0155,9.8394,0.3549,0.2031,-0.6906
2770,898,800,33.663,25.716,0.037,-0.0196,9.7887,0.2062,0.7634,-0.0269
2775,912,799,33.67,25.71,-0.0514,0.0057,9.8704,0.0888,-0.1505,-0.7505
2780,915,799,33.71,25.701,0.0104,0.0366,9.8741,0.5273,-0.1186,1.7966
2785,937,794,33.576,25.627,0.002,0.0279,9.7055,0.0391,-0.4556,0.3388
2790,940,788,33.597,25.745,0.1221,-0.0737,9.7882,-0.3277,-0.6724,0.5066
2795,973,785,33.57,25.641,0.0117,0.0183,9.7448,0.2128,-0.217,-0.6167
2800,974,777,33.702,25.642,0.055,-0.0034,9.825,-0.0783,0.0825,0.2026
2805,986,786,33.638,25.645,-0.024,0.033,9.7448,-0.5681,0.3885,0.4653
2810,1007,781,33.609,25.654,0.0175,-0.0257,9.8145,0.2087,0.4079,-0.3066
2815,1021,772,33.569,25.711,-0.0041,-0.1028,9.8606,-0.2135,0.4948,0.5455
2820,1030,778,33.589,25.722,0.0384,-0.0061,9.8057,0.2646,0.9761,0.0875
2825,1043,775,33.608,25.626,-0.0803,0.0177,9.8013,-1.0741,0.4816,1.3806
2830,1057,774,33.677,25.675,-0.0198,0.0475,9.8331,-0.3201,-0.9133,-0.3738
2835,1064,769,33.584,25.68,0.0027,0.0161,9.7356,-0.2128,0.2941,0.0756
2840,1088,763,33.632,25.726,-0.0148,-0.0306,9.7711,-1.0213,0.2014,-0.2025
2845,1083,767,33.689,25.606,0.0874,0.0738,9.7773,-0.3601,-0.3904,0.0792
2850,1098,759,33.557,25.752,0.0327,0.0674,9.85,-0.7011,-0.2087,0.2158
2855,1111,754,33.651,25.69,-0.0077,-0.0001,9.7185,-0.2563,1.2272,0.4203
2860,1124,755,33.635,25.662,-0.0538,-0.0873,9.8549,0.03,-0.2313,-0.1926
2865,1126,752,33.626,25.61,0.0166,0.0762,9.7808,-0.5539,-0.1549,-0.2616
2870,1138,746,33.7,25.751,0.0576,-0.0642,9.8183,1.0976,-0.1412,0.7391
2875,1151,745,33.744,25.74,-0.1081,-0.1829,9.7907,0.1459,0.2718,0.4039
2880,1145,749,33.677,25.728,0.0514,-0.0518,9.8014,-0.1099,-0.3773,0.4111
2885,1158,749,33.593,25.736,-0.0621,-0.036,9.8189,-0.0932,-0.2036,-0.1904
2890,1162,745,33.701,25.713,0.003,0.0632,9.7533,0.3958,0.7419,-0.9509
2895,1184,743,33.647,25.728,0.0204,0.0868,9.8157,0.2035,0.7403,0.1593
2900,1175,739,33.603,25.81,-0.0443,0.0516,9.7931,0.2415,-0.1871,0.397
2905,1175,743,33.655,25.703,-0.0294,0.0067,9.8506,-0.4745,0.1404,-0.2812
2910,1179,740,33.637,25.681,-0.0186,-0.0525,9.7957,-0.4078,0.0618,-0.0458
2915,1184,737,33.672,25.734,-0.0647,-0.0633,9.7896,0.2882,-0.026,0.3119
2920,1191,739,33.667,25.704,-0.0319,0.0085,9.8177,0.6242,-0.692,-0.5035
2925,1189,734,33.536,25.658,-0.0506,0.0036,9.7953,0.5015,-0.6267,0.5503
2930,1184,739,33.686,25.571,-0.0128,0.0381,9.8231,1.2091,-0.2162,-1.2126
2935,1194,744,33.703,25.644,-0.0297,-0.0358,9.7788,-0.1227,0.0426,1.0344
2940,1185,740,33.633,25.639,-0.0884,-0.0055,9.8405,0.3187,-0.2022,0.319
2945,1184,735,33.671,25.686,0.0091,-0.0515,9.851,1.0669,0.0413,-0.4532
2950,1187,744,33.662,25.674,0.0194,-0.0064,9.8503,0.0826,-0.3036,-0.456
2955,1184,738,33.732,25.674,-0.039,-0.0538,9.8182,-0.3076,0.1682,-0.0657
2960,1183,744,33.637,25.591,-0.0159,-0.0577,9.705,-0.9169,-0.468,-0.2401
2965,1178,744,33.71,25.739,0.0083,-0.0646,9.7428,-0.0305,-0.1361,0.861
2970,1182,745,33.611,25.788,-0.0154,0.022,9.8175,-0.795,0.0949,0.0753
2975,1171,747,33.667,25.594,0.0026,-0.0165,9.795,-0.232,-0.6169,1.333
2980,1176,744,33.633,25.678,-0.0685,-0.0235,9.8104,-0.0502,-0.6184,-0.6145
2985,1168,748,33.655,25.703,0.0186,0.0218,9.7844,-0.0621,0.6484,-0.1383
2990,1173,756,33.741,25.678,0.0482,-0.0381,9.7819,-0.7648,0.0056,-0.0994
2995,1158,757,33.712,25.669,-0.0998,-0.0138,9.848,-0.6599,-0.5792,0.1031
3000,1153,756,33.635,25.622,-0.0372,0.0612,9.8678,0.1338,0.2991,0.0855
3005,1158,763,33.49,25.686,0.0341,-0.0837,9.8711,0.0879,0.8799,-0.3983
3010,1149,759,33.741,25.766,0.0363,0.0301,9.8306,1.6423,-0.0894,0.1443
3015,1139,768,33.611,25.611,-0.024,0.0577,9.7414,0.319,-0.6802,0.2231
3020,1148,766,33.636,25.745,-0.0234,-0.075,9.8075,1.4997,0.2591,-0.195
3025,1138,769,33.598,25.757,0.0018,-0.0368,9.7856,0.1263,0.1714,-0.3369
3030,1133,774,33.649,25.654,0.0293,0.0297,9.7973,0.3715,-0.1966,-0.348
3035,1132,779,33.613,25.724,0.0151,-0.0032,9.9213,-0.6327,-0.5599,-0.0512
3040,1123,784,33.534,25.656,-0.0125,0.0707,9.8477,-0.5957,-0.2026,0.0785
3045,1122,788,33.544,25.703,-0.0309,-0.0594,9.8113,0.1537,0.0727,0.0503
3050,1128,793,33.634,25.65,-0.0219,-0.0002,9.7384,0.2503,-0.7711,-0.1862
3055,1128,792,33.543,25.761,-0.0258,-0.0097,9.7953,-0.788,0.3848,-0.0534
3060,1120,797,33.618,25.786,-0.0164,-0.0783,9.7607,0.2892,-0.159,0.8646
3065,1106,800,33.645,25.638,0.031,-0.0202,9.8172,0.5541,-0.4786,-0.3172
3070,1107,803,33.705,25.727,-0.0105,0.0345,9.9406,0.2639,0.2789,0.8462
3075,1108,805,33.625,25.699,-0.0728,-0.0905,9.816,-0.1571,-0.0361,0.4031
3080,1105,809,33.622,25.783,-0.0236,-0.0442,9.7035,-1.2188,-0.2425,-0.2234
3085,1105,815,33.633,25.656,-0.0107,-0.0243,9.7396,-0.4746,0.4233,1.5605
3090,1093,814,33.693,25.617,-0.0639,0.0059,9.8254,-0.1704,0.3375,0.0199
3095,1096,817,33.642,25.681,-0.0109,-0.0974,9.8409,0.0836,-0.3267,-1.0312
3100,1087,822,33.704,25.666,-0.0285,0.0316,9.7661,0.2249,-0.2294,0.2608
3105,1085,819,33.725,25.626,0.0355,-0.0463,9.7334,0.0948,0.0726,-1.3038
3110,1088,828,33.585,25.661,-0.0095,0.0651,9.8147,-0.2397,0.8483,-0.1552
3115,1086,826,33.564,25.718,-0.0589,-0.0057,9.8016,0.3431,-1.0747,-0.4938
3120,1093,833,33.593,25.633,0.1075,-0.02,9.852,0.911,0.1831,0.7914
3125,1087,831,33.681,25.679,-0.0599,-0.0219,9.7834,-0.5836,-0.1321,0.7147
3130,1089,830,33.664,25.675,0.0779,0.0677,9.8548,0.3905,-0.7162,0.8649
3135,1079,838,33.641,25.654,-0.108,-0.0218,9.8173,0.2348,0.6635,-0.7994
3140,1069,838,33.585,25.641,0.0193,-0.0363,9.8072,-0.7648,-0.0157,-0.3202
3145,1070,840,33.623,25.644,0.064,-0.0449,9.8491,0.5115,-0.0582,-0.3397
3150,1065,836,33.719,25.75,0.0863,-0.0041,9.7956,0.6474,-0.429,-1.041
3155,1065,844,33.652,25.69,0.0259,0.0416,9.8258,0.4223,-0.1414,-0.6105
3160,1056,836,33.623,25.697,-0.0376,-0.0183,9.842,0.0352,-0.2311,-0.1448
3165,1052,844,33.628,25.661,-0.0339,0.0512,9.734,-0.1216,0.5002,-0.3473
3170,1053,842,33.665,25.668,-0.0514,0.0142,9.7888,-0.4128,-0.1782,-0.9978
3175,1041,845,33.648,25.732,-0.0396,-0.0599,9.8467,-0.2238,0.7188,0.2859
3180,1039,845,33.567,25.685,-0.0348,-0.0648,9.8091,0.1664,0.192,-0.6459
3185,1031,839,33.675,25.634,-0.0649,0.0041,9.8562,-0.6362,-0.7582,-0.1754
3190,1025,841,33.643,25.697,-0.0031,-0.0875,9.8207,0.307,0.1259,0.1843
3195,1029,849,33.702,25.727,0.0808,0.0441,9.8812,0.0701,-0.2873,-0.1755
3200,1014,844,33.632,25.721,0.0455,-0.0132,9.801,-0.2426,-0.1565,0.6681
3205,1019,845,33.642,25.669,-0.0276,-0.0039,9.7969,-0.0937,0.0605,0.6312
3210,993,846,33.575,25.702,-0.0392,-0.0369,9.8113,-0.2553,-0.0479,-0.0999
3215,990,845,33.687,25.638,-0.0738,0.0474,9.7414,0.4663,-0.6872,0.9055
3220,988,848,33.592,25.638,0.0057,-0.0055,9.9115,0.6814,-0.2799,0.8869
3225,980,837,33.559,25.675,-0.0232,-0.0447,9.7794,0.8662,0.8766,0.0841
3230,964,842,33.587,25.691,0.0124,0.0304,9.791,-0.1297,-0.1127,0.1433
3235,960,843,33.708,25.769,0.0188,-0.0483,9.7864,-0.1047,-0.0955,-0.2614
3240,943,840,33.593,25.656,0.0131,0.0333,9.769,-0.339,-1.3766,-0.2208
3245,938,840,33.643,25.623,-0.0427,0.0164,9.8225,-0.0947,-0.4032,0.1577
3250,932,846,33.617,25.699,0.072,-0.0128,9.8933,-0.0198,0.4784,0.0991
3255,921,836,33.658,25.697,0.0355,0.0049,9.835,0.6607,0.2175,0.7402
3260,910,839,33.607,25.622,-0.0292,-0.0252,9.8083,0.5915,-0.024,0.8329
3265,911,835,33.623,25.584,-0.0033,0.0317,9.8233,0.3449,-0.0136,-0.3718
3270,906,834,33.573,25.658,-0.0341,-0.094,9.8421,-0.1436,0.221,0.4562
3275,889,838,33.562,25.595,-0.0584,0.0065,9.7862,0.1228,0.7246,0.3778
3280,866,838,33.536,25.702,0.0461,0.0239,9.779,0.7302,0.2165,0.4557
3285,864,833,33.558,25.708,0.0059,-0.0755,9.8627,0.4863,0.837,0.1651
3290,841,839,33.717,25.713,0.0352,0.0316,9.8119,0.6027,-0.4069,-0.5575
3295,846,832,33.612,25.67,0.0342,-0.0312,9.7916,-0.0608,0.567,0.4181
3300,830,829,33.663,25.721,-0.0586,0.0282,9.7378,0.7671,-0.8771,0.2078
3305,812,828,33.571,25.717,-0.0213,0.0812,9.7433,-0.4357,0.8485,-0.2088
3310,814,832,33.619,25.708,0.0081,0.0397,9.814,0.4766,0.0355,-0.2872
3315,807,826,33.705,25.71,0.024,-0.0359,9.8279,0.4186,-0.424,0.3919
3320,800,822,33.591,25.653,-0.014,0.0346,9.7656,0.3661,-0.8802,-0.5573
3325,788,829,33.598,25.756,0.0601,0.0539,9.8408,0.3483,0.0041,0.2059
3330,777,828,33.57,25.687,-0.0551,0.0666,9.8227,-0.0999,0.0351,0.1683
3335,772,824,33.631,25.641,-0.0284,0.0269,9.7988,-0.3103,0.4158,0.2568
3340,772,825,33.672,25.631,-0.0652,-0.0811,9.7938,0.0678,0.2672,0.0768
3345,762,828,33.714,25.648,-0.0263,-0.0323,9.8016,-0.6379,0.0468,-1.1269
3350,764,828,33.669,25.666,-0.0108,0.1214,9.8654,0.0391,-0.2832,-0.126
3355,761,825,33.641,25.665,-0.019,-0.0747,9.7895,-0.2231,-0.5111,0.6945
3360,759,823,33.668,25.749,0.0024,0.049,9.8264,-0.3294,0.6777,-0.7438
3365,749,826,33.628,25.706,0.0373,-0.0022,9.8097,-0.1497,0.3764,0.3031
3370,743,819,33.678,25.726,0.0452,0.0118,9.8027,0.3791,-0.1156,-0.9708
3375,758,822,33.629,25.66,-0.0236,0.0475,9.7995,1.1769,-0.9245,-0.3187
3380,756,815,33.631,25.712,-0.0155,-0.0657,9.7865,-0.5264,0.1976,0.6667
3385,739,816,33.574,25.611,0.0622,0.0136,9.7556,0.2148,-0.8395,0.1471
3390,745,818,33.644,25.761,0.0623,-0.0906,9.7573,-0.0403,-0.3915,-0.7751
3395,746,819,33.604,25.76,0.05,0.0326,9.7991,-0.0227,0.1102,0.181
3400,758,819,33.63,25.624,-0.0168,-0.1152,9.7058,-0.6298,0.6171,-0.4359
3405,753,816,33.565,25.657,0.0144,0.0101,9.7958,0.428,0.6591,-0.9971
3410,767,819,33.738,25.683,0.0792,-0.0996,9.8031,-0.1449,0.9333,0.1209
3415,779,818,33.593,25.759,-0.0177,-0.031,9.7805,0.3884,0.0615,0.1812
3420,768,809,33.657,25.725,-0.0259,-0.0232,9.7793,-0.1049,0.0879,0.7418
3425,784,810,33.644,25.665,-0.0061,0.0388,9.7474,0.9243,0.1759,-0.3429
3430,801,806,33.616,25.703,-0.0293,-0.052,9.6601,-0.9744,-0.1825,0.504
3435,801,802,33.65,25.635,0.0398,-0.0055,9.802,-0.369,0.1164,0.2284
3440,806,807,33.662,25.641,0.0691,0.0176,9.7966,0.6871,0.8082,-0.9951
3445,823,805,33.536,25.646,0.002,-0.013,9.7801,-0.6929,0.5374,0.045
3450,828,805,33.674,25.682,0.0379,-0.065,9.8174,-0.0156,-0.1316,-0.391
3455,838,801,33.635,25.768,-0.0418,-0.0348,9.7855,0.4098,0.3751,-0.4356
3460,858,805,33.612,25.641,-0.0788,-0.0498,9.826,0.0043,0.7439,-0.366
3465,869,802,33.639,25.705,0.0475,-0.0188,9.8639,-0.1116,-0.5469,1.1715
3470,884,794,33.671,25.697,0.0249,-0.117,9.7775,0.4279,-0.4078,0.8988
3475,895,800,33.604,25.71,-0.0569,0.0354,9.8422,-0.531,0.19,0.5328
3480,900,798,33.662,25.736,-0.0304,0.019,9.8628,-0.3923,-0.649,-0.0239
3485,918,797,33.643,25.735,0.0381,-0.0293,9.8278,0.5563,1.3546,0.1569
3490,931,791,33.729,25.677,-0.0044,-0.0799,9.8037,-0.4027,0.965,0.7704
3495,941,789,33.656,25.604,0.0232,-0.0023,9.8231,-0.1737,0.3491,-0.1807
3500,960,787,33.682,25.663,0.0353,0.1419,9.7521,0.7175,0.225,-0.5061
3505,973,783,33.716,25.779,0.0098,0.0888,9.7991,0.8955,-0.3507,0.3147
3510,991,783,33.609,25.735,0.0744,-0.0746,9.8237,-0.5933,0.1962,0.3669
3515,1002,778,33.609,25.739,-0.0093,-0.0255,9.7936,-0.2056,-1.1545,-0.5264
3520,1006,775,33.712,25.599,0.0271,0.0984,9.8874,-0.1613,-0.8787,-1.0114
3525,1031,773,33.626,25.741,0.0529,0.0538,9.9493,-0.2981,-0.3909,-0.4935
3530,1037,776,33.678,25.708,0.0384,0.0277,9.7784,-0.2205,-0.2413,0.0452
3535,1048,770,33.56,25.71,0.026,0.0088,9.7993,0.3192,-1.185,0.0829
3540,1060,770,33.678,25.665,0.011,0.058,9.8151,0.4862,0.0004,0.0954
3545,1075,765,33.596,25.713,0.0173,0.0745,9.7999,0.0124,-0.7625,0.1179
3550,1086,763,33.644,25.66,-0.0861,0.0022,9.8139,-0.5626,-0.1737,-0.4985
3555,1101,756,33.65,25.677,-0.0219,-0.0248,9.8934,-0.7533,-0.0717,-0.703
3560,1101,760,33.653,25.568,0.0098,-0.0143,9.8774,-0.2002,0.8545,0.5776
3565,1130,754,33.604,25.688,-0.0467,-0.0404,9.8909,0.251,-0.236,-0.429
3570,1131,752,33.567,25.673,-0.0631,-0.0147,9.8309,-0.2668,0.0693,1.0202
3575,1135,759,33.725,25.67,0.0267,-0.0433,9.7725,-0.9634,0.04,-0.2597
3580,1142,748,33.643,25.65,-0.1111,0.025,9.8109,0.2329,0.6898,-0.7096
3585,1148,748,33.676,25.578,0.1023,0.0754,9.8366,-0.2868,-0.3444,0.5996
3590,1164,747,33.657,25.649,0.0172,0.0815,9.8684,-0.2053,-0.144,-1.0446
3595,1164,744,33.58,25.685,-0.0016,-0.0002,9.8351,-0.5971,0.3828,-0.0929
3600,1163,743,33.652,25.687,0.0418,-0.0016,9.836,-0.6462,-0.2596,-0.0769
3605,1168,742,33.673,25.659,-0.0064,0.022,9.8788,-0.4486,-1.0236,0.3974
3610,1175,743,33.726,25.71,0.0508,0.0191,9.796,0.4455,0.3936,-0.1469
3615,1176,740,33.551,25.678,-0.0639,0.0185,9.8436,-0.6735,-0.1937,-0.194
3620,1181,742,33.606,25.708,0.1401,-0.021,9.8375,0.6286,-0.3839,-0.0911
3625,1174,742,33.662,25.688,0.0731,-0.0348,9.8491,0.6811,-0.4376,-0.6717
3630,1190,739,33.669,25.693,0.01,-0.0219,9.8036,-0.1849,0.5147,-0.4972
3635,1175,739,33.656,25.551,-0.0263,0.0269,9.7608,0.1204,0.7992,0.3793
3640,1192,737,33.616,25.702,0.0627,-0.0113,9.7808,-0.0201,-0.2048,-0.4225
3645,1188,735,33.705,25.746,0.0316,0.032,9.8726,0.4231,0.5334,0.2403
3650,1187,739,33.688,25.725,-0.0416,0.0454,9.8665,0.7594,-0.2741,-0.8792
3655,1196,743,33.66,25.729,-0.0573,0.0218,9.7459,-0.693,-1.2881,0.5734
3660,1188,736,33.654,25.673,-0.0816,0.0277,9.8367,0.7357,0.1589,0.2436
3665,1182,739,33.632,25.585,-0.0279,-0.0312,9.7633,0.5467,1.1879,-0.3444
3670,1178,745,33.753,25.685,0.0428,0.0792,9.7625,0.4099,-0.3345,-0.5646
3675,1165,744,33.696,25.723,-0.0422,0.0641,9.7884,-0.2041,-0.2807,-0.9807
3680,1173,751,33.637,25.69,0.0581,0.0499,9.8652,0.1064,-0.609,0.8791
3685,1170,747,33.595,25.69,0.0097,0.0152,9.8575,-0.488,-0.1793,-0.9705
3690,1169,748,33.609,25.704,-0.0401,0.0221,9.7576,0.0601,0.7206,-0.1765
3695,1164,751,33.685,25.711,0.0625,0.0094,9.7509,0.233,0.0776,0.1495
3700,1165,751,33.585,25.733,-0.0193,0.0664,9.7878,-0.5342,0.1206,0.4394
3705,1157,758,33.678,25.62,-0.0467,0.0147,9.8536,0.4415,-0.6902,-0.6935
3710,1154,759,33.645,25.757,-0.0564,0.0737,9.8345,0.1175,-0.2762,0.6876
3715,1140,764,33.699,25.68,-0.0055,-0.0671,9.7373,-0.2849,0.1467,-0.2083
3720,1151,762,33.588,25.714,-0.0563,0.011,9.8031,0.4945,0.2383,0.0867
3725,1148,769,33.71,25.695,-0.008,0.0501,9.8424,0.0273,0.2758,0.6567
3730,1132,770,33.691,25.784,-0.0744,-0.0199,9.7998,0.5385,0.1968,-0.6708
3735,1133,771,33.624,25.712,0.0202,-0.0469,9.7874,-0.4374,0.4233,-0.1949
3740,1136,779,33.703,25.647,0.0163,-0.0053,9.8357,0.3095,0.517,-0.5206
3745,1129,785,33.681,25.714,-0.1055,-0.0711,9.8143,-0.0907,-0.8339,0.6819
3750,1126,786,33.662,25.711,0.0086,0.0018,9.8204,-0.5874,-0.3012,1.4235
3755,1117,785,33.715,25.629,0.014,-0.0641,9.7974,0.492,0.8057,0.5885
3760,1114,791,33.6,25.676,0.0245,-0.0383,9.7713,-0.0249,1.0403,-0.2601
3765,1107,790,33.63,25.84,0.0411,-0.013,9.8314,0.0135,-0.8685,-0.6633
3770,1108,800,33.612,25.654,-0.0023,-0.0152,9.8297,0.8478,0.3643,-0.4636
3775,1103,807,33.654,25.679,0.0143,-0.0117,9.7556,-0.3564,0.0703,0.5978
3780,1100,800,33.635,25.723,0.0487,-0.0477,9.816,-0.5532,-1.3956,-0.5843
3785,1117,810,33.626,25.683,0.0523,0.0176,9.8435,-0.3098,-0.2663,0.3674
3790,1098,808,33.635,25.726,0.0353,0.0947,9.7481,-0.0176,-0.3246,-0.5602
3795,1092,811,33.582,25.703,-0.0605,0.1022,9.9114,0.4857,-0.6203,-0.2891
3800,1098,818,33.621,25.73,-0.0058,0.0383,9.8445,-0.5128,-0.053,0.1422
3805,1092,823,33.663,25.789,0.0044,-0.062,9.7806,0.0463,-0.3581,0.541
3810,1099,826,33.642,25.737,0.1013,0.0547,9.8168,-0.4699,-0.0705,-0.076
3815,1095,828,33.62,25.65,0.0457,0.0348,9.874,0.7094,0.1288,0.2659
3820,1091,829,33.65,25.697,0.0777,-0.0215,9.8166,1.499,0.3582,0.2319
3825,1081,828,33.549,25.636,0.0156,0.0038,9.8686,0.1676,0.4485,-0.2714
3830,1087,830,33.704,25.782,0.0315,0.1038,9.782,0.0796,-0.4183,0.4786
3835,1072,838,33.682,25.72,-0.0914,-0.0606,9.8328,-0.2647,-0.7819,0.0402
3840,1063,840,33.626,25.757,0.0349,-0.034,9.725,0.2958,-0.4449,0.8878
3845,1071,841,33.723,25.673,0.0136,-0.1206,9.8218,0.3944,0.5007,0.295
3850,1076,842,33.601,25.656,0.0018,0.0105,9.7659,-0.5867,-0.6303,-0.8374
3855,1072,842,33.617,25.59,0.0152,-0.0026,9.7867,-0.0559,-0.3512,0.2369
3860,1066,840,33.664,25.699,-0.0041,0.0047,9.8013,0.0403,-0.0896,0.3448
3865,1062,843,33.617,25.632,0.0226,-0.0286,9.8024,0.2372,0.4509,0.3887
3870,1060,843,33.619,25.676,-0.025,0.061,9.7695,0.3149,-0.1487,-0.3588
3875,1061,844,33.644,25.673,0.0533,-0.0307,9.7275,-0.6835,0.022,-1.1189
3880,1052,847,33.624,25.665,0.0505,-0.0054,9.8065,-0.2854,0.8186,-1.0526
3885,1038,844,33.625,25.675,0.0031,-0.0377,9.8575,0.1672,0.0776,0.1042
3890,1042,849,33.674,25.673,-0.0754,0.0244,9.8472,0.4149,-0.7039,-0.0508
3895,1029,840,33.569,25.734,-0.0033,0.017,9.7824,-1.0907,0.3739,0.1139
3900,1029,851,33.562,25.691,0.0292,0.0311,9.722,0.1179,0.1318,0.5427
3905,1014,846,33.578,25.661,-0.0416,-0.0702,9.8294,-0.1033,-0.4922,0.1417
3910,1008,842,33.683,25.697,-0.0562,-0.003,9.8075,-0.4087,-0.1445,-0.219
3915,1001,838,33.638,25.657,-0.0081,-0.0829,9.8381,-0.3525,-1.1166,0.5384
3920,1009,848,33.55,25.748,-0.0055,-0.0043,9.8225,0.3308,0.0852,-0.4299
3925,980,846,33.605,25.698,0.0549,0.0917,9.7497,-0.2671,0.4431,-0.1501
3930,978,842,33.618,25.617,0.0186,0.0258,9.7756,-0.7826,-0.1958,0.8325
3935,979,843,33.694,25.755,0.0844,0.0796,9.901,0.2151,-0.0225,0.2165
3940,966,841,33.681,25.671,0.0201,0.0481,9.7759,-0.8512,0.0782,-0.4464
3945,945,834,33.665,25.601,0.0173,-0.0044,9.8499,-1.6952,0.392,0.2813
3950,937,840,33.644,25.697,0.1013,-0.0617,9.7831,-0.1082,-0.766,-0.1889
3955,927,844,33.673,25.74,-0.0079,0.0533,9.7585,0.2303,0.7397,-0.2818
3960,931,839,33.651,25.699,-0.0699,-0.0108,9.8242,0.0835,-0.7656,0.3834
3965,911,835,33.686,25.743,-0.0201,-0.065,9.8329,1.4847,0.3249,0.4068
3970,905,839,33.565,25.727,-0.1041,-0.0128,9.7799,-0.1973,0.1078,-1.2076
3975,894,836,33.637,25.714,0.0403,0.0115,9.7776,-0.6416,-0.195,0.6649
3980,875,831,33.715,25.734,0.0473,-0.0507,9.8166,-0.6196,-0.3379,0.5563
3985,876,839,33.695,25.696,-0.009,0.0332,9.724,0.1193,-0.3017,0.1488
3990,860,832,33.604,25.721,0.0098,0.0092,9.6583,-0.8234,0.2726,0.2058
3995,844,834,33.62,25.69,-0.0848,0.0641,9.8133,-0.3694,0.6186,0.2908
4000,846,829,33.73,25.606,-0.071,-0.0454,9.7797,0.0703,0.3822,-0.296
4005,835,836,33.642,25.653,0.0367,0.1057,9.7792,0.4808,0.2078,-0.2857
4010,822,830,33.636,25.724,0.0832,-0.0765,9.8258,-0.0479,-0.8393,0.1857
4014,820,834,33.733,25.711,-0.0659,0.0505,9.8232,0.2136,-0.1702,-1.6439
4019,801,829,33.677,25.741,-0.0322,-0.0156,9.8491,-0.0526,-0.975,-0.5899
4025,801,831,33.591,25.741,-0.1207,-0.0196,9.8515,0.7898,0.3838,0.334
4030,788,829,33.624,25.672,-0.0013,0.0356,9.7603,0.4757,-0.5934,-0.4837
4035,786,827,33.693,25.724,0.0481,0.0709,9.83,0.2882,-0.1176,0.1435
4040,786,832,33.707,25.68,-0.0782,-0.0933,9.861,-0.0792,0.0424,-0.1358
4045,772,822,33.681,25.683,-0.0472,-0.0202,9.8632,0.0231,0.6617,0.7622
4050,763,823,33.587,25.636,0.02,-0.012,9.8578,0.307,0.0795,-0.2853
4054,770,818,33.707,25.703,0.0489,-0.067,9.8393,-0.3345,-0.8097,0.9241
4059,751,821,33.68,25.736,0.0518,0.0192,9.6811,-0.31,0.2365,-0.0521
4065,744,821,33.711,25.72,0.0181,-0.0588,9.8016,0.2914,-0.0989,0.4394
4070,748,825,33.578,25.679,0.0047,0.0034,9.8606,0.0924,-0.9792,-0.0614
4075,754,822,33.577,25.75,0.0671,-0.0117,9.8832,-0.3464,0.3267,0.2646
4080,753,820,33.652,25.713,0.054,-0.002,9.7997,0.0301,-0.1408,-0.9873
4085,753,826,33.639,25.619,0.0218,-0.0136,9.7287,0.1358,-0.1267,0.7366
4090,749,820,33.74,25.732,-0.0477,-0.0253,9.7253,0.324,-0.9679,0.435
4094,755,817,33.634,25.623,0.0014,-0.0022,9.7368,-0.6202,-0.1612,0.0077
4100,745,816,33.623,25.601,-0.0359,0.0093,9.7513,-1.0397,0.4478,-0.5364
4105,752,820,33.565,25.713,-0.0763,0.0086,9.7819,0.489,-0.3814,-0.272
4110,762,810,33.624,25.762,-0.0715,0.0391,9.787,0.4262,0.5191,0.0134
4115,756,812,33.698,25.693,0.0127,-0.0041,9.8714,-0.5181,-0.0914,0.6228
4120,763,815,33.712,25.78,-0.1156,0.115,9.8128,-0.3369,0.4923,-0.0654
4125,777,809,33.642,25.626,-0.0516,-0.0129,9.822,0.4001,-0.0499,0.1523
4130,785,812,33.662,25.654,0.0217,0.0572,9.8793,1.464,0.0198,0.1046
4135,791,812,33.59,25.693,-0.0315,0.0716,9.7689,0.0612,-0.0889,0.1147
4140,801,813,33.606,25.712,0.0244,-0.0044,9.8217,-0.7429,0.5178,-0.812
4145,810,816,33.662,25.68,0.051,0.0394,9.8188,0.0668,0.4461,-0.9975
4150,812,808,33.571,25.71,-0.0077,-0.0528,9.7777,-0.4053,0.7766,-0.3833
4155,833,807,33.644,25.65,0.0103,0.0417,9.8503,-0.9314,0.013,0.8299
4160,848,807,33.678,25.629,-0.0116,-0.0289,9.8722,-0.5833,-0.284,0.4444
4165,851,802,33.7,25.624,-0.1031,0.027,9.7571,-0.0939,0.099,0.7542
4170,855,802,33.596,25.617,-0.0163,-0.0284,9.8707,0.1901,-0.4625,-0.5988
4175,865,806,33.557,25.792,-0.0275,-0.0666,9.8949,-0.3941,0.1702,0.3998
4180,895,803,33.677,25.765,0.0404,0.0567,9.8665,-0.3162,0.6119,0.0259
4185,899,796,33.67,25.612,0.0663,-0.0122,9.7857,-0.0584,-0.0873,-0.1506
4190,917,791,33.521,25.698,0.008,-0.0466,9.8881,-0.0889,-0.4555,0.3399
4195,932,790,33.604,25.683,-0.0011,0.0172,9.7585,0.1508,0.3512,-0.4146
4200,945,789,33.709,25.731,0.0377,0.084,9.734,0.08,-0.159,-0.1207
4205,960,787,33.691,25.71,-0.0018,0.0058,9.9219,0.055,-0.0919,-0.1231
4210,963,789,33.685,25.704,-0.0734,0.029,9.8757,0.2616,-0.5061,0.3194
4215,986,785,33.631,25.729,-0.0385,0.0006,9.7526,-0.3068,-0.1661,-0.5008
4220,998,783,33.656,25.725,-0.0036,-0.0717,9.8297,-0.2653,-0.6651,1.0161
4225,1015,775,33.611,25.749,0.0415,-0.0083,9.8055,0.5334,0.5534,0.4721
4230,1029,772,33.56,25.744,0.065,0.0459,9.8085,-0.1942,0.1079,0.5586
4235,1032,779,33.69,25.692,-0.0448,-0.0523,9.792,0.9343,0.0129,0.2405
4240,1054,772,33.64,25.68,-0.0048,-0.019,9.8075,0.3032,-0.4759,-0.1945
4245,1062,766,33.669,25.706,-0.0686,-0.0512,9.87,-0.2662,1.0099,-0.0325
4250,1072,765,33.579,25.666,-0.0618,-0.0059,9.8628,-0.3858,0.6439,0.9399
4255,1082,765,33.626,25.661,0.0255,-0.0418,9.8795,0.0275,-0.064,0.742
4260,1092,758,33.6,25.726,0.0606,0.0516,9.856,-0.049,-0.1853,0.5152
4265,1103,756,33.647,25.676,-0.006,0.0461,9.7648,-0.2298,-0.0281,0.1945
4270,1123,756,33.599,25.676,0.0093,-0.0246,9.8572,-0.178,0.5658,0.6403
4275,1125,754,33.659,25.701,-0.0032,0.0288,9.7709,0.4231,0.094,0.0226
4280,1123,749,33.694,25.751,-0.0958,0.0963,9.7453,0.0771,0.1321,0.5602
4285,1137,755,33.759,25.712,0.0384,-0.0414,9.8636,-0.5386,0.0707,-0.5075
4290,1150,751,33.649,25.723,-0.0646,0.0655,9.7063,0.0885,-0.2306,0.1759
4295,1155,744,33.721,25.612,-0.0438,-0.0247,9.8279,0.5051,0.502,0.6073
4300,1152,747,33.682,25.633,-0.032,-0.0291,9.8619,-0.2183,-0.4151,0.1973
4305,1160,747,33.596,25.631,0.0576,0.0253,9.8295,-0.5563,0.3648,0.3099
4310,1176,747,33.6,25.761,-0.0205,0.0514,9.8526,-0.0062,0.4603,-0.2055
4315,1176,740,33.623,25.709,0.0585,-0.0259,9.8389,0.3095,0.6179,0.5074
4320,1188,737,33.663,25.731,-0.0735,-0.0814,9.7766,0.1445,0.534,-0.6424
4325,1172,746,33.674,25.716,0.027,-0.0591,9.887,0.3109,-0.5207,-0.4072
4330,1188,740,33.675,25.714,-0.0667,0.0231,9.8106,0.4831,0.3078,-0.3315
4335,1194,735,33.674,25.685,-0.0224,-0.0192,9.7822,0.3438,0.5273,0.1299
4340,1194,738,33.588,25.699,0.0288,-0.0018,9.7549,-0.7358,-0.5663,0.1839
4345,1187,738,33.598,25.739,0.0382,0.0577,9.8364,-0.7259,-0.591,-0.7448
4350,1193,740,33.659,25.716,0.0191,-0.1498,9.7921,0.3736,-0.2714,-1.0511
4355,1188,735,33.693,25.676,-0.0201,-0.0103,9.8354,0.0768,0.3173,0.4295
4360,1186,738,33.691,25.668,-0.0117,0.036,9.8666,-1.4078,-0.6106,-0.1801
4365,1188,742,33.628,25.769,-0.0376,0.0544,9.907,0.6935,0.1759,-0.0044
4370,1190,739,33.635,25.681,-0.0081,0.0117,9.8304,-0.5948,-0.4613,0.3163
4375,1172,743,33.71,25.754,-0.1269,0.003,9.7448,-0.6191,-0.2615,-0.0026
4380,1176,745,33.71,25.722,0.0751,0.112,9.7764,0.2259,-0.0724,0.1258
4385,1180,746,33.655,25.687,-0.0142,0.068,9.737,-0.0147,-0.1443,-0.7683
4390,1172,744,33.602,25.685,0.0528,0.0529,9.8077,0.4503,-0.0554,0.3356
4395,1168,747,33.633,25.724,-0.0311,0.0428,9.6897,-0.1524,0.0801,-0.1003
4400,1156,751,33.583,25.673,-0.0864,0.0428,9.8042,0.3986,0.6027,-0.7384
4405,1161,754,33.622,25.762,-0.0557,0.0197,9.8018,-0.6698,-0.2004,-0.1105
4410,1164,754,33.664,25.791,0.0377,-0.0033,9.8033,0.4427,0.0385,0.0156
4415,1158,759,33.685,25.729,-0.1385,0.0406,9.7976,-0.3801,0.421,0.4994
4420,1160,765,33.607,25.743,-0.0758,0.0033,9.8913,-0.9058,0.0858,0.5377
4425,1142,763,33.659,25.65,0.0275,-0.0153,9.7378,0.0297,0.0153,-0.0304
4430,1147,772,33.689,25.812,-0.0055,0.0478,9.6996,-0.2782,-0.6503,-0.701
4435,1136,774,33.684,25.65,-0.0343,-0.0132,9.7577,-0.0529,0.2247,0.1251
4440,1142,773,33.621,25.774,-0.0438,-0.0582,9.7184,-0.1421,0.842,0.4701
4445,1136,776,33.65,25.711,-0.0295,-0.038,9.8512,0.3713,-0.1593,-0.3879
4450,1130,774,33.681,25.668,0.0941,-0.0763,9.745,0.1068,-0.4548,-0.8138
4455,1129,782,33.706,25.732,0.0054,-0.0235,9.8089,0.4143,-0.6068,-0.0027
4460,1123,786,33.669,25.611,-0.1156,-0.0438,9.8147,0.2998,-0.1172,0.4738
4465,1129,789,33.557,25.65,-0.007,0.0198,9.8576,-0.1479,0.0993,-0.4666
4470,1120,792,33.648,25.758,0.1303,0.0492,9.7915,-0.9141,0.1586,-0.5974
4475,1116,794,33.664,25.77,0.0275,-0.0061,9.7874,-0.3534,-0.1874,-0.0508
4480,1109,803,33.71,25.644,-0.0202,0.0232,9.8029,-0.8918,0.5446,-1.0647
4485,1106,800,33.607,25.626,-0.0149,0.0528,9.8388,-0.3005,0.4093,-0.1973
4490,1111,807,33.621,25.743,-0.0054,-0.0096,9.7113,-0.1284,-0.006,0.4297
4495,1107,808,33.703,25.713,-0.016,-0.0674,9.8483,0.3192,-0.0596,0.5329
4500,1097,811,33.632,25.696,-0.0069,-0.0236,9.8558,0.2862,-0.0755,-0.1029
4505,1095,814,33.775,25.589,-0.0485,0.0723,9.8334,0.0432,-0.0118,-0.2638
4510,1096,813,33.69,25.708,-0.0165,0.0082,9.7951,0.9799,0.5226,0.2541
4515,1097,825,33.611,25.748,0.0775,-0.0171,9.8734,-0.3132,0.8546,0.6661
4520,1087,821,33.676,25.694,0.0014,-0.0481,9.7531,-0.4402,0.2363,-0.3671
4525,1092,828,33.623,25.678,-0.078,-0.0314,9.8096,0.6525,0.0465,-0.4206
4530,1085,828,33.674,25.677,-0.0458,0.0459,9.817,-0.3102,-0.0251,-0.385
4535,1088,828,33.667,25.677,-0.0138,-0.0324,9.8979,0.7517,-0.1612,-0.436
4540,1079,835,33.63,25.677,-0.0405,-0.038,9.8162,1.0745,-0.1973,0.0926
4545,1073,833,33.605,25.71,0.0063,0.0512,9.8731,0.3386,0.3002,0.9155
4550,1076,833,33.564,25.667,-0.0943,0.0954,9.7447,-0.256,-0.3396,-0.2687
4555,1073,837,33.736,25.638,-0.0835,0.006,9.8343,0.3928,-0.2229,-0.6657
4560,1069,844,33.671,25.643,0.0724,0.0417,9.8569,-0.0825,-0.1199,-0.6825
4565,1059,841,33.668,25.723,-0.0111,0.0154,9.7312,0.4048,-0.256,-0.7223
4570,1061,842,33.649,25.63,0.1312,-0.04,9.8173,0.3179,0.2452,-0.1609
4575,1055,845,33.689,25.762,-0.0272,0.0012,9.7245,-0.0391,1.1601,0.5523
4580,1053,844,33.547,25.683,-0.0065,-0.0698,9.8056,-0.1233,0.0281,-0.456
4585,1052,847,33.608,25.714,0.0691,0.033,9.6936,0.534,0.5817,0.0973
4590,1041,845,33.609,25.56,-0.031,-0.0463,9.7397,-0.1588,0.1307,0.0469
4595,1043,845,33.611,25.687,0.0082,0.0034,9.6976,-0.1492,-0.5078,-0.1817
4600,1037,843,33.647,25.739,0.055,0.0521,9.8635,0.8726,0.66,-0.007
4605,1025,849,33.657,25.599,0.027,-0.069,9.8259,0.4626,0.2152,0.4291
4610,1021,845,33.593,25.644,-0.0323,0.0518,9.7777,-1.0356,1.3184,0.4547
4615,1010,838,33.689,25.703,0.0111,-0.0352,9.8078,-0.3291,1.0627,0.5914
4620,998,840,33.687,25.667,0.0743,0.0228,9.6896,0.8846,-0.7925,0.0316
4625,998,846,33.69,25.628,-0.0686,0.0018,9.7465,0.2873,0.4186,0.3867
4630,998,844,33.713,25.711,-0.0617,-0.0263,9.8296,-0.3426,0.7704,0.1505
4635,980,838,33.607,25.667,0.0128,0.0576,9.7984,-0.0325,0.2512,-0.0731
4640,975,846,33.694,25.67,0.0817,0.0361,9.8352,0.2259,-0.4646,0.9343
4645,968,842,33.632,25.739,0.0444,-0.0963,9.8344,0.4692,0.1074,-0.4847
4650,957,838,33.722,25.684,0.013,0.0329,9.7734,0.3767,0.3934,-0.2584
4655,946,841,33.686,25.707,-0.0776,-0.0015,9.8509,0.3009,0.1154,-0.2344
4660,943,835,33.596,25.755,-0.0517,0.0072,9.8233,-0.0839,-0.6805,-0.2971
4665,925,839,33.694,25.699,0.0215,-0.1632,9.7613,0.8742,0.6626,0.5084
4670,918,835,33.628,25.752,-0.0011,-0.0208,9.7523,0.1128,-0.1094,-0.7123
4675,904,836,33.664,25.798,-0.0403,-0.0047,9.8777,0.0769,-0.3297,0.4183
4680,894,835,33.708,25.636,0.0851,0.0235,9.7986,-0.0639,0.0719,-0.4585
4685,892,832,33.669,25.694,-0.0329,-0.0089,9.8666,0.0493,-0.1018,-0.3507
4690,870,834,33.594,25.688,-0.084,-0.0258,9.8387,-0.1307,0.142,0.1539
4695,867,830,33.656,25.755,0.05,0.0154,9.8035,-0.2846,-0.2399,0.1405
4700,859,832,33.643,25.734,-0.0503,0.0229,9.7452,0.1474,0.857,1.0152
4705,845,828,33.699,25.71,0.0443,0.0081,9.8525,0.2696,0.1342,-0.1207
4710,842,832,33.67,25.735,0.011,0.0456,9.826,0.7321,-0.2365,-0.3265
4715,839,833,33.709,25.696,0.0215,-0.0016,9.7346,0.0482,0.3214,-0.7169
4720,811,828,33.684,25.679,0.018,-0.036,9.8737,0.1222,1.1346,0.4422
4725,810,823,33.616,25.617,0.0689,0.0258,9.8279,-1.3426,-0.1486,0.5145
4730,806,826,33.674,25.777,0.0083,0.0468,9.7843,-0.6023,-0.5056,0.3151
4735,788,826,33.628,25.671,-0.0237,0.0144,9.7992,-0.0754,-0.232,-0.1112
4740,791,827,33.6,25.679,-0.0827,-0.0402,9.8285,0.0211,-0.2829,0.2297
4745,783,822,33.602,25.707,0.0467,0.0148,9.7918,-0.9102,0.2506,-0.3174
4750,772,823,33.66,25.675,0.0323,0.009,9.6737,0.0408,-0.5894,0.107
4755,780,823,33.583,25.724,0.0023,0.0138,9.8704,-0.444,-0.2207,-0.3268
4760,767,817,33.635,25.769,0.0165,-0.0736,9.817,-0.6537,-0.9566,0.2598
4765,754,825,33.594,25.721,-0.0149,-0.0441,9.8521,0.2572,-0.4764,0.0498
4770,755,822,33.618,25.646,0.027,0.0075,9.8007,-0.496,-0.1058,-0.3505
4775,752,820,33.665,25.702,0.0968,0.0422,9.7784,-0.4176,-0.3222,-0.1982
4780,751,820,33.594,25.679,-0.0618,-0.0118,9.7865,0.4597,-0.289,-0.0155
4785,749,819,33.692,25.702,-0.0067,-0.0476,9.6775,0.5561,-0.399,0.0131
4790,742,827,33.59,25.742,0.0046,-0.008,9.8574,0.3016,0.0111,0.1703
4795,740,823,33.578,25.738,0.0392,-0.0298,9.8272,0.1261,-0.2189,0.7864
4800,743,812,33.692,25.762,0.0187,-0.1408,9.7946,0.398,-1.0637,-0.0429
4805,750,821,33.696,25.729,0.0031,0.0029,9.9223,0.0353,0.598,0.6736
4810,767,822,33.639,25.763,0.0114,0.0527,9.8793,-0.4512,0.3811,0.4089
4815,755,812,33.595,25.661,0.0119,0.0058,9.7524,-0.4198,-0.8604,-0.1427
4820,750,814,33.593,25.701,0.0428,0.0351,9.8229,-0.4956,0.306,0.456
4825,761,816,33.677,25.711,0.0879,-0.05,9.7025,0.5117,-0.1694,-0.5508
4830,773,815,33.697,25.633,-0.0395,-0.0075,9.8756,-0.3788,0.2479,0.2862
4835,774,815,33.601,25.753,-0.0272,0.0684,9.8495,0.3141,-0.1494,0.0885
4840,790,811,33.671,25.71,-0.0209,0.0059,9.7884,0.5791,0.3338,-0.2956
4845,788,813,33.676,25.732,-0.0353,0.0224,9.7871,-0.4244,-0.0243,-0.3019
4850,802,810,33.687,25.712,0.0793,-0.0097,9.7587,0.0164,-0.3622,-0.4022
4855,825,812,33.597,25.703,0.0189,0.0237,9.8338,-0.3108,-0.4863,0.0833
4860,828,809,33.723,25.674,0.0035,0.0034,9.911,0.1162,0.3587,-0.0553
4865,833,801,33.667,25.689,-0.0273,-0.0494,9.8578,-0.095,-0.7443,-0.205
4870,847,807,33.674,25.651,0.0584,0.0263,9.8784,-0.4714,-1.1252,-0.3475
4875,854,803,33.677,25.701,0.014,-0.0961,9.858,0.0614,0.4332,-0.039
4880,871,800,33.61,25.673,-0.0864,-0.0126,9.8136,-0.6686,0.1772,0.0839
4885,883,796,33.739,25.718,0.0639,-0.0793,9.7321,0.4269,0.3453,-0.3485
4890,898,795,33.595,25.685,-0.0292,-0.0141,9.8161,-0.2112,0.0767,0.2516
4895,918,790,33.716,25.711,-0.019,0.0198,9.6938,0.6485,-1.2351,0.1525
4900,916,798,33.604,25.753,0.0486,0.0983,9.7855,-0.3109,-0.1622,-0.6171
4905,939,791,33.675,25.744,-0.0638,0.0285,9.7625,-0.5038,-0.4768,-0.4254
4910,945,786,33.674,25.62,0.0204,-0.0273,9.7753,-0.3404,-0.7755,0.3327
4915,966,783,33.652,25.699,-0.0688,0.0157,9.8001,-0.007,-0.6583,-0.2732
4920,979,781,33.634,25.658,0.0202,-0.0367,9.7119,-0.736,0.4357,0.1512
4925,988,787,33.654,25.729,-0.0098,-0.0656,9.8287,0.5048,-1.0847,0.1799
4930,998,779,33.689,25.687,-0.0604,-0.003,9.8112,-0.5091,-0.749,0.6246
4935,1025,778,33.661,25.683,-0.0019,-0.0028,9.8309,0.2584,-0.9049,-0.422
4940,1026,775,33.692,25.744,-0.0734,0.0412,9.79,-0.1513,-0.3186,-0.9123
4945,1044,774,33.618,25.737,0.0783,0.0175,9.7988,0.6763,0.0149,-0.4647
4950,1051,763,33.656,25.704,0.0121,-0.0151,9.8329,-0.9542,0.1012,-0.1249
4955,1067,767,33.656,25.693,0.0264,-0.0295,9.7772,0.2258,-0.1086,0.1129
4960,1077,761,33.642,25.669,-0.0224,0.0239,9.7981,0.2593,1.0552,-0.8534
4965,1099,766,33.674,25.685,-0.0041,-0.0289,9.7972,-0.1506,-0.2594,0.2782
4970,1102,759,33.714,25.702,0.0494,0.0208,9.7937,0.3944,-0.1698,0.0757
4975,1116,756,33.605,25.702,-0.0434,-0.0232,9.8167,0.8706,-0.1166,-0.1673
4980,1124,754,33.661,25.703,0.0727,-0.0063,9.7155,0.1004,-0.8167,-0.0229
4985,1135,751,33.671,25.718,-0.0188,-0.0156,9.8289,0.0079,0.18,-0.8478
4990,1143,754,33.696,25.735,0.0051,0.015,9.8802,0.6476,-0.5547,-0.6051
4995,1145,748,33.58,25.789,0.0596,-0.0374,9.7595,0.1447,0.5694,0.2359
5000,1152,750,33.635,25.765,0.0277,-0.0232,9.8544,-0.7437,-0.2201,0.6031
5005,1171,745,33.546,25.686,0.0969,-0.0316,9.8465,0.0895,0.3191,-0.1251
5010,1161,743,33.677,25.706,-0.0434,-0.0079,9.7325,0.0612,0.7633,-0.1756
5015,1165,742,33.679,25.696,-0.0568,-0.0875,9.7464,-0.112,0.2926,0.1491
5020,1181,740,33.679,25.711,-0.0196,0.0142,9.7695,-0.2776,0.4874,0.277
5025,1188,747,33.627,25.747,0.0075,-0.0077,9.8089,0.2363,0.1273,1.0277
5030,1173,740,33.538,25.736,0.0682,0.0679,9.7861,-0.3502,-0.1376,-0.1542
5035,1176,738,33.634,25.701,-0.0208,-0.0282,9.826,-0.4529,-0.4662,0.2123
5040,1194,737,33.792,25.616,0.0374,-0.0198,9.8282,0.055,-0.1756,0.5776
5045,1193,743,33.584,25.757,0.0435,-0.0027,9.8687,-0.2952,-0.0152,0.0628
5050,1186,740,33.648,25.655,-0.0578,-0.0618,9.8696,-0.934,-0.3838,0.1837
5055,1184,739,33.676,25.75,0.0037,-0.0281,9.7952,0.0393,0.3419,-0.1418
5060,1195,738,33.671,25.742,-0.0471,-0.0405,9.8642,-0.3764,0.2641,0.3949
5065,1186,739,33.672,25.717,0.0007,-0.1063,9.7571,0.7953,-0.7515,0.2443
5070,1189,738,33.664,25.742,0.0289,0.0289,9.8501,-0.3425,0.3195,0.2582
5075,1193,740,33.564,25.745,0.0717,0.1083,9.8023,0.7839,-0.5205,0.4207
5080,1180,747,33.75,25.675,-0.0001,-0.0247,9.8691,-0.3859,0.2206,-0.4332
5085,1170,744,33.557,25.733,-0.0281,0.0219,9.7784,-0.3355,0.466,-0.6207
5090,1172,746,33.647,25.769,0.0197,0.0713,9.8564,1.1644,0.9764,-0.0449
5095,1176,746,33.688,25.801,-0.0804,0.0246,9.8337,0.9559,-0.4357,0.8514
5100,1174,748,33.69,25.648,-0.0915,-0.0406,9.8349,-0.0463,-0.5392,-0.0997
5105,1178,753,33.587,25.679,-0.0897,-0.069,9.9185,0.151,0.0827,-0.0908
5110,1164,753,33.561,25.722,-0.0498,0.0189,9.839,-0.3909,0.7059,-0.2992
5115,1165,753,33.651,25.762,0.0486,0.0468,9.8077,-0.2032,0.1241,-0.4153
5120,1154,759,33.661,25.688,-0.065,0.0183,9.7395,0.1494,0.4583,-0.152
5125,1155,759,33.619,25.71,0.0745,-0.1017,9.8625,-0.1779,0.304,-0.332
5130,1150,761,33.568,25.644,-0.0371,0.0001,9.7695,-1.1093,-0.0759,-0.0236
5135,1147,765,33.644,25.81,-0.0636,-0.0729,9.8303,1.2719,0.2697,0.0369
5140,1141,766,33.725,25.64,-0.0172,0.0605,9.7375,-0.8354,0.009,0.4717
5145,1128,780,33.662,25.717,0.0362,0.0636,9.8517,-0.1327,-0.1783,0.0348
5150,1124,779,33.687,25.604,0.0059,0.0326,9.8583,0.2689,0.0175,0.6489
5155,1123,778,33.752,25.695,-0.0685,-0.0017,9.8208,0.3154,-0.0255,0.0617
5160,1131,782,33.703,25.736,0.0233,0.0093,9.9102,-0.1869,0.4493,-0.1667
5165,1130,780,33.621,25.674,-0.0222,0.0067,9.8161,-0.1771,0.8248,0.6883
5170,1122,786,33.614,25.72,-0.0478,-0.036,9.7886,0.6736,-0.3586,0.6958
5175,1116,797,33.607,25.669,0.0048,-0.0094,9.7857,0.0421,0.5715,-0.4388
5180,1116,792,33.661,25.698,0.0316,-0.065,9.7968,-1.2079,-0.0313,-0.1164
5185,1111,800,33.708,25.679,-0.0118,-0.0157,9.8438,-0.1077,0.1743,0.9538
5190,1111,802,33.605,25.714,0.0453,0.007,9.7964,0.6883,0.3278,0.0207
5195,1105,803,33.747,25.697,-0.0045,0.0426,9.8421,-0.6278,0.9802,-0.4951
5200,1108,809,33.651,25.677,-0.0493,0.0395,9.825,-0.7295,0.3489,-0.2795
5205,1108,803,33.764,25.727,-0.0443,0.0106,9.8327,-0.3381,-0.2052,-0.626
5210,1096,812,33.64,25.697,-0.1076,-0.0028,9.8145,-0.0199,0.5017,0.626
5215,1100,816,33.642,25.667,0.0301,-0.0176,9.8332,-0.9193,0.0598,-0.5315
5220,1100,821,33.621,25.74,0.0114,-0.0353,9.7828,0.6087,-0.3129,-0.7679
5225,1091,826,33.656,25.752,-0.0588,0.0517,9.8201,-0.3544,0.0273,0.5967
5230,1091,824,33.687,25.717,0.0447,0.0457,9.7379,0.7081,-0.1862,0.3819
5235,1085,828,33.685,25.627,-0.0094,-0.0185,9.7962,0.0046,-0.1019,0.164
5240,1077,832,33.709,25.779,0.0297,0.0171,9.7729,-0.4852,0.3329,-0.2196
5245,1083,829,33.646,25.657,-0.0681,0.0679,9.8887,1.1014,0.4932,-0.3347
5250,1080,829,33.664,25.646,0.0573,-0.0182,9.7654,-0.1016,0.0683,-0.766
5255,1072,833,33.565,25.678,0.0515,-0.0915,9.7502,0.9564,0.1693,0.0271
5260,1076,832,33.626,25.743,-0.0399,0.0149,9.757,0.6713,0.46,-0.1317
5265,1068,835,33.746,25.745,0.0748,0.0623,9.7702,-0.4418,0.1672,-0.0446
5270,1065,840,33.678,25.747,-0.013,0.032,9.7917,-1.3495,0.466,-0.1277
5275,1065,844,33.686,25.632,-0.0086,-0.0086,9.8322,0.712,1.0668,0.193
5280,1053,842,33.713,25.747,0.0992,-0.0437,9.7004,0.1511,0.6521,1.0556
5285,1054,844,33.692,25.608,-0.0715,0.0658,9.8863,-0.4396,-0.6084,-0.0128
5290,1050,843,33.654,25.628,-0.0126,-0.0467,9.8672,-0.2564,-0.5532,0.955
5295,1052,844,33.707,25.774,-0.0148,0.0303,9.7377,-0.2818,-0.6344,-1.0447
5300,1033,847,33.658,25.734,-0.0369,0.0606,9.798,-0.1239,0.803,0.3468
5305,1030,841,33.558,25.689,0.0037,0.043,9.8848,0.6032,0.5314,0.1453
5310,1025,847,33.685,25.681,-0.0406,-0.0299,9.8438,0.8315,-0.0779,-0.0399
5315,1031,847,33.666,25.668,0.04,-0.0368,9.7777,-0.5848,-0.1069,0.4655
5320,1016,845,33.626,25.696,0.0048,-0.1282,9.8914,-0.1982,-0.3659,0.2937
5325,1007,845,33.628,25.675,0.009,0.001,9.8177,0.3675,-0.1648,0.2988
5330,1003,842,33.65,25.773,0.0585,-0.0166,9.8597,-0.1968,0.0135,-0.6377
5335,992,845,33.643,25.693,0.0165,0.0201,9.7437,0.2735,0.6649,-0.4937
5340,983,846,33.618,25.729,-0.02,0.0057,9.8159,0.0672,-0.7789,-0.652
5345,966,844,33.631,25.743,0.0252,-0.0838,9.7403,0.9968,-0.3145,-0.0908
5350,959,845,33.735,25.766,0.0539,-0.044,9.8207,0.888,0.1769,-0.0999
5355,953,839,33.656,25.736,-0.0011,-0.0829,9.7218,1.509,-1.0496,-0.0737
5360,946,845,33.711,25.71,-0.0414,0.0476,9.721,-1.2601,0.5331,0.1696
5365,943,842,33.691,25.593,0.0726,-0.0468,9.8572,-0.2329,-0.2575,-0.3042
5370,932,833,33.695,25.69,-0.0772,-0.0362,9.8232,-0.058,-0.4911,0.3669
5375,920,837,33.646,25.747,-0.0076,0.0024,9.8231,0.2162,-0.2815,-0.8992
5380,907,837,33.652,25.723,-0.0028,0.0228,9.8018,-0.2514,-0.0559,-0.1297
5385,903,841,33.685,25.644,0.0008,0.061,9.8339,0.2059,0.0077,0.2613
5390,885,835,33.656,25.651,-0.0212,0.0806,9.8277,-0.0452,-0.0366,-0.1557
5395,889,840,33.635,25.708,0.0142,-0.0562,9.8015,-0.1075,-0.0281,0.0177
5400,863,829,33.662,25.731,-0.0307,0.0703,9.7604,-0.3263,-0.2312,0.9094
5405,855,827,33.675,25.663,-0.0072,0.0232,9.7985,0.2895,0.5499,-0.6207
5410,850,832,33.625,25.622,-0.0519,0.0387,9.828,0.4503,0.4746,-0.4976
5415,844,831,33.631,25.729,-0.0074,-0.0067,9.8595,0.2811,0.222,-0.1033
5420,836,833,33.646,25.682,0.1338,-0.0035,9.8275,0.0312,0.0243,-0.4828
5425,825,826,33.605,25.702,-0.045,-0.0134,9.8109,0.2499,0.4087,-0.3346
5430,805,826,33.745,25.685,0.0964,-0.046,9.8101,-0.5482,0.0403,-0.6086
5435,804,833,33.682,25.745,0.0166,-0.0363,9.7982,0.0951,0.2098,0.0396
5440,805,825,33.724,25.75,-0.0975,0.064,9.7654,0.4272,-0.4822,0.603
5445,791,823,33.577,25.691,-0.0178,0.0051,9.8129,0.1414,-0.4025,0.1106
5450,788,829,33.672,25.719,0.0156,0.0049,9.7218,0.2482,-0.2832,0.3335
5455,770,822,33.616,25.783,0.0036,-0.0065,9.8223,-0.6257,0.9,-1.1375
5460,776,829,33.685,25.756,-0.0126,0.037,9.7506,-0.1641,-0.1306,-1.0209
5465,767,821,33.644,25.682,0.0545,-0.0142,9.8595,-0.5128,0.4625,-0.2834
5470,763,829,33.681,25.775,-0.0105,0.0371,9.8756,0.9617,-0.3754,-1.1127
5475,751,822,33.708,25.729,0.04,-0.054,9.8232,-0.4576,0.1437,1.0099
5480,755,820,33.659,25.747,0.0339,-0.045,9.7888,0.0059,-0.5325,-0.1324
5485,748,819,33.707,25.7,0.0106,0.141,9.8235,-0.2807,0.1287,0.7804
5490,747,821,33.712,25.787,0.0079,-0.0888,9.8485,-0.2364,-0.1299,-0.3038
5495,746,821,33.651,25.754,-0.0769,0.0466,9.7527,-0.9651,0.4729,0.6863
5500,742,820,33.658,25.786,0.0746,0.0113,9.8227,0.0197,-0.1483,-0.3246
5505,744,814,33.66,25.727,0.0006,0.0768,9.8894,-0.307,-0.4484,0.1506
5510,753,815,33.685,25.671,0.1049,0.019,9.7684,0.4606,0.3349,-0.4583
5515,747,818,33.55,25.713,0.0875,0.018,9.8608,0.2304,-0.4469,-0.4189
5520,769,817,33.707,25.619,-0.0524,0.0617,9.8087,0.3778,0.1084,-0.171
5525,761,815,33.655,25.765,-0.0255,-0.0436,9.7998,0.7933,0.045,0.5186
5530,762,809,33.623,25.695,-0.0036,-0.0699,9.8643,-0.541,-0.0313,0.3689
5535,786,818,33.719,25.705,0.0675,-0.0332,9.7752,0.4249,-0.1767,-0.5717
5540,778,809,33.637,25.64,-0.0944,0.0841,9.8884,-0.4581,0.0088,0.4518
5545,786,817,33.684,25.748,0.0082,0.0162,9.8923,0.7346,-0.5528,-0.1797
5550,794,813,33.647,25.688,0.0016,0.0748,9.7199,-0.3435,0.5793,-0.2599
5555,801,808,33.61,25.638,0.0021,0.0304,9.8562,0.1372,-0.0892,0.1969
5560,821,805,33.658,25.709,0.0676,-0.0165,9.8195,0.3113,0.6787,0.1161
5565,823,809,33.571,25.659,0.0015,0.0175,9.7456,0.2126,0.2899,-1.0955
5570,833,804,33.712,25.743,0.0473,-0.0552,9.7868,-0.5435,1.218,0.5086
5575,839,808,33.636,25.712,0.0161,0.0125,9.8326,0.9139,-0.1301,-0.9285
5580,859,800,33.676,25.691,0.0178,-0.0049,9.7567,0.4168,-0.4711,0.1931
5585,865,805,33.693,25.638,-0.1054,0.0228,9.8624,-0.7165,-0.3734,0.7532
5590,882,802,33.666,25.75,0.0248,0.0154,9.8568,-0.188,0.5271,0.5703
5595,891,799,33.64,25.651,-0.0834,0.0704,9.7625,-0.2639,0.8587,-0.2334
5600,913,797,33.658,25.79,-0.0195,0.0273,9.8657,-0.4147,0.1541,0.1059
5605,928,791,33.716,25.727,0.0601,0.0533,9.8346,-0.0373,-0.4041,-0.7116
5610,938,790,33.727,25.68,0.0208,0.0043,9.7562,0.4594,0.517,0.2351
5615,943,785,33.725,25.741,-0.0467,-0.033,9.8254,-0.1337,0.1649,0.1116
5620,957,782,33.617,25.731,0.0376,-0.0094,9.7852,1.1366,0.1747,1.0348
5625,971,786,33.589,25.694,0.0651,0.011,9.8083,0.2628,-0.2182,-0.0913
5630,995,780,33.662,25.779,0.0385,0.0103,9.8416,-0.4253,-0.2014,-0.306
5635,999,779,33.669,25.67,0.0623,0.0146,9.7781,-0.4253,0.7221,0.5295
5640,1017,780,33.584,25.726,-0.017,0.0539,9.8309,0.1018,0.251,0.1477
5645,1027,769,33.729,25.682,-0.0058,-0.0423,9.7196,0.1459,0.5827,-0.551
5650,1037,770,33.723,25.651,-0.0544,0.0902,9.7305,-0.4852,0.2999,0.2048
5655,1059,767,33.629,25.663,0.0082,0.068,9.8287,-0.3549,0.1392,-0.0682
5660,1063,766,33.682,25.658,-0.0583,0.0746,9.827,0.3645,-0.4435,-0.6167
5665,1077,770,33.631,25.6,0.0381,0.0079,9.8414,-0.3169,0.2138,-0.4045
5670,1082,756,33.718,25.656,0.0279,-0.0039,9.8303,-0.4987,0.7736,0.0145
5675,1101,767,33.724,25.731,0.043,-0.0151,9.7633,0.1826,0.2615,0.8316
5680,1116,752,33.659,25.655,-0.0154,-0.0002,9.8758,0.5152,1.24,-0.0616
5685,1121,755,33.647,25.722,-0.0278,-0.0226,9.7064,-0.1766,-0.3344,0.7806
5690,1135,754,33.701,25.722,0.0331,0.0048,9.7895,-0.0101,0.1541,-0.2153
5695,1130,751,33.655,25.721,0.0032,-0.0989,9.7112,0.3231,-0.2109,-0.3769
5700,1140,747,33.717,25.76,0.0298,-0.0122,9.7394,-0.2043,-1.7707,0.1921
5705,1152,751,33.568,25.692,0.0703,0.065,9.8396,-0.5981,0.8213,0.3282
5710,1171,749,33.721,25.794,0.0267,-0.0633,9.7885,0.24,-0.7711,-0.4544
5715,1168,747,33.579,25.681,0.0511,0.0437,9.8354,-0.3733,0.4443,-0.7589
5720,1164,748,33.723,25.649,0.0002,0.0185,9.8336,0.5735,-0.1738,0.1194
5725,1177,738,33.645,25.757,0.0341,-0.0183,9.8256,0.23,-0.6159,0.1168
5730,1175,738,33.652,25.703,0.0336,0.0635,9.8003,0.2635,-0.2927,-0.6591
5735,1182,740,33.64,25.653,0.18,0.0653,9.8266,0.4366,0.6407,-0.3077
5740,1182,736,33.615,25.761,0.0062,0.0046,9.8264,0.0425,-0.1474,-0.1442
5745,1176,740,33.692,25.72,-0.0306,0.0055,9.7872,0.7635,1.3218,0.3298
5750,1185,736,33.731,25.783,0.0003,0.0426,9.802,0.5715,-0.4288,-1.1042
5755,1190,743,33.722,25.712,0.022,0.0195,9.9236,0.3488,-0.3523,-0.3338
5760,1186,743,33.669,25.636,-0.0039,-0.0495,9.8376,-0.1539,0.2203,0.6553
5765,1187,741,33.713,25.715,-0.0046,-0.0014,9.8586,-0.0241,-0.6541,0.5235
5770,1189,739,33.565,25.731,0.0169,-0.0145,9.7403,0.444,-0.4427,-0.4946
5775,1196,742,33.634,25.736,-0.0283,0.0146,9.7469,0.153,0.6515,0.2433
5780,1184,740,33.635,25.721,0.03,0.115,9.9048,0.8248,0.6115,-0.2456
5785,1186,739,33.632,25.716,-0.0295,0.0855,9.7902,-0.2494,-0.1238,0.0042
5790,1181,744,33.547,25.751,-0.0156,0.0456,9.8165,-0.762,0.3845,0.2043
5795,1178,746,33.607,25.656,0.0105,0.0027,9.8,0.1576,0.4233,0.6665
5800,1172,754,33.64,25.672,-0.054,0.0428,9.7877,-0.4174,0.0883,0.3919
5805,1167,750,33.622,25.649,-0.0008,-0.0793,9.8724,0.7658,-0.1285,0.4808
5810,1168,745,33.639,25.75,0.0799,-0.0028,9.848,-0.4425,-0.3588,0.2942
5815,1174,758,33.685,25.715,0.0722,-0.0029,9.8546,-0.9758,0.2202,-0.5071
5820,1165,755,33.684,25.797,-0.0922,-0.0606,9.7991,0.7766,-0.3372,0.3171
5825,1152,758,33.78,25.612,0.0631,0.056,9.8436,-0.6272,-0.3724,0.5728
5830,1154,760,33.647,25.713,-0.0369,-0.0066,9.8094,-0.1277,0.7454,-0.1077
5835,1156,766,33.739,25.714,-0.0191,-0.0149,9.867,0.0326,-0.0876,-0.5987
5840,1149,766,33.701,25.746,0.0397,-0.0235,9.8677,-1.093,0.6629,0.1364
5845,1141,764,33.734,25.7,-0.0293,0.0349,9.8023,-0.8375,0.9074,0.4114
5850,1147,772,33.672,25.699,0.0018,0.0109,9.8137,0.8782,-0.8483,-0.3097
5855,1138,777,33.664,25.715,0.1116,-0.039,9.7568,-0.147,-0.0344,0.1192
5860,1133,778,33.695,25.74,-0.0417,-0.1121,9.8065,0.0306,0.0573,0.2553
5865,1130,782,33.662,25.729,-0.0303,-0.0061,9.7391,-0.9686,-1.1469,-0.24
5870,1126,790,33.705,25.7,0.0245,0.0217,9.8031,-0.6715,-0.0679,-0.0436
5875,1127,788,33.696,25.734,0.0126,0.0405,9.7837,1.2786,0.1897,-0.5372
5880,1112,790,33.645,25.687,0.0971,-0.0386,9.7764,0.7307,-0.1875,-0.2915
5885,1124,797,33.612,25.681,0.0447,0.1033,9.7791,-0.1736,0.2488,-0.4513
5890,1116,796,33.711,25.717,0.0173,-0.1438,9.9127,0.1345,0.2581,-0.4676
5895,1107,805,33.616,25.732,0.0405,0.0061,9.7925,-1.0027,-0.0435,0.2784
5900,1099,801,33.703,25.709,-0.0553,-0.0147,9.8046,0.3489,0.1727,0.5365
5905,1111,813,33.666,25.754,-0.0026,-0.0566,9.8005,0.2295,-0.3339,0.0585
5910,1113,806,33.707,25.719,0.0158,0.0094,9.8385,-0.2094,-0.0691,0.5556
5915,1100,814,33.626,25.803,0.0644,-0.0533,9.7574,0.3453,-0.6005,0.4488
5920,1099,818,33.645,25.707,-0.0044,-0.0557,9.7372,0.4248,-0.6387,0.0157
5925,1089,825,33.778,25.759,-0.0138,-0.0365,9.8083,-0.5229,0.5773,-0.4133
5930,1099,821,33.648,25.748,-0.0446,-0.06,9.7781,0.1172,1.7921,0.4575
5935,1086,824,33.626,25.718,0.0162,-0.0051,9.8744,0.2471,-0.2848,0.6064
5940,1079,827,33.685,25.763,0.0033,-0.006,9.7548,-0.7377,0.2553,-0.2638
5945,1089,833,33.661,25.68,0.0046,-0.055,9.8815,-0.4497,-0.2187,-0.547
5950,1079,838,33.736,25.66,0.0012,-0.0514,9.8247,-0.0597,0.4948,-0.7432
5955,1083,833,33.702,25.637,0.0899,-0.0388,9.8343,-0.3311,0.7909,0.6014
5960,1085,839,33.67,25.647,-0.0717,0.0371,9.8893,-0.8745,0.5496,0.1317
5965,1076,838,33.694,25.699,-0.0357,-0.0501,9.7454,-0.3267,0.9145,-0.6372
5970,1071,841,33.656,25.727,-0.0157,0.034,9.7215,-0.1879,0.1966,0.3481
5975,1066,840,33.656,25.724,-0.1186,-0.1009,9.7983,-0.4775,-0.3741,-0.1493
5980,1068,844,33.767,25.74,0.1015,0.0318,9.7921,-0.3785,0.5589,-0.2399
5985,1058,844,33.614,25.668,0.0641,-0.072,9.864,0.0684,0.6805,0.315
5990,1052,846,33.69,25.766,0.0233,-0.064,9.9397,0.0865,0.8869,-0.1921
5995,1055,846,33.684,25.649,-0.0109,0.0562,9.7732,-0.2429,-0.6032,-0.4705
6000,1045,844,33.64,25.704,0.0452,-0.0421,9.8183,0.1843,0.3246,0.3634
6005,1041,843,33.633,25.776,0.0525,0.0097,9.8096,0.4668,-0.454,0.1751
6010,1030,844,33.696,25.681,0.0434,-0.0323,9.8079,-0.3824,-0.7314,-0.5003
6015,1033,841,33.684,25.682,-0.0999,0.0146,9.7625,-1.6374,-0.5005,0.0256
6020,1034,838,33.603,25.767,0.0358,0.0102,9.8161,0.7691,0.0257,0.1327
6025,1020,846,33.703,25.705,0.062,0.0273,9.7333,-1.4028,0.1371,0.8237
6030,1007,843,33.692,25.824,0.0152,-0.0543,9.7544,0.3773,0.2679,-0.6917
6035,1012,845,33.688,25.582,0.0086,0.1323,9.8093,0.7045,0.138,-0.9549
6040,986,847,33.683,25.689,-0.0644,0.073,9.771,-0.338,0.6616,-0.5437
6045,996,839,33.656,25.691,0.0097,-0.0274,9.8293,0.5942,0.2405,-0.1156
6050,977,844,33.724,25.773,-0.0215,0.039,9.7978,-0.2904,0.0459,0.1976
6055,970,841,33.655,25.784,-0.0257,0.0254,9.8052,-0.0952,-0.3908,0.2449
6060,962,843,33.64,25.701,-0.0353,-0.001,9.8713,-0.5493,-0.3534,-0.1235
6065,948,840,33.693,25.702,0.0301,0.0173,9.8407,0.2253,0.5307,-0.883
6070,937,843,33.673,25.731,0.0776,-0.0689,9.7349,0.027,0.9699,-0.5875
6075,934,839,33.673,25.763,0.0178,-0.0649,9.8193,-0.0635,-0.2344,-0.0068
6080,929,843,33.672,25.712,0.0821,-0.0781,9.8047,0.5726,0.1292,0.1146
6085,920,836,33.605,25.743,-0.0249,-0.0315,9.7231,-0.4517,0.0517,-0.3234
6090,895,839,33.719,25.614,-0.0581,-0.0361,9.7631,0.8254,-0.6606,-0.8758
6095,897,834,33.749,25.713,0.0018,0.0174,9.8351,0.9142,0.3512,-0.1798
6100,878,831,33.698,25.664,-0.0153,-0.0039,9.8004,-0.982,0.1618,-0.9116
6105,875,834,33.692,25.731,0.058,-0.0413,9.757,-1.0965,-0.3818,0.9072
6110,862,834,33.692,25.704,0.0119,0.0064,9.7848,1.585,0.217,0.0595
6115,855,829,33.57,25.703,0.0706,-0.0897,9.8301,0.4947,-0.7587,-0.422
6120,851,831,33.713,25.664,-0.033,0.0189,9.7955,-0.5452,0.0204,0.528
6125,833,835,33.649,25.859,-0.0334,-0.0226,9.8981,-0.0244,0.3981,-0.163
6130,816,831,33.669,25.76,-0.1488,0.0359,9.7583,-1.0382,-0.0387,-0.8462
6135,813,829,33.624,25.692,-0.0072,-0.0234,9.7851,0.5008,0.4917,0.538
6140,805,824,33.621,25.706,0.001,-0.0478,9.8215,0.6348,0.0358,1.0773
6145,800,826,33.759,25.691,0.068,-0.0039,9.763,-0.741,-0.6473,-0.132
6150,792,828,33.694,25.794,0.0372,-0.009,9.7907,-0.2323,0.5465,-0.2443
6155,779,829,33.677,25.715,-0.0471,-0.0151,9.8025,0.3884,0.8102,-0.3799
6160,773,826,33.656,25.75,-0.0125,-0.0612,9.763,0.3957,-1.1766,-0.339
6165,772,826,33.673,25.674,0.0421,0.0189,9.8263,-0.7081,0.0627,-0.315
6170,768,820,33.646,25.653,-0.102,0.0165,9.8505,-0.1229,0.3366,0.129
6175,758,823,33.658,25.752,0.1289,-0.0169,9.7444,-0.5574,0.1531,0.1711
6180,751,823,33.759,25.774,-0.0013,-0.0056,9.8376,-0.6516,-0.6754,0.327
6185,746,823,33.569,25.735,-0.0623,0.0142,9.7575,-0.4864,0.0474,0.367
6190,747,819,33.723,25.721,-0.0308,0.0408,9.7859,0.2085,-0.8867,-0.4249
6195,748,821,33.662,25.641,-0.029,0.0279,9.8433,-0.0272,-0.7598,0.3671
6200,743,824,33.664,25.764,-0.0026,0.0531,9.7796,0.3089,0.5073,0.1961
6205,753,820,33.715,25.731,-0.047,-0.0045,9.8021,0.764,-0.2435,0.0129
6210,756,825,33.682,25.741,0.0435,-0.0147,9.845,0.034,-0.0419,-0.3853
6215,754,820,33.647,25.802,-0.0116,-0.0375,9.7835,-0.3498,0.3995,-0.6891
6220,754,816,33.65,25.74,-0.0666,-0.0012,9.7836,-0.0827,0.2711,0.6166
6225,752,819,33.709,25.683,-0.0068,0.0054,9.8794,-0.4918,0.6454,-0.2516
6230,764,815,33.67,25.648,0.0343,0.0339,9.804,0.5784,0.0502,-0.1414
6235,770,816,33.696,25.683,0.1402,-0.0014,9.7159,0.3447,-0.3665,0.2416
6240,777,817,33.715,25.839,0.0007,-0.0882,9.7504,-0.7481,0.4599,-0.3413
6245,779,815,33.652,25.683,0.0871,-0.0581,9.7499,-0.1765,0.6747,-0.1858
6250,784,814,33.592,25.588,-0.043,-0.0207,9.763,0.0192,0.6133,-0.2113
6255,792,818,33.695,25.719,-0.0219,0.0502,9.8134,-0.1857,-0.1319,0.1494
6260,801,804,33.659,25.705,-0.0223,-0.0705,9.7484,-0.3524,0.6558,-0.5219
6265,812,809,33.696,25.734,-0.0484,0.0805,9.7981,0.3279,0.5434,-0.1484
6270,819,803,33.701,25.75,-0.0185,-0.0241,9.8631,-0.2745,0.4257,-0.7698
6275,828,804,33.577,25.73,0.0057,0.0204,9.7132,0.162,0.7448,-0.4663
6280,843,806,33.67,25.648,-0.14,0.1004,9.8346,0.663,-0.7137,0.3642
6285,843,803,33.694,25.695,-0.0054,-0.0778,9.7605,0.1841,-0.5659,-0.8979
6290,861,802,33.616,25.747,0.0167,0.1022,9.7888,0.2357,0.6643,1.2093
6295,872,801,33.619,25.694,-0.017,-0.035,9.8227,-0.8806,-0.7758,0.0211
6300,893,796,33.613,25.768,-0.0076,0.0539,9.8853,0.5455,0.0294,0.6741
6305,905,794,33.731,25.675,0.0458,0.0616,9.8796,-0.1134,-0.3941,0.2799
6310,918,792,33.734,25.733,-0.0403,-0.0093,9.8248,-0.3865,0.5566,0.1391
6315,922,790,33.686,25.714,-0.0339,0.0284,9.8632,0.2712,-0.1073,0.2803
6320,943,790,33.629,25.764,0.044,-0.0372,9.7437,-0.2145,0.4135,-0.3904
6325,963,787,33.709,25.689,0.0019,-0.0318,9.8485,-0.426,0.0214,0.1088
6330,980,784,33.646,25.635,0.0105,-0.0057,9.8659,0.0434,0.098,0.0773
6335,985,782,33.638,25.63,0.0132,0.0103,9.777,-0.5326,0.6474,0.8845
6340,1003,777,33.671,25.787,-0.0072,-0.0209,9.8038,-0.7795,0.31,0.0905
6345,1014,776,33.763,25.639,-0.0351,-0.0202,9.8211,1.0661,0.435,0.2938
6350,1025,777,33.606,25.793,-0.0217,0.0557,9.9337,-0.5595,0.6623,-0.703
6355,1036,772,33.562,25.765,-0.0097,-0.0014,9.7746,-0.1385,-0.9301,-0.5176
6360,1052,771,33.591,25.689,-0.0456,0.0074,9.8134,-0.3059,0.3282,0.5312
6365,1068,770,33.62,25.803,0.1168,-0.0058,9.7865,-0.0397,0.225,0.0039
6370,1081,763,33.624,25.753,-0.019,-0.0302,9.7991,0.4395,-1.3441,0.1724
6375,1087,762,33.681,25.708,0.148,0.0119,9.7752,-0.2984,-0.344,0.831
6380,1098,755,33.659,25.842,-0.0471,0.0268,9.758,-0.3101,-0.1312,0.0717
6385,1101,755,33.673,25.648,-0.0403,0.0339,9.7351,-0.1293,0.4848,-0.5515
6390,1128,756,33.635,25.784,0.0248,-0.047,9.8816,0.2806,-0.5755,-0.1072
6395,1134,756,33.649,25.691,-0.0204,-0.0098,9.891,-0.248,-0.368,-0.1079
6400,1135,756,33.707,25.746,-0.0108,0.0111,9.8489,-0.3535,0.2156,-0.625
6405,1152,747,33.711,25.738,-0.0861,0.0005,9.8128,-0.5244,0.46,-0.2153
6410,1154,740,33.686,25.715,0.0843,0.0388,9.8137,-0.7838,-0.0275,-0.0806
6415,1149,749,33.711,25.817,0.0169,0.0572,9.9087,0.7202,0.452,0.4607
6420,1157,749,33.683,25.747,0.0061,0.0885,9.8255,0.4318,0.0888,0.1649
6425,1168,744,33.69,25.695,-0.0173,-0.0391,9.7769,0.0911,-0.346,0.0938
6430,1173,742,33.75,25.614,0.0643,0.0762,9.7956,-0.4433,-0.4408,0.4717
6435,1183,741,33.641,25.663,0.0107,0.0315,9.7829,0.1316,-0.0641,-0.0472
6440,1185,738,33.692,25.75,0.0683,0.0106,9.8647,0.0608,-0.1243,-0.2847
6445,1188,738,33.664,25.641,0.0764,-0.0338,9.7625,0.2579,0.184,-0.247
6450,1187,731,33.668,25.729,0.0492,-0.0857,9.7295,-0.2644,0.2176,0.1594
6455,1186,734,33.637,25.793,-0.0116,0.005,9.8904,-0.6645,-0.0725,0.2374
6460,1188,740,33.77,25.741,-0.002,-0.0533,9.8415,-0.0642,0.2979,-0.4123
6465,1193,742,33.778,25.716,0.024,0.0149,9.7579,0.7899,0.2379,-0.2094
6470,1188,737,33.706,25.682,0.0105,-0.0286,9.8222,0.5805,0.6252,-0.2944
6475,1186,735,33.632,25.839,-0.0347,0.0957,9.8069,0.0441,1.1706,0.0613
6480,1176,743,33.703,25.803,0.0216,0.0124,9.7144,-0.191,0.6644,-0.3504
6485,1190,742,33.676,25.695,0.0307,-0.0396,9.838,0.0893,0.3295,0.2877
6490,1182,741,33.65,25.821,0.012,-0.017,9.8269,-0.1562,-0.3387,-0.5876
6495,1185,739,33.689,25.743,0.0686,0.0395,9.7739,0.4227,0.3579,-0.9847
6500,1181,748,33.75,25.661,0.0142,0.0273,9.8651,0.4229,-0.5852,-0.0196
6505,1175,747,33.623,25.736,0.0462,0.0624,9.8294,0.57,0.2822,-0.1385
6510,1177,742,33.728,25.756,-0.0367,-0.0916,9.7516,-0.574,0.2006,-0.07
6515,1169,748,33.755,25.718,0.0605,0.037,9.8198,0.0709,0.0532,-0.7937
6520,1161,755,33.668,25.691,-0.0094,-0.0276,9.8258,-0.4102,-0.4373,0.0706
6525,1165,754,33.608,25.598,0.0319,0.0626,9.8347,-0.3197,0.233,0.1886
6530,1152,761,33.678,25.69,-0.0692,-0.0077,9.8538,-0.02,-1.598,0.1124
6535,1151,761,33.745,25.694,-0.1028,0.0144,9.784,-0.0294,0.0154,0.2656
6540,1147,760,33.672,25.712,-0.0062,-0.0064,9.795,-0.2113,-0.2333,0.0096
6545,1151,769,33.705,25.696,0.0145,-0.0433,9.8214,0.146,-0.146,0.9528
6550,1145,768,33.725,25.758,0.0125,0.141,9.7858,0.4614,0.61,0.057
6555,1136,772,33.642,25.747,-0.0466,0.0162,9.7953,-0.3637,-0.0228,-0.7495
6560,1139,773,33.64,25.651,0.1263,-0.0815,9.771,0.2772,0.2462,0.0257
6565,1128,781,33.68,25.737,0.0163,-0.0197,9.8307,-0.1902,-0.5149,0.0454
6570,1128,786,33.639,25.644,0.0365,0.0141,9.8414,-0.8396,-0.4706,0.2039
6575,1126,784,33.665,25.69,0.0701,0.0589,9.8453,0.2834,0.1357,-0.7952
6580,1125,791,33.688,25.714,0.0519,-0.0238,9.7892,0.1187,0.0058,-0.3117
6585,1117,793,33.595,25.67,0.0838,0.024,9.8292,0.1656,0.2597,-0.1431
6590,1120,795,33.642,25.717,-0.0163,-0.0816,9.8561,-0.8248,0.6146,0.0163
6595,1109,802,33.607,25.747,-0.0427,-0.0348,9.8577,-0.2081,0.749,-0.2248
6600,1107,796,33.67,25.611,0.0082,0.019,9.8585,-0.1036,-0.931,-0.4273
6605,1111,800,33.62,25.745,0.0209,0.0205,9.8634,0.1043,-0.1998,0.2999
6610,1100,805,33.605,25.697,0.0171,0.0401,9.8428,-0.454,-0.5484,-0.0997
6615,1091,807,33.673,25.717,-0.0166,0.034,9.8,-0.3586,0.2641,0.5642
6620,1100,812,33.719,25.669,0.0004,-0.0473,9.7702,0.2111,0.0784,0.3422
6625,1087,814,33.681,25.734,-0.0195,-0.049,9.7857,0.2542,0.0282,-0.0727
6630,1096,818,33.711,25.704,0.0981,0.0127,9.8253,-0.1723,-0.581,0.1913
6635,1088,822,33.657,25.714,0.0006,0.0085,9.8043,0.0397,0.1953,0.3697
6640,1087,821,33.507,25.735,-0.0034,0.0501,9.7353,-0.0706,-0.7623,-0.717
6645,1082,829,33.727,25.692,0.0341,0.0126,9.7434,-0.0942,-0.7608,-0.0207
6650,1081,829,33.709,25.725,0.0108,-0.0466,9.8473,-0.8091,-1.0096,0.301
6655,1084,830,33.675,25.739,-0.0274,-0.0963,9.8388,0.1598,0.4449,0.245
6660,1082,837,33.716,25.757,0.0661,0.0319,9.8129,-0.0332,-0.3455,0.2968
6665,1074,835,33.668,25.684,-0.0304,0.0522,9.7905,-0.1509,0.3277,-0.0896
6670,1069,838,33.703,25.708,0.0026,-0.0497,9.7902,0.3267,0.7519,0.229
6675,1074,837,33.694,25.753,0.0421,0.0001,9.8012,-0.6997,0.1089,-0.6188
6680,1075,838,33.684,25.709,-0.0219,0.0225,9.7225,0.7736,0.1555,0.0161
6685,1063,843,33.628,25.64,-0.0123,-0.0077,9.8076,-0.1191,0.2121,0.1136
6690,1058,840,33.708,25.631,0.0895,0.1225,9.8397,-0.0808,-0.0837,-0.0132
6695,1061,842,33.605,25.663,0.0421,0.0246,9.749,-0.1496,-1.653,-0.1452
6700,1052,841,33.639,25.786,0.0311,0.0464,9.8703,-0.1764,-0.4166,-0.4559
6705,1046,846,33.562,25.698,-0.0034,0.0819,9.8247,-0.6002,-0.6444,-0.1772
6710,1033,840,33.7,25.737,-0.0397,0.0198,9.8459,0.6457,-0.5349,0.8348
6715,1038,841,33.761,25.751,-0.0076,-0.0182,9.8251,0.926,0.8,0.3793
6720,1035,840,33.752,25.658,-0.0385,-0.0027,9.8728,0.361,0.0453,-0.6019
6725,1026,850,33.676,25.693,-0.0293,-0.0693,9.7692,0.3127,0.3237,-1.2827
6730,1014,848,33.663,25.697,-0.0335,-0.0669,9.8702,-0.0772,0.0126,-0.4508
6735,1016,851,33.663,25.743,-0.0629,-0.0966,9.7343,0.2949,0.1892,-0.5471
6740,1004,842,33.718,25.766,0.0235,-0.0075,9.7571,-0.2655,-0.0311,0.3008
6745,999,847,33.68,25.765,0.0648,0.1288,9.8404,0.1409,-0.5169,-0.7532
6750,983,844,33.632,25.714,-0.0509,0.0809,9.8466,-0.5058,0.024,0.0761
6755,986,839,33.659,25.716,-0.0426,0.0144,9.7966,0.4827,-0.9336,-0.8096
6760,972,841,33.743,25.781,0.0073,-0.0239,9.8155,-0.4245,0.7423,0.9168
6765,962,842,33.708,25.651,0.0155,0.0375,9.8037,-0.2958,1.2345,-0.2031
6770,959,843,33.721,25.783,-0.0471,-0.0707,9.9236,0.7927,-0.4369,-0.1031
6775,944,848,33.661,25.698,-0.0511,-0.0153,9.7902,-0.6383,-0.5315,0.7773
6780,930,840,33.703,25.865,0.035,-0.0321,9.7659,0.1786,0.8256,0.3857
6785,924,834,33.78,25.839,0.029,0.0524,9.7811,-0.5708,-0.6608,0.1129
6790,913,834,33.687,25.693,-0.0638,-0.0427,9.8576,-0.5304,0.0958,0.294
6795,912,839,33.636,25.68,0.0631,0.0505,9.7563,-0.239,-0.006,-0.4259
6800,890,835,33.597,25.727,0.0614,-0.032,9.8133,-0.1041,-0.1388,-0.0853
6805,892,832,33.626,25.687,-0.0105,0.0575,9.8367,0.8679,-0.1286,0.6349
6810,875,839,33.6,25.631,-0.0329,-0.0048,9.807,-0.0949,-0.5254,-0.3216
6815,864,834,33.716,25.701,0.0382,0.0569,9.8312,0.3306,-0.5531,-0.368
6820,859,830,33.653,25.802,-0.0581,0.0348,9.8191,-0.2898,-0.3806,-0.4364
6825,839,835,33.678,25.617,0.0807,0.0472,9.7896,-0.7229,-0.2179,-0.6181
6830,837,828,33.743,25.719,0.1106,0.0022,9.7691,-0.5632,0.1761,0.5209
6835,822,833,33.591,25.769,-0.0236,-0.0657,9.8319,0.4841,0.4664,0.1893
6840,817,827,33.67,25.746,-0.059,0.0378,9.8508,0.5768,0.3719,0.8713
6845,809,824,33.667,25.668,-0.0309,-0.062,9.8238,-0.3827,0.1609,0.4512
6850,805,835,33.684,25.757,-0.0217,0.0885,9.8481,-0.4135,0.6313,0.2707
6855,785,828,33.672,25.665,-0.0367,0.0338,9.8557,0.2764,-0.2719,-1.1361
6860,788,829,33.747,25.743,-0.012,0.0322,9.8338,0.3442,0.3429,-0.7103
6865,769,823,33.692,25.752,-0.011,-0.0313,9.7917,-0.2296,-0.1137,-0.7233
6870,771,823,33.755,25.681,0.0557,-0.0123,9.8215,0.0766,0.2883,0.6295
6875,763,826,33.62,25.74,-0.064,-0.0404,9.7658,0.4276,0.5503,0.2912
6880,763,823,33.66,25.756,0.0187,-0.0378,9.781,0.2696,-0.1168,-0.0265
6885,752,822,33.761,25.746,0.0311,-0.0233,9.7541,-0.9171,-0.1463,0.3331
6890,760,824,33.602,25.685,-0.0297,0.0042,9.8611,0.1629,0.0589,-0.2444
6895,753,823,33.577,25.739,-0.0165,0.0639,9.7911,-0.3124,-0.7,0.0243
6900,751,818,33.639,25.732,0.0672,-0.0617,9.7907,-0.5811,0.5307,0.2039
6905,750,816,33.745,25.707,0.0497,-0.0086,9.7645,0.4854,0.6078,-0.5213
6910,742,820,33.728,25.758,-0.0459,-0.0235,9.8453,-0.717,0.5671,-0.1928
6915,746,814,33.672,25.706,0.0869,-0.1306,9.7701,-0.0587,-0.1722,0.2096
6920,750,815,33.772,25.795,-0.1412,0.0006,9.7992,0.612,-0.5945,0.1131
6925,741,817,33.708,25.641,0.0895,0.0997,9.8228,0.4292,-0.1201,-1.1386
6930,752,815,33.71,25.823,0.0436,-0.0955,9.8254,0.3396,-0.6013,-0.6535
6935,762,818,33.68,25.726,-0.0552,-0.0585,9.7647,0.3832,-0.7929,-0.7866
6940,758,815,33.73,25.735,-0.0144,0.0553,9.8985,-0.8654,0.1923,0.4733
6945,770,825,33.618,25.711,-0.0836,-0.0133,9.8046,1.218,0.2157,0.1477
6950,774,810,33.598,25.693,0.0457,-0.0142,9.7961,0.8979,-0.1192,-0.4091
6955,791,813,33.643,25.68,0.0689,0.045,9.8667,0.7277,0.4718,0.1218
6960,797,808,33.617,25.712,0.0164,0.03,9.8064,0.1585,-0.2079,-0.3206
6965,800,814,33.67,25.789,0.0474,0.0504,9.7645,0.5253,-0.428,0.5809
6970,807,810,33.689,25.63,-0.0495,0.0277,9.8402,0.8627,-0.177,-0.5229
6975,824,809,33.762,25.827,-0.0116,0.0294,9.8204,-0.1425,0.8003,0.3911
6980,824,807,33.712,25.749,0.0686,-0.0981,9.8044,0.1697,0.8091,-0.3634
6985,842,803,33.682,25.716,-0.0346,-0.0222,9.8073,0.4848,-0.4942,0.231
6990,852,803,33.75,25.774,0.0373,-0.0408,9.8152,-1.0822,-0.0988,-0.7101
6995,862,796,33.739,25.712,-0.0536,0.0126,9.8341,0.3373,-0.1239,0.9618
7000,872,804,33.729,25.681,-0.0193,0.0288,9.7581,-0.5132,-0.2058,0.3455
7005,882,791,33.655,25.677,0.034,0.012,9.8178,-0.4493,-0.1894,-0.7959
7010,910,803,33.686,25.72,-0.0537,-0.0913,9.8238,0.558,-0.0986,-0.3584
7015,918,788,33.644,25.706,-0.0457,-0.0359,9.8151,-0.519,0.6129,0.2061
7020,929,791,33.691,25.71,-0.0238,-0.0102,9.7973,-0.0828,0.689,0.7341
7025,943,785,33.628,25.646,0.0334,-0.0094,9.8511,0.4551,0.0805,-0.2877
7030,951,792,33.69,25.731,-0.0408,0.0486,9.808,0.0986,-0.0921,0.3929
7035,978,783,33.671,25.687,0.1031,-0.0487,9.897,0.2516,0.3054,0.5258
7040,979,782,33.685,25.652,0.034,-0.0373,9.7016,0.4472,0.5552,-0.1239
7045,999,778,33.659,25.728,-0.0564,-0.0892,9.8683,0.4297,0.3736,-0.3926
7050,1015,777,33.65,25.689,-0.0238,0.0118,9.8912,0.2546,0.1058,0.1277
7055,1028,778,33.642,25.775,-0.0153,-0.0035,9.829,0.0587,-0.5345,-0.5692
7060,1040,772,33.691,25.676,-0.0142,-0.0692,9.7966,-0.2848,-0.0008,0.0027
7065,1046,774,33.735,25.784,0.0221,-0.0586,9.8048,-0.3736,-1.2488,-0.4416
7070,1057,772,33.716,25.707,-0.0364,0.0256,9.8003,0.5195,-0.2813,-0.0073
7075,1073,764,33.571,25.696,0.0495,0.0124,9.7849,0.0808,-0.6342,0.5416
7080,1085,758,33.611,25.686,0.0926,-0.0036,9.8363,-0.1931,-0.15,0.646
7085,1100,760,33.769,25.676,0.0408,-0.0174,9.8202,-0.2082,-0.5297,0.051
7090,1109,755,33.675,25.755,-0.099,-0.0075,9.9547,-0.619,0.2516,-0.1795
7095,1108,758,33.672,25.733,-0.0871,-0.0031,9.8458,-0.0193,0.1781,-0.2054
7100,1123,756,33.728,25.704,0.0471,-0.0048,9.8748,-0.7962,0.8118,0.6061
7105,1136,756,33.7,25.715,-0.0747,-0.0372,9.8122,-0.0383,0.2911,-0.2139
7110,1151,749,33.724,25.824,-0.0266,0.0574,9.8186,-0.0797,-1.0867,0.637
7115,1157,752,33.569,25.69,0.0765,-0.042,9.7795,0.6638,-0.2057,-0.1569
7120,1158,750,33.668,25.726,0.0759,-0.0393,9.8066,1.0199,-0.5936,-0.4499
7125,1164,739,33.668,25.637,-0.0083,-0.0751,9.783,-1.1009,0.1259,-0.076
7130,1171,747,33.683,25.691,-0.0129,-0.0183,9.977,0.8938,0.4466,-0.3261
7135,1169,741,33.683,25.655,0.003,0.0483,9.7876,-0.0741,0.0653,0.5126
7140,1173,742,33.702,25.586,-0.0055,-0.0238,9.7852,-0.5266,1.4006,-0.7252
7145,1187,737,33.689,25.619,-0.0887,0.0189,9.8792,0.2756,-0.0029,-0.4744
7150,1181,740,33.662,25.715,-0.0038,-0.0617,9.8099,-0.3422,-0.0864,0.2889
7155,1184,739,33.723,25.765,-0.0383,-0.0162,9.8357,-0.4377,0.7235,-0.4917
7160,1190,744,33.699,25.682,-0.0163,-0.0016,9.7469,0.8886,-0.6225,-0.3004
7165,1190,736,33.625,25.739,-0.0514,-0.088,9.7808,0.4385,0.3567,-0.6588
7170,1181,737,33.678,25.664,0.0327,0.0291,9.7673,-0.5899,-0.2023,0.8118
7175,1191,742,33.735,25.636,0.0635,-0.0626,9.8581,-0.6094,0.2481,0.8523
7180,1193,740,33.656,25.729,-0.0397,0.002,9.7744,-0.2102,0.1617,0.5663
7185,1188,738,33.677,25.665,0.0473,0.0297,9.8657,0.3015,-0.1886,0.7036
7190,1193,742,33.661,25.618,0.0629,-0.0153,9.7798,-0.2424,-0.3786,-0.4319
7195,1185,742,33.743,25.684,0.0618,-0.0311,9.8539,1.1739,-0.3716,0.7863
7200,1186,748,33.788,25.72,-0.0324,0.0171,9.8287,-0.5429,0.1564,-0.4706
7205,1178,740,33.693,25.613,-0.0268,0.0535,9.7873,-0.6122,-0.4601,0.1236
7210,1180,744,33.671,25.676,0.0684,0.0212,9.8066,-0.4886,0.0003,-0.1099
7215,1187,738,33.698,25.643,-0.007,-0.0026,9.8426,0.2628,-0.0784,0.0073
7220,1175,751,33.796,25.658,0.0169,-0.0712,9.8421,0.8681,0.5909,0.1981
7225,1161,750,33.72,25.748,0.0353,0.0198,9.7864,-1.5199,0.2639,-0.1031
7230,1153,749,33.641,25.651,0.0548,0.0103,9.7993,0.2276,0.7188,0.5559
7235,1157,759,33.752,25.649,0.0406,-0.13,9.8815,-0.6211,-0.4073,-0.3514
7240,1152,758,33.703,25.683,0.1138,0.0977,9.6946,-0.6371,0.4869,-0.2961
7245,1154,759,33.58,25.796,-0.0095,0.0814,9.8154,-0.0324,-0.0462,1.138
7250,1145,760,33.7,25.687,-0.1131,-0.0398,9.8366,0.5656,-0.16,1.1419
7255,1147,766,33.703,25.646,-0.0232,-0.0268,9.7616,0.0543,0.4283,-0.1853
7260,1132,769,33.574,25.677,0.1039,0.0588,9.7927,0.7579,-0.4352,-0.6553
7265,1138,777,33.627,25.736,-0.0041,0.0009,9.8691,-0.1239,-0.8244,0.0832
7270,1134,779,33.627,25.667,0.0014,0.0128,9.7442,0.0436,-0.0627,-0.742
7275,1131,782,33.621,25.806,0.0263,0.0224,9.8375,-0.3548,0.3624,-0.2837
7280,1125,784,33.571,25.707,-0.0301,-0.041,9.8532,0.5555,-0.089,-0.1922
7285,1123,784,33.725,25.756,0.0391,-0.0013,9.7685,-0.1592,0.0921,-0.4658
7290,1124,787,33.632,25.754,0.0676,-0.0099,9.8787,-0.7241,-0.2812,0.1502
7295,1117,795,33.688,25.784,-0.0437,0.0721,9.7713,-0.0263,0.2947,0.0146
7300,1111,800,33.69,25.669,-0.0337,0.0026,9.7991,0.2317,0.4869,-0.1503
7305,1110,802,33.674,25.703,-0.0002,-0.0134,9.788,-0.3016,1.3235,-0.168
7310,1104,804,33.668,25.671,0.0466,0.0953,9.732,-0.1129,0.0288,0.273
7315,1103,810,33.694,25.677,-0.0213,0.0755,9.8573,-0.4361,-0.2778,0.299
7320,1103,811,33.617,25.683,0.0277,0.0316,9.769,0.3397,-0.1632,-0.0477
7325,1104,816,33.718,25.781,-0.0813,0.0295,9.8615,-0.1935,0.1191,-0.9081
7330,1105,810,33.73,25.611,-0.0297,0.0318,9.7707,-0.1396,-0.2207,0.702
7335,1090,819,33.707,25.717,-0.0946,-0.1124,9.8109,-0.0535,0.3153,-0.0449
7340,1090,822,33.739,25.809,0.0946,-0.0199,9.7853,-0.9475,-0.0473,0.2897
7345,1094,822,33.534,25.715,-0.014,0.0388,9.7889,-0.6104,0.3176,-0.3724
7350,1082,826,33.657,25.744,-0.0019,-0.074,9.7622,-0.0614,0.228,-0.4013
7355,1091,832,33.634,25.702,-0.032,-0.0454,9.8582,0.3715,0.1967,0.1502
7360,1090,833,33.693,25.792,0.0231,0.0592,9.8161,-0.0457,0.6204,0.3712
7365,1077,836,33.692,25.631,0.0217,-0.0354,9.7786,-0.7766,1.5896,1.706
7370,1083,836,33.601,25.71,0.0636,-0.0158,9.8233,0.1982,-0.3025,-0.0015
7375,1079,836,33.657,25.812,-0.0405,0.0357,9.7356,-0.0768,0.4592,0.5412
7380,1080,836,33.728,25.702,-0.0871,0.0293,9.8326,-0.0712,-0.1259,-0.3443
7385,1064,831,33.681,25.695,-0.0084,0.001,9.84,-0.3395,0.043,-0.6649
7390,1064,841,33.641,25.693,0.0337,0.1144,9.7942,0.4139,-1.0711,-0.21
7395,1058,845,33.654,25.726,0.0505,0.0006,9.8205,-0.3294,0.121,-0.2827
7400,1050,838,33.757,25.7,-0.0815,-0.024,9.7503,-0.4091,-0.4672,0.0248
7405,1056,845,33.715,25.75,0.0855,-0.0004,9.7069,-0.2353,0.1436,-0.0474
7410,1046,850,33.667,25.755,0.0672,-0.0047,9.8639,-0.3832,-0.2886,0.6772
7415,1049,842,33.639,25.777,-0.0413,-0.0674,9.8235,-0.3032,1.5696,0.0995
7420,1042,841,33.592,25.735,0.0923,0.0227,9.7138,-0.4673,0.3845,-0.5478
7425,1027,843,33.617,25.751,-0.0204,-0.0326,9.7732,-0.33,0.6694,-0.7661
7430,1023,846,33.708,25.711,0.0206,0.0302,9.789,-0.132,0.2598,0.1008
7435,1020,845,33.664,25.706,0.0013,0.045,9.7751,1.1098,-0.9267,-0.568
7440,1013,844,33.582,25.682,0.01,-0.0323,9.9048,0.5702,0.4141,0.2291
7445,995,842,33.651,25.678,-0.0065,0.034,9.7289,-0.0309,0.0365,-0.0421
7450,1002,848,33.717,25.64,-0.0159,0.0586,9.8514,0.1613,0.7011,0.0758
7455,984,850,33.654,25.739,-0.0774,-0.0954,9.8482,-0.1017,-0.1628,-0.4369
7460,989,840,33.682,25.693,-0.0659,0.0472,9.7968,-0.9455,0.4081,0.3068
7465,976,841,33.652,25.723,-0.0722,-0.0171,9.8512,0.3508,-0.7625,-0.4503
7470,961,836,33.661,25.727,-0.0068,-0.0153,9.8411,-0.5271,-0.6809,0.3756
7475,956,839,33.632,25.756,-0.0469,-0.0357,9.8659,-0.4053,-0.5505,0.8286
7480,956,839,33.702,25.722,0.0146,-0.0113,9.7862,0.3108,-0.1664,0.0238
7485,936,843,33.661,25.747,0.0631,0.0609,9.787,0.661,-0.3518,-0.2785
7490,931,839,33.682,25.764,0.1181,0.0805,9.8207,-0.4649,-0.5832,0.6132
7495,914,840,33.726,25.676,-0.0361,0.0456,9.7791,0.6086,0.1608,-0.2118
7500,915,837,33.718,25.688,-0.0114,-0.0004,9.9114,-0.3946,-0.1573,-0.7329
7505,890,842,33.776,25.823,-0.1568,-0.0001,9.8558,-0.1233,0.7325,0.7893
7510,880,835,33.632,25.702,-0.0446,0.0479,9.8111,-0.0826,-0.1627,1.1588
7515,875,835,33.695,25.673,-0.0316,-0.002,9.7819,0.9448,0.6289,0.5716
7520,868,834,33.624,25.695,0.0567,-0.0066,9.8669,-0.2842,0.5383,-0.3449
7525,852,837,33.708,25.778,-0.0726,-0.0414,9.883,0.1237,-0.0564,0.7151
7530,853,831,33.626,25.713,-0.0911,-0.0471,9.8355,-1.3825,-0.9079,0.2956
7535,838,834,33.681,25.726,-0.0557,0.0211,9.8335,0.8185,-0.2086,-0.2351
7540,831,829,33.685,25.717,0.031,-0.0372,9.7525,0.09,0.1067,-0.1483
7545,824,832,33.657,25.63,0.0038,-0.023,9.7854,-0.1281,0.3523,-0.1116
7550,821,827,33.638,25.692,-0.0126,0.0738,9.86,-0.4094,0.5488,-1.0148
7555,808,830,33.622,25.709,-0.0201,0.1024,9.829,-0.2495,-0.5052,-0.6437
7560,789,827,33.74,25.636,-0.0409,0.0121,9.7795,0.0912,-0.0592,1.3202
7565,782,826,33.746,25.764,0.0249,0.032,9.8215,-0.1297,0.5736,-0.053
7570,784,829,33.693,25.69,-0.0353,0.006,9.8228,-0.1918,-0.3592,0.2759
7575,770,826,33.765,25.675,0.0472,-0.0239,9.9768,0.397,-0.5492,0.8042
7580,768,823,33.64,25.829,0.0923,-0.0302,9.7622,-0.6718,-0.5651,-0.7292
7585,757,817,33.773,25.719,0.033,-0.0273,9.8222,-0.2955,-0.2845,-0.4688
7590,761,826,33.696,25.724,-0.083,0.0136,9.8689,0.6041,0.1376,-0.4689
7595,756,826,33.704,25.598,0.0241,0.0011,9.7675,0.2984,-0.1192,0.6879
7600,751,818,33.656,25.72,-0.0159,0.0634,9.8576,0.1961,-0.1259,-0.2222
7605,747,821,33.741,25.627,-0.0434,-0.0172,9.7158,1.1363,0.557,-0.1701
7610,743,823,33.737,25.72,0.0083,-0.0365,9.8674,0.273,-0.0667,-0.6504
7615,752,825,33.594,25.623,-0.0234,-0.0047,9.887,-0.5255,0.7425,-0.4194
7620,745,825,33.687,25.767,0.0996,0.0148,9.7771,-0.2201,-0.3711,-0.6643
7625,744,820,33.697,25.703,0.0554,-0.045,9.7677,0.5073,0.2525,0.4398
7630,744,819,33.61,25.695,0.0411,0.0393,9.7368,-0.3088,-0.4237,-0.6434
7635,756,816,33.695,25.634,-0.0576,0.0157,9.7305,-0.1928,0.0373,0.164
7640,767,815,33.768,25.762,-0.0026,-0.0223,9.7164,-0.0342,-1.119,-0.4324
7645,759,811,33.649,25.733,-0.0204,-0.0127,9.8092,0.196,-0.3538,-0.1669
7650,763,822,33.662,25.719,-0.0029,0.0467,9.8034,0.3104,-0.235,0.416
7655,772,816,33.724,25.655,0.0598,0.0311,9.7726,-0.1841,-0.1288,0.0695
7660,781,813,33.649,25.674,-0.0216,0.0052,9.7571,-0.3393,0.1243,-0.2036
7665,780,810,33.591,25.725,-0.0785,0.0155,9.795,0.1366,-0.1113,0.1937
7670,803,816,33.657,25.71,0.0397,-0.0089,9.7515,-0.6412,0.4081,-0.1773
7675,802,811,33.603,25.779,-0.0345,-0.062,9.7578,-0.5758,-0.1752,0.5891
7680,816,809,33.625,25.735,0.034,-0.0752,9.9336,0.4698,-0.1939,-0.2449
7685,829,812,33.72,25.763,-0.0488,0.0354,9.8087,0.1044,-0.3401,-0.3828
7690,841,802,33.569,25.672,0.0171,-0.0764,9.9109,0.4741,0.878,0.8963
7695,848,803,33.722,25.721,0.0377,0.0387,9.7443,-0.3002,-0.8336,0.0543
7700,856,801,33.694,25.709,0.0838,-0.0172,9.8188,0.9943,-0.1083,0.3623
7705,880,800,33.714,25.687,-0.0244,-0.0332,9.7383,-0.3669,-0.5569,0.7609
7710,876,796,33.689,25.739,0.0573,-0.0797,9.9085,0.9235,0.6818,0.956
7715,900,802,33.711,25.676,0.0271,-0.1061,9.7537,0.5603,-1.0498,0.0043
7720,913,790,33.642,25.639,0.0383,0.0333,9.8382,-0.242,-0.3778,-0.2993
7725,919,796,33.667,25.76,-0.0322,-0.0455,9.8478,0.2516,0.5036,0.6752
7730,933,786,33.766,25.702,-0.0428,0.0161,9.7338,0.6674,-0.2587,0.4066
7735,953,786,33.698,25.783,-0.0606,0.0689,9.8052,0.2742,-0.4995,0.7063
7740,963,786,33.689,25.767,0.0305,-0.0196,9.8492,0.6446,-0.8212,0.7394
7745,984,777,33.706,25.704,0.0392,-0.0735,9.7968,0.7202,-0.4832,-0.251
7750,978,786,33.61,25.736,-0.0678,0.0431,9.7162,0.7615,-0.0412,-0.5581
7755,1004,784,33.711,25.846,0.0103,-0.0722,9.7999,-0.1527,-0.7795,-0.1466
7760,1026,773,33.736,25.754,0.0225,0.0484,9.9048,-0.3318,-0.8467,0.2634
7765,1036,772,33.611,25.669,-0.0189,0.016,9.7921,0.2655,-0.1364,0.5571
7770,1051,773,33.779,25.733,-0.0373,0.0135,9.8077,-0.024,1.0148,0.1319
7775,1064,768,33.629,25.739,-0.0259,-0.0733,9.8582,0.1343,-0.5573,0.1516
7780,1072,770,33.71,25.749,-0.0982,-0.0847,9.8574,-0.2692,-0.2464,0.1995
7785,1089,759,33.738,25.727,0.0196,0.0959,9.7355,0.2507,0.2446,0.4088
7790,1101,762,33.696,25.732,0.0271,-0.0441,9.8965,-0.0005,-0.4724,0.0482
7795,1106,760,33.688,25.733,-0.0028,0.0275,9.7402,-0.4838,0.5741,-0.2438
7800,1113,763,33.759,25.737,-0.013,0.0426,9.7903,0.3491,0.1027,0.3234
7805,1115,755,33.666,25.778,-0.0797,0.0059,9.7584,-0.4527,-0.3439,0.53
7810,1134,754,33.636,25.76,-0.0019,0.0295,9.8101,0.4299,-0.1258,0.2079
7815,1144,750,33.717,25.647,-0.0131,-0.033,9.688,0.8616,0.0411,0.02
7820,1149,751,33.707,25.716,-0.0448,-0.0715,9.7314,-0.8275,-0.0074,0.1933
7825,1159,745,33.724,25.686,-0.0462,-0.0122,9.8605,0.0393,1.028,-0.5233
7830,1162,744,33.648,25.758,-0.0719,-0.0536,9.7907,0.4504,0.1368,0.0989
7835,1162,741,33.774,25.682,0.0176,-0.0036,9.885,-0.2021,0.0047,-0.0546
7840,1166,744,33.694,25.703,-0.0225,0.0218,9.7874,-0.3406,0.1527,-0.0485
7845,1176,744,33.699,25.72,0.0387,-0.0413,9.8478,-0.4094,0.1142,0.1308
7850,1176,741,33.667,25.704,0.0216,0.0036,9.7218,0.3298,0.6383,-0.6246
7855,1187,736,33.722,25.732,-0.067,0.0391,9.9201,0.3971,0.4774,-0.4209
7860,1188,740,33.762,25.787,0.0973,-0.098,9.6992,-0.3571,0.5532,-0.1943
7865,1183,733,33.711,25.758,0.0129,0.0196,9.8008,-0.5181,0.0375,-0.327
7870,1170,734,33.675,25.734,0.0721,-0.012,9.7622,0.8245,0.3042,0.0997
7875,1184,740,33.736,25.793,0.0178,-0.0135,9.7757,0.4076,-0.057,-0.0275
7880,1183,738,33.665,25.746,0.0338,-0.0877,9.8949,-1.0364,0.3904,-0.4953
7885,1191,746,33.632,25.667,-0.0743,0.0493,9.861,0.2945,0.9768,-0.7187
7890,1186,739,33.702,25.722,-0.0313,0.0358,9.8276,0.8005,0.0566,-0.3659
7895,1180,735,33.651,25.706,0.0395,-0.0148,9.8948,-1.0492,-0.3911,1.3133
7900,1181,742,33.73,25.715,-0.0525,0.0199,9.7658,0.3122,0.6634,0.0688
7905,1185,740,33.657,25.739,0.0034,0.0588,9.6789,1.0233,-0.3919,-0.6125
7910,1182,745,33.714,25.663,0.0175,0.0274,9.7802,0.8625,-0.3271,0.23
7915,1181,747,33.593,25.744,0.0265,0.0755,9.7624,-0.0255,0.9833,0.3654
7920,1177,743,33.728,25.778,0.06,0.0086,9.8276,0.3931,0.5287,0.0194
7925,1175,749,33.7,25.723,0.0142,0.0923,9.8661,-0.9338,1.1697,-1.1446
7930,1165,761,33.627,25.722,-0.0565,0.0186,9.7875,-0.4706,1.1107,-0.8433
7935,1167,752,33.645,25.773,0.0141,0.0219,9.7777,-0.3209,-0.6869,-0.8699
7940,1165,755,33.662,25.724,-0.0001,0.019,9.797,0.1809,0.3989,-0.3923
7945,1158,761,33.704,25.689,-0.0378,-0.101,9.8726,0.4963,0.0675,-0.0305
7950,1159,761,33.624,25.681,-0.0848,-0.0092,9.7914,-0.6873,0.4634,-0.4269
7955,1142,762,33.713,25.6,-0.0552,0.0512,9.7715,-0.0259,0.4292,0.6863
7960,1146,771,33.739,25.781,0.0471,0.039,9.7224,0.1151,0.0657,-0.8931
7965,1148,770,33.648,25.682,0.0137,-0.0412,9.8361,-0.2519,0.2607,-0.6516
7970,1138,769,33.711,25.722,-0.1289,-0.1033,9.8886,-0.5561,0.523,0.305
7975,1136,775,33.646,25.687,0.0423,-0.0313,9.8387,-0.2789,-0.6127,-0.3598
7980,1134,775,33.569,25.685,-0.028,0.0044,9.8344,0.4957,-0.5681,0.4453
7985,1126,784,33.645,25.797,0.0128,0.0234,9.933,-0.3647,-0.4351,0.1681
7990,1124,786,33.625,25.705,-0.0409,0.0495,9.7862,0.049,-0.3982,0.0446
7995,1117,785,33.643,25.688,-0.0103,0.0074,9.7824,0.4217,-0.3344,-0.0098
8000,1115,793,33.772,25.789,0.0539,0.0607,9.8706,1.0794,0.0903,1.2484
8005,1110,797,33.656,25.736,0.0364,0.0208,9.8536,0.9266,-0.5493,-0.3885
8010,1118,800,33.61,25.8,-0.0176,0.0399,9.8572,-0.1773,0.2695,-0.5386
8015,1118,805,33.627,25.699,0.0489,-0.0295,9.8346,-0.7307,-0.1389,0.0319
8020,1104,801,33.645,25.757,-0.0664,-0.0067,9.7828,1.1283,-0.2638,0.2179
8025,1104,808,33.7,25.649,0.0334,-0.0386,9.7594,0.2148,0.4081,-0.338
8029,1099,814,33.734,25.722,0.0475,-0.1252,9.742,-0.4532,-0.4721,-0.6961
8035,1092,811,33.727,25.783,0.0412,-0.0299,9.8678,-0.4941,-1.1164,-1.0696
8039,1095,818,33.678,25.764,-0.0149,0.0203,9.7929,0.1013,0.1981,0.3345
8045,1097,813,33.723,25.681,-0.0263,-0.0421,9.7703,0.3568,0.4295,0.337
8050,1097,816,33.754,25.797,0.0384,-0.0185,9.6841,0.2637,0.5005,-0.0658
8055,1080,821,33.706,25.689,0.0068,-0.0824,9.8634,0.0894,0.1784,-0.2418
8060,1090,827,33.706,25.689,-0.0179,0.0671,9.8323,-0.5969,0.1009,-0.5199
8064,1091,832,33.68,25.78,0.0392,0.0742,9.8803,-0.426,-0.3948,0.4802
8070,1087,835,33.591,25.727,0.0012,-0.0071,9.8446,0.8823,0.0883,0.3055
8074,1083,831,33.692,25.702,0.0001,0.0374,9.8477,-0.3595,-0.3148,0.0511
8080,1077,831,33.698,25.633,0.0665,0.0396,9.8699,-0.154,-0.6471,0.237
8085,1073,835,33.566,25.717,0.0831,0.0227,9.8831,0.4637,0.3925,-0.937
8090,1070,837,33.696,25.81,-0.1052,0.0474,9.7714,-0.0649,-0.2221,0.1375
8095,1070,845,33.584,25.753,-0.0303,-0.0775,9.7203,-0.2158,0.5581,-0.0282
8100,1059,843,33.654,25.785,0.0743,0.0073,9.7745,-0.2888,-0.3315,0.2317
8105,1054,842,33.691,25.783,-0.084,-0.1096,9.7887,-0.2013,-0.0756,-0.8431
8109,1055,843,33.732,25.758,-0.0586,0.0469,9.8674,-0.8793,0.3866,0.2948
8115,1054,848,33.707,25.724,0.0088,0.0267,9.8032,-0.2341,-0.574,-0.4891
8119,1041,850,33.678,25.714,-0.085,-0.0159,9.7763,-0.3832,0.0888,0.0272
8125,1035,847,33.676,25.757,-0.0257,0.0236,9.743,0.1649,-0.3654,-0.0678
8130,1033,845,33.667,25.637,-0.0187,0.0856,9.8259,0.5476,-0.7089,0.768
8135,1025,841,33.737,25.703,-0.0207,0.0565,9.8183,-0.0048,0.096,0.5887
8140,1014,846,33.712,25.787,-0.0737,-0.0977,9.8227,0.5856,-0.6643,0.3036
8145,1018,848,33.663,25.809,0.049,0.0821,9.8324,-0.168,-0.7397,0.5794
8150,1013,847,33.639,25.751,-0.0044,0.0302,9.8807,-0.2666,0.669,-0.1509
8154,994,848,33.66,25.77,0.0007,0.062,9.7485,0.2546,0.7744,0.5302
8160,991,844,33.678,25.791,0.0911,0.007,9.8146,0.3639,-0.5502,0.6963
8164,969,850,33.67,25.682,-0.1427,-0.1416,9.8437,0.8379,-0.3244,0.9327
8170,971,841,33.693,25.716,0.0362,0.074,9.7829,0.2656,0.1382,0.4713
8175,961,837,33.691,25.791,-0.0677,0.059,9.8209,0.4486,0.194,0.1174
8180,959,845,33.668,25.747,-0.0106,-0.0653,9.8844,1.0971,-0.2188,1.3498
8185,947,837,33.683,25.634,-0.0502,-0.0872,9.7986,0.1825,0.2713,-0.2632
8189,937,838,33.648,25.734,0.0018,0.0939,9.8687,0.7187,0.6682,1.2996
8195,946,844,33.713,25.728,0.1383,0.0439,9.8082,-0.6127,-1.2105,-0.1048
8200,925,840,33.656,25.645,0.0908,0.0143,9.6856,0.0709,-0.6927,0.4178
8205,914,837,33.757,25.795,-0.0271,0.0182,9.8519,-1.6451,0.9112,-0.0163
8210,897,834,33.777,25.708,-0.0302,0.0399,9.7833,1.1862,-0.5271,0.3853
8215,886,836,33.662,25.779,0.0497,0.0669,9.7436,0.48,-0.9405,0.1388
8220,883,838,33.635,25.759,-0.0346,0.0027,9.856,-0.6222,0.1867,0.1188
8225,875,831,33.676,25.7,-0.0419,0.0159,9.8386,-0.1244,0.0769,0.1333
8230,863,831,33.653,25.791,0.0527,-0.0301,9.8433,-0.8646,0.1934,0.1931
8235,856,828,33.643,25.727,0.0479,-0.0254,9.8363,-0.1535,-0.0554,-0.0699
8240,843,823,33.659,25.698,0.0246,-0.0528,9.811,-0.9271,-0.4297,-0.0937
8245,833,829,33.69,25.714,-0.003,-0.0254,9.8505,0.0359,-0.4976,-0.7753
8250,820,830,33.664,25.724,0.0639,0.0015,9.7862,-0.9199,-0.4205,-0.3822
8255,816,831,33.583,25.647,0.0292,-0.0845,9.8145,-0.0165,0.8539,-0.0525
8260,798,827,33.616,25.775,-0.0126,-0.0167,9.7977,0.0044,0.3248,0.2739
8265,801,827,33.761,25.773,0.0357,-0.0379,9.806,0.0868,0.2207,-0.0679
8270,782,827,33.702,25.772,-0.0222,0.0966,9.8723,-0.0914,0.0987,-0.7268
8275,789,828,33.714,25.776,0.0491,0.0108,9.7023,0.2627,-1.1315,-0.5344
8280,778,824,33.701,25.717,-0.0166,0.0324,9.7662,0.3026,0.3282,-1.1325
8285,770,819,33.761,25.719,0.0336,-0.0507,9.9388,0.2432,-0.2885,-0.6526
8290,757,822,33.795,25.807,-0.05,0.0851,9.8097,1.1311,0.1056,-0.022
8295,753,824,33.622,25.782,0.0393,0.0174,9.8831,-0.0683,-1.0314,0.5703
8300,752,825,33.656,25.681,-0.0895,0.0071,9.8458,0.612,-0.0556,-0.2239
8305,754,819,33.686,25.701,-0.0055,0.0752,9.8109,-0.4998,0.095,0.6165
8310,743,825,33.636,25.722,0.0095,0.0402,9.8806,0.4234,-0.3216,0.6785
8315,741,824,33.64,25.722,-0.065,-0.0224,9.8503,1.0029,-0.0338,0.0812
8320,748,821,33.61,25.718,0.0886,-0.0102,9.7612,0.4115,-0.0202,0.3394
8325,753,822,33.697,25.677,0.0196,-0.0348,9.786,0.002,0.2084,-0.3945
8330,748,817,33.685,25.719,-0.0036,-0.0927,9.7634,0.4522,-0.0729,0.5232
8335,753,817,33.631,25.717,-0.07,-0.0791,9.8793,-0.1816,-0.1029,-0.8787
8340,760,817,33.656,25.602,-0.0738,0.0621,9.785,-0.2114,0.4847,-0.1665
8345,758,819,33.672,25.68,-0.0548,-0.0377,9.7341,-0.7242,-0.4282,0.401
8350,767,820,33.689,25.691,0.048,-0.0021,9.8028,-0.3077,-0.7172,0.3275
8355,762,813,33.626,25.661,0.0253,0.001,9.9176,-0.4214,0.0183,0.3039
8360,773,815,33.689,25.862,0.0799,-0.0789,9.8125,0.5875,1.2992,-0.1483
8365,780,813,33.738,25.658,-0.0129,0.063,9.766,-1.0145,-0.19,0.2577
8370,782,815,33.661,25.807,-0.1281,0.0029,9.7879,0.1467,0.3128,0.1661
8375,798,813,33.712,25.695,0.0476,0.0104,9.7943,-0.5897,0.1424,-0.554
8380,796,813,33.688,25.757,0.0001,-0.0649,9.8109,0.276,-0.4361,0.0107
8385,813,816,33.711,25.703,-0.0241,-0.0212,9.8226,0.4924,-0.2682,0.0973
8390,831,812,33.686,25.779,0.0431,-0.0494,9.7544,-0.1375,0.0496,0.3464
8395,841,802,33.693,25.784,0.0177,0.0829,9.7634,0.394,0.3352,-0.3618
8400,841,809,33.786,25.669,-0.022,-0.044,9.849,-0.0595,0.0793,0.9672
8405,861,805,33.614,25.773,-0.0699,0.0394,9.8551,-0.0511,-0.8411,-0.3037
8410,868,803,33.716,25.666,0.0045,0.0379,9.7106,0.1814,-1.034,0.1804
8415,887,799,33.665,25.672,-0.0196,-0.0061,9.7926,-0.2263,-0.6724,-0.7583
8420,899,799,33.688,25.675,-0.1123,0.0029,9.8683,-0.6648,-0.1004,-0.3977
8425,907,789,33.743,25.679,-0.0004,0.0158,9.8412,0.3016,0.6869,0.6204
8430,925,792,33.7,25.728,-0.0348,-0.0047,9.7903,-0.263,-0.7832,0.6833
