timestamp_ms,ir_finger,ir_toe,temp_finger,temp_toe,ax,ay,az,gx,gy,gz
0,1043,661,34.665,33.483,0.0513,-0.0211,9.858,-1.1529,-0.6388,0.2923
5,1047,668,34.659,33.6,0.0309,-0.0657,9.7518,-0.5721,0.4972,0.2472
10,1060,671,34.675,33.479,-0.0348,-0.1464,9.8227,-0.4897,0.0486,0.1421
15,1075,676,34.701,33.483,0.0744,0.0235,9.7962,-0.1717,0.2488,-0.1141
20,1083,678,34.656,33.411,-0.0609,0.0437,9.8208,-0.6076,-0.2497,-0.2206
25,1094,685,34.65,33.423,-0.0209,-0.0259,9.8736,-0.4779,0.201,-1.0514
30,1107,698,34.76,33.495,-0.0055,0.0202,9.7845,0.9159,-0.6025,0.2269
35,1112,707,34.729,33.42,-0.0121,-0.0204,9.8813,0.0804,0.4018,-1.0504
40,1126,716,34.777,33.477,0.0041,0.0199,9.86,-0.4521,-0.0731,-0.5643
45,1127,723,34.723,33.491,0.0796,-0.0098,9.7487,-0.4822,0.0259,0.1893
50,1127,721,34.731,33.512,0.0452,-0.0336,9.8643,-0.1071,-0.0501,0.1547
55,1139,735,34.62,33.494,0.0659,0.0156,9.8463,0.316,0.9418,-0.0985
60,1145,742,34.561,33.562,0.0507,-0.0171,9.7434,-0.0792,-0.2359,0.0952
65,1161,748,34.716,33.483,-0.0076,0.0046,9.9875,0.4382,-0.0432,1.0509
70,1151,762,34.703,33.508,0.0759,-0.0135,9.8154,0.1667,0.4041,-0.6997
75,1164,765,34.716,33.442,0.0108,0.0365,9.8185,-0.2394,0.527,-0.0836
80,1164,777,34.714,33.531,0.0605,0.0508,9.8414,0.121,0.0075,0.2302
85,1173,781,34.709,33.505,-0.0185,0.0076,9.7434,0.2324,0.0458,0.3873
90,1176,790,34.63,33.552,0.0138,0.0021,9.7981,-0.0416,-0.1825,0.5089
95,1173,798,34.655,33.434,-0.0169,-0.0277,9.8468,0.6791,-0.5345,0.2595
100,1181,808,34.696,33.487,-0.0052,-0.0501,9.7701,0.3036,-0.1681,-0.5115
105,1181,814,34.616,33.58,0.028,0.0377,9.8387,-0.2438,0.2009,-0.4163
110,1192,827,34.587,33.607,-0.0993,-0.017,9.8245,0.2493,0.0099,-0.3903
115,1190,828,34.615,33.562,0.0069,-0.0424,9.756,-0.3238,0.3928,0.4473
120,1189,830,34.71,33.446,-0.0049,-0.1043,9.8006,-0.8172,0.106,-0.3935
125,1190,847,34.629,33.576,-0.033,-0.1312,9.8956,-0.0982,-0.7851,0.3175
130,1193,857,34.756,33.58,0.048,0.0015,9.8444,0.3125,-0.6317,-1.1573
135,1180,859,34.705,33.534,0.0713,0.0027,9.7618,0.7019,0.8863,0.5692
140,1194,865,34.69,33.408,-0.0855,-0.0513,9.8635,-0.3613,-0.1475,-0.1552
145,1190,868,34.828,33.514,-0.0122,0.0511,9.8137,0.6318,-0.9568,-1.2907
150,1183,878,34.621,33.453,-0.1374,-0.0417,9.8222,-0.1887,0.0418,0.1167
155,1194,881,34.678,33.544,0.0464,-0.055,9.8335,0.1332,0.4135,0.2386
160,1183,886,34.768,33.513,-0.0142,-0.0452,9.815,0.7466,0.4242,0.36
165,1180,890,34.699,33.477,0.0424,0.0709,9.848,-0.27,-1.7685,0.3866
170,1180,898,34.649,33.502,0.0142,-0.004,9.8345,0.1039,-0.8131,0.6707
175,1183,899,34.68,33.511,0.049,0.0016,9.7517,0.7985,-0.5262,-0.3884
180,1171,902,34.713,33.493,-0.0094,0.0038,9.8443,-0.4648,-0.2192,0.0669
185,1177,907,34.624,33.495,0.0446,0.0599,9.808,0.0018,-0.1475,-0.6679
190,1170,915,34.684,33.419,-0.0277,-0.0136,9.8244,-0.4265,-0.4761,0.1515
195,1169,914,34.695,33.482,0.0422,-0.1534,9.7912,1.0559,0.2001,-0.4338
200,1165,916,34.779,33.534,0.0018,0.0057,9.7982,-0.1041,0.5813,0.0272
205,1147,923,34.649,33.491,-0.0288,-0.0768,9.8297,0.3175,-0.7266,-0.3579
210,1164,922,34.703,33.611,0.0144,-0.0152,9.8154,-0.2762,0.0716,-0.3735
215,1153,928,34.741,33.479,0.002,0.1159,9.7374,-0.0441,-0.2607,0.1168
220,1145,927,34.759,33.463,-0.058,0.0748,9.7115,0.4217,0.7581,0.42
225,1143,929,34.688,33.458,0.0178,-0.0369,9.8108,-0.4074,0.4064,-0.4923
230,1146,927,34.606,33.469,-0.0151,-0.0199,9.9275,-0.1803,0.0615,-0.2894
235,1143,932,34.626,33.51,0.0524,0.0724,9.8158,-0.0361,-0.0202,-0.5037
240,1126,934,34.759,33.523,-0.057,-0.0331,9.8098,-0.1358,0.347,-0.0689
245,1135,933,34.626,33.509,0.026,0.0634,9.8294,0.0971,0.2641,-0.4268
250,1128,929,34.637,33.457,-0.0864,-0.0566,9.9168,-0.1028,0.7918,0.1151
255,1134,929,34.658,33.505,-0.0468,-0.0039,9.7942,0.7168,-0.4653,0.4347
260,1128,930,34.757,33.489,-0.0753,-0.004,9.8901,1.6257,-0.1387,0.3145
265,1128,936,34.603,33.49,-0.0078,-0.0967,9.7932,-0.5984,-0.5327,-0.5112
270,1124,931,34.632,33.548,0.003,-0.0074,9.8076,-0.5283,-0.1175,-0.8317
275,1125,925,34.669,33.433,-0.0025,-0.1635,9.7931,0.9815,-0.7376,-0.029
280,1112,923,34.584,33.56,-0.0037,0.0333,9.815,0.5016,0.3266,0.3521
285,1109,925,34.715,33.467,0.1196,0.0665,9.8078,0.2063,-1.4877,-0.1042
290,1107,925,34.676,33.54,0.0313,0.0104,9.7648,0.4053,-0.3351,0.3826
295,1106,923,34.719,33.55,0.0646,0.0428,9.7662,1.0212,0.6702,-0.4164
300,1110,918,34.729,33.517,0.0512,-0.0743,9.8543,0.1924,0.4656,-0.5353
305,1104,921,34.601,33.608,-0.0423,0.086,9.8295,0.2988,0.0302,0.1156
310,1101,924,34.576,33.462,0.0231,0.0031,9.7733,-0.5818,-0.3726,-0.1729
315,1102,915,34.693,33.513,-0.0216,-0.0586,9.9148,0.0075,-0.0022,0.2171
320,1103,915,34.683,33.498,0.0173,-0.0654,9.7902,0.37,0.4194,0.4238
325,1096,909,34.687,33.527,-0.0137,0.0018,9.7971,-0.0485,-0.4482,0.2656
330,1102,906,34.721,33.481,0.1064,0.0576,9.8073,-0.9658,0.5606,0.5799
335,1088,909,34.655,33.38,-0.0025,-0.0138,9.818,0.293,0.419,-0.6376
340,1089,906,34.655,33.43,-0.033,-0.0189,9.8329,-0.3883,-0.7673,0.1535
345,1089,898,34.639,33.514,0.0528,-0.0207,9.8044,-0.1829,0.0346,0.2373
350,1085,898,34.698,33.484,0.0303,-0.0509,9.7818,-0.3369,0.0177,0.1263
355,1094,895,34.77,33.549,-0.0627,-0.0562,9.8386,-0.4505,0.7276,-0.0758
360,1085,897,34.634,33.55,-0.0215,0.0296,9.7527,-0.1968,-0.1292,0.4536
365,1080,901,34.681,33.506,-0.0103,0.0426,9.8569,0.1013,-0.2359,0.1687
370,1074,894,34.652,33.508,-0.0318,-0.0659,9.7735,0.4677,-0.1912,-0.2317
375,1084,888,34.723,33.578,-0.0555,-0.0243,9.907,-0.0362,0.0981,-0.1193
380,1075,889,34.619,33.401,-0.0029,0.0054,9.7622,-0.7951,0.0589,-1.0887
385,1069,886,34.611,33.469,0.0189,0.0535,9.8131,0.4782,0.289,-0.3575
390,1057,884,34.66,33.464,-0.0099,-0.0089,9.7473,0.2441,0.7012,-1.1204
395,1059,887,34.679,33.489,-0.0333,-0.0446,9.8317,0.3734,0.1398,-0.2018
400,1056,879,34.709,33.43,-0.0832,-0.0518,9.8044,0.1452,-0.2869,-0.1967
405,1056,878,34.681,33.549,-0.0469,0.0259,9.8224,0.4301,-0.5779,-0.857
410,1054,872,34.698,33.518,-0.0425,0.052,9.816,-0.5179,0.4697,-0.8688
415,1038,869,34.741,33.511,-0.0224,0.0529,9.8248,-0.493,-0.126,0.1769
420,1044,870,34.6,33.542,0.0033,0.0223,9.7108,0.2485,0.4852,-0.377
425,1037,873,34.707,33.511,0.0912,-0.0202,9.8193,0.2504,0.0581,-0.6555
430,1031,871,34.674,33.556,-0.0157,0.061,9.7815,0.1399,0.0219,0.7313
435,1036,862,34.599,33.499,0.0116,0.0221,9.8845,0.0845,0.2187,0.2503
440,1025,867,34.69,33.516,0.0281,0.1023,9.8676,-0.2861,0.469,-0.7958
445,1018,865,34.736,33.514,-0.0017,-0.0086,9.834,0.3255,-0.353,0.0719
450,1013,866,34.645,33.586,-0.0843,0.0129,9.805,0.5505,0.1655,0.3766
455,1004,866,34.684,33.525,-0.0171,0.0191,9.7944,-1.0593,0.1371,0.1974
460,1001,859,34.703,33.497,0.046,0.0752,9.8461,-0.2083,-0.7227,-0.1305
465,993,854,34.587,33.481,-0.059,-0.0421,9.8399,-0.6162,-0.4735,0.259
470,987,858,34.695,33.465,0.0242,-0.023,9.7713,-0.2346,-0.5978,-0.7343
475,986,861,34.746,33.444,0.0235,-0.0068,9.8406,-0.2078,0.4914,-0.3125
480,971,859,34.686,33.513,0.011,-0.0719,9.7758,-0.458,0.4984,-0.3135
485,966,854,34.761,33.499,0.0048,0.0755,9.816,-0.2021,0.4183,0.1143
490,966,853,34.712,33.517,0.0209,-0.0021,9.828,0.1533,0.2036,0.9197
495,952,849,34.731,33.56,0.0825,0.071,9.7932,0.1755,-0.1059,0.2925
500,958,847,34.673,33.544,0.061,0.0044,9.7853,-0.2137,0.4835,-0.1155
505,936,844,34.671,33.639,0.0151,-0.0117,9.8277,0.2275,-0.3984,-0.3725
510,938,845,34.723,33.505,-0.0962,-0.0323,9.8079,0.5289,-0.4785,0.0161
515,923,845,34.591,33.544,-0.0084,0.0139,9.6609,-0.052,0.0042,1.3971
520,911,835,34.626,33.474,0.0299,0.0229,9.7734,0.0191,-0.0755,0.4136
525,902,834,34.613,33.564,0.0527,0.0544,9.8629,-0.3468,0.2948,0.2336
530,893,835,34.652,33.579,0.0434,-0.007,9.8379,-0.6407,0.1449,0.6616
535,874,831,34.705,33.526,-0.0199,0.0618,9.8343,-0.162,-0.9539,0.2371
540,874,826,34.712,33.534,-0.0386,0.0123,9.8612,0.3227,-0.3612,0.7146
545,875,822,34.597,33.616,0.0174,-0.001,9.7027,-0.0244,0.2465,-0.7279
550,863,816,34.657,33.556,-0.0418,0.0462,9.8751,-0.0678,-0.1432,-0.6838
555,848,815,34.656,33.528,-0.0687,-0.1571,9.8307,0.0693,-0.1688,-0.7884
560,846,819,34.675,33.556,0.0439,-0.0126,9.8056,-0.3629,0.2666,-0.521
565,839,809,34.699,33.488,0.044,-0.0274,9.835,0.5612,0.0313,0.067
570,830,809,34.665,33.466,0.0889,0.006,9.8669,0.2183,-1.0521,-0.7224
575,818,804,34.713,33.512,0.0413,-0.052,9.8225,-0.043,-0.5788,-0.6024
580,802,796,34.671,33.478,0.0838,-0.0101,9.7641,0.5592,-0.2691,0.0251
585,808,793,34.746,33.413,0.0642,0.0697,9.7966,-1.3724,-0.1577,0.7607
590,806,788,34.715,33.465,0.1046,0.0366,9.7712,-0.2472,0.0952,0.2363
595,791,785,34.696,33.501,0.048,0.0109,9.8321,0.2014,0.3486,-0.4314
600,787,777,34.652,33.527,-0.0965,0.0412,9.7863,0.0058,-0.7272,-1.0105
605,791,775,34.586,33.574,0.0888,0.0732,9.8744,0.2069,0.4802,-0.1364
610,778,770,34.68,33.509,-0.0238,-0.0156,9.8096,-1.0819,-0.3376,-0.6469
615,780,765,34.718,33.535,-0.03,-0.0125,9.8583,-0.2531,0.0446,0.2812
620,767,755,34.733,33.491,-0.026,0.0661,9.8245,0.2526,0.7445,-0.0899
625,769,750,34.671,33.525,0.061,0.0035,9.7927,0.1073,-0.5844,-0.1924
630,756,748,34.7,33.457,0.0469,-0.0149,9.7764,-0.2303,0.0346,-0.6954
635,759,742,34.712,33.505,-0.0287,0.0555,9.8323,-0.1422,-0.28,0.3643
640,746,733,34.668,33.549,-0.0561,0.0353,9.7451,0.3854,0.1533,0.5621
645,752,724,34.701,33.544,-0.0151,-0.0367,9.7823,0.651,0.1246,-0.5542
650,746,722,34.673,33.478,-0.0467,0.0202,9.8111,-0.5655,0.4592,0.2341
655,750,709,34.577,33.479,0.028,0.0668,9.9005,-0.1941,0.6919,0.1477
660,750,708,34.624,33.497,-0.073,-0.0614,9.8124,0.1448,0.4222,-0.8323
665,746,703,34.738,33.497,-0.1184,-0.0739,9.7653,-0.6652,0.0512,0.705
670,754,694,34.646,33.529,0.1285,0.0662,9.8256,0.5008,-0.6913,1.0603
675,751,687,34.714,33.443,-0.0357,0.012,9.7575,0.0979,-0.0508,0.485
680,757,681,34.738,33.514,-0.0397,0.0241,9.8043,-0.0684,0.3833,-0.074
685,757,682,34.688,33.614,-0.0122,-0.0508,9.8439,0.1128,-1.372,0.6215
690,772,678,34.673,33.502,0.0321,-0.0502,9.7441,-0.122,-0.0557,0.1334
695,766,667,34.658,33.472,0.0381,-0.043,9.8431,0.2661,-0.5327,-0.8278
700,769,665,34.625,33.462,-0.073,-0.0625,9.8448,0.5488,-0.3359,-0.2692
705,780,657,34.661,33.576,-0.0459,0.024,9.8392,0.5125,-0.4141,0.2438
710,772,650,34.758,33.456,-0.0473,0.0282,9.7421,1.0679,0.3193,0.3824
715,774,657,34.793,33.602,-0.0128,0.0511,9.8034,0.0031,-0.2214,0.8062
720,792,644,34.753,33.445,0.0281,-0.042,9.762,-0.0615,0.06,-1.4689
725,791,648,34.621,33.467,0.0188,0.0505,9.7996,0.705,-0.3457,-0.0791
730,800,643,34.612,33.492,-0.0016,0.0261,9.7763,-0.3873,0.8455,0.2408
735,806,639,34.675,33.484,0.0869,0.024,9.8526,0.1264,-0.3076,-0.1573
740,825,634,34.714,33.41,0.0527,-0.034,9.7975,-0.2428,-0.0371,-0.5241
745,833,636,34.663,33.482,-0.0369,0.0097,9.7811,-1.0443,-1.0155,-0.3659
750,841,629,34.724,33.451,0.0574,-0.1628,9.8386,0.251,0.3668,-0.5651
755,845,623,34.683,33.519,-0.0097,0.0127,9.7072,0.1169,-0.7531,0.4798
760,853,620,34.624,33.473,0.0333,-0.0469,9.8953,0.0801,0.6818,0.1956
765,875,622,34.628,33.508,-0.0007,-0.0464,9.8973,0.0445,-0.1503,0.9981
770,878,623,34.613,33.558,0.0597,0.023,9.8426,-0.5235,0.0762,-0.6007
775,890,627,34.737,33.491,0.0031,-0.0664,9.7557,-0.4319,0.2707,0.0727
780,906,623,34.68,33.454,-0.0137,-0.0008,9.8147,0.8193,-0.2462,0.0487
785,916,624,34.695,33.56,0.0212,0.0429,9.7654,-0.681,-0.9898,0.7561
790,920,621,34.732,33.478,-0.0832,-0.0773,9.7915,0.4186,-0.8218,-0.8195
795,929,627,34.708,33.439,-0.0405,0.0504,9.8488,-0.2482,-0.1834,0.5454
800,937,627,34.702,33.6,-0.0387,0.032,9.7789,0.5702,0.1743,0.1752
805,956,627,34.679,33.559,-0.0355,-0.0211,9.7362,-0.0066,-0.669,0.3666
810,972,630,34.631,33.45,-0.0207,0.0127,9.8692,0.4538,-0.672,-0.6894
815,981,640,34.703,33.519,0.1128,-0.0443,9.7642,-0.5439,0.3962,-0.3551
820,990,639,34.66,33.537,0.0071,0.0212,9.8089,-0.0129,-0.0566,-0.4474
825,1015,644,34.617,33.453,0.0013,-0.0348,9.8389,0.8888,-0.012,-0.0546
830,1013,648,34.697,33.549,-0.0196,-0.0088,9.8797,-0.2632,-0.7423,-0.5853
835,1024,648,34.742,33.532,-0.1013,-0.026,9.7881,-0.4708,0.1656,0.0119
840,1030,653,34.628,33.543,0.0721,-0.0355,9.8169,-0.1829,-0.3685,-0.1262
845,1043,659,34.696,33.501,0.0011,-0.0229,9.7992,-0.1936,0.029,-1.0479
850,1061,670,34.571,33.556,-0.0279,0.0211,9.8193,0.1347,-0.8993,-0.8623
855,1061,670,34.621,33.554,-0.0015,0.0743,9.762,-0.4665,-0.6053,-0.2527
860,1073,681,34.716,33.448,0.0173,-0.0348,9.861,-0.695,-0.1217,-0.1509
865,1083,680,34.626,33.519,-0.0784,0.0876,9.7526,0.4829,0.6502,0.4198
870,1087,690,34.709,33.498,0.0498,0.0274,9.7704,-0.2166,-0.4768,-0.5175
875,1108,702,34.732,33.512,-0.014,-0.1016,9.7945,0.3863,0.1185,0.7516
880,1120,710,34.8,33.406,0.0007,-0.1058,9.8146,0.044,-0.6436,-0.0906
885,1131,705,34.627,33.618,-0.0363,-0.0215,9.8682,-0.1569,-0.9767,0.0373
890,1132,720,34.712,33.646,-0.0716,-0.0499,9.8301,-0.1264,0.2473,-0.4763
895,1133,727,34.755,33.433,0.0064,-0.0263,9.8073,-0.2469,0.495,0.7769
900,1140,733,34.752,33.514,0.0006,0.0945,9.8168,0.6629,0.0994,0.0708
905,1141,742,34.695,33.409,0.0293,0.0241,9.7948,0.3004,-0.3782,0.2667
910,1158,754,34.695,33.48,0.0114,0.0133,9.8639,0.5639,0.3639,0.9017
915,1153,761,34.695,33.595,-0.005,0.0327,9.8434,-0.3242,-0.5643,-0.4755
920,1154,770,34.668,33.454,0.0653,0.0536,9.8563,-0.106,0.6262,-0.762
925,1167,772,34.639,33.497,0.0009,0.0563,9.8032,-0.106,0.8077,0.2138
930,1179,785,34.679,33.595,-0.0815,0.009,9.7542,0.7103,-0.2767,-0.0248
935,1179,796,34.665,33.573,0.0118,0.0129,9.8104,0.9849,0.0052,0.2543
940,1186,800,34.677,33.529,-0.0893,0.0425,9.7504,1.6689,0.114,0.3437
945,1179,804,34.655,33.494,0.0004,0.0305,9.7935,-0.0716,0.0004,0.4202
950,1184,815,34.663,33.44,-0.0293,-0.0073,9.7855,-0.8217,0.28,0.7357
955,1189,819,34.681,33.534,-0.027,-0.0101,9.8304,0.5861,-0.1485,0.7341
960,1181,831,34.598,33.512,0.0739,0.0205,9.7787,-0.2942,0.7605,-0.1752
965,1181,836,34.71,33.569,-0.0401,-0.0364,9.7841,-0.1066,-0.2105,-1.117
970,1185,850,34.7,33.497,-0.0386,-0.0342,9.6509,-0.5015,0.3792,-0.032
975,1195,852,34.698,33.5,-0.0195,-0.0579,9.8448,-0.0092,-0.7279,0.0479
980,1185,860,34.682,33.506,0.0055,-0.0217,9.8036,0.6548,-0.04,-0.4554
985,1187,869,34.7,33.544,-0.0785,-0.0132,9.7865,-1.2101,0.3477,0.743
990,1189,869,34.751,33.522,-0.0161,0.0269,9.7896,-0.4891,-0.4967,0.1191
995,1182,878,34.645,33.543,-0.1345,0.0777,9.7975,0.4365,0.579,0.0772
1000,1181,879,34.731,33.517,-0.0042,0.0721,9.8384,-0.1737,-0.086,-0.3718
1004,1184,890,34.693,33.506,0.1052,-0.0589,9.8274,-0.4761,0.0188,-0.2609
1010,1183,889,34.708,33.411,-0.0695,-0.0497,9.8382,-0.057,0.2795,-0.9363
1014,1176,903,34.634,33.494,-0.0084,0.0276,9.8067,0.4352,0.9581,0.3784
1020,1167,902,34.775,33.567,0.0818,-0.0522,9.9298,-0.3028,-0.0664,0.2732
1025,1176,901,34.724,33.435,-0.0015,0.002,9.8411,-0.8689,-0.9382,0.271
1030,1176,906,34.667,33.44,-0.0314,0.0795,9.7641,0.4062,-0.1937,0.2581
1035,1177,912,34.678,33.485,0.0271,-0.0206,9.7441,-0.1871,0.5458,0.9803
1040,1161,916,34.616,33.51,0.0628,0.0462,9.7616,0.1954,0.7909,-0.2785
1045,1162,922,34.713,33.523,0.0236,0.0792,9.8492,0.0691,0.1511,-0.0916
1050,1157,927,34.653,33.531,0.102,-0.0359,9.7883,0.9406,0.0177,0.0008
1055,1159,927,34.717,33.539,-0.0188,0.0137,9.7786,-0.3847,-0.4018,-0.2349
1060,1154,932,34.713,33.526,-0.0112,0.0042,9.6912,0.141,-0.4922,0.9021
1065,1153,924,34.72,33.433,-0.0159,0.0937,9.8306,0.1865,-0.3005,-0.2827
1070,1146,935,34.676,33.602,-0.0624,0.0687,9.8719,-0.4791,0.5865,-0.2742
1075,1144,930,34.714,33.554,-0.0286,0.0572,9.866,-0.7886,-0.1174,-0.3104
1080,1135,927,34.732,33.446,0.0441,0.0039,9.7303,0.2082,-0.3872,0.2672
1085,1142,939,34.558,33.562,-0.0019,-0.0159,9.7449,-0.8915,0.3772,-0.6192
1090,1128,934,34.78,33.514,0.0079,-0.0522,9.7665,-0.0862,-0.4108,-0.3676
1095,1134,928,34.666,33.499,0.1115,-0.0271,9.8144,0.3038,-0.0348,0.4377
1100,1128,931,34.692,33.499,-0.0068,0.0144,9.6932,-0.3702,0.6022,-0.1262
1105,1130,929,34.657,33.489,0.0418,0.0254,9.849,-0.5004,0.2881,-0.2147
1110,1125,929,34.714,33.498,-0.0498,0.0107,9.8822,-0.5357,0.045,0.3603
1115,1116,927,34.593,33.53,-0.0219,-0.1162,9.8542,0.0955,-0.1138,0.2608
1120,1114,929,34.741,33.561,-0.0575,-0.0945,9.7982,-0.5161,-0.651,0.0344
1125,1110,921,34.747,33.56,-0.0202,0.0242,9.7739,-1.0949,0.0288,0.1895
1130,1108,923,34.725,33.567,-0.0146,-0.0129,9.8155,-0.3526,0.4015,0.5714
1135,1112,918,34.631,33.497,0.0051,-0.0535,9.8008,-0.2265,-0.5315,-0.3002
1140,1111,922,34.61,33.57,0.079,-0.0344,9.7472,0.6022,0.5407,-0.6756
1145,1116,921,34.673,33.479,0.0114,-0.0034,9.7928,0.0511,0.1005,0.3525
1150,1098,914,34.671,33.553,-0.0493,-0.0454,9.8368,-0.1921,0.4993,0.2107
1155,1108,917,34.706,33.469,0.0222,-0.0485,9.7991,-0.8096,0.7541,0.4413
1160,1099,915,34.678,33.606,-0.0204,-0.0028,9.7934,0.054,-0.687,-0.1268
1165,1095,913,34.671,33.412,-0.0634,-0.0429,9.844,-0.6487,0.2914,0.4038
1170,1094,905,34.645,33.538,-0.0381,0.018,9.7828,0.6345,-0.41,0.6706
1175,1098,908,34.686,33.58,0.0264,-0.0597,9.8666,-0.112,0.0787,-0.271
1180,1098,906,34.614,33.551,0.03,-0.0743,9.797,-0.1781,0.4059,-0.1478
1185,1089,904,34.728,33.519,-0.0723,-0.0211,9.7869,0.5455,-0.4033,-0.7712
1190,1090,898,34.677,33.506,0.0209,-0.0015,9.7901,0.0042,-0.2588,-0.2333
1195,1091,895,34.669,33.543,0.0325,-0.1042,9.8145,-0.3143,1.0707,0.5444
1200,1082,895,34.604,33.527,-0.0272,-0.0132,9.8312,-0.2335,0.5956,-0.546
1205,1078,895,34.626,33.566,-0.012,-0.0517,9.8217,0.1288,-1.0257,-1.0838
1210,1092,891,34.67,33.496,0.0467,-0.073,9.8492,0.0333,-0.3887,-0.5461
1215,1077,890,34.75,33.541,0.0485,0.0234,9.8386,0.2778,0.0195,-0.2915
1220,1070,888,34.79,33.53,-0.0614,0.0189,9.8085,-0.1605,-0.4017,0.1626
1225,1062,883,34.702,33.571,0.0609,-0.0601,9.7313,1.0687,1.0137,-0.1468
1230,1071,883,34.741,33.561,0.0166,-0.0021,9.8302,0.7193,-0.071,-0.1222
1235,1061,882,34.621,33.457,0.0151,-0.0061,9.8348,-0.2278,-0.1677,-0.093
1240,1067,880,34.705,33.525,0.0072,0.0701,9.753,-0.2311,-0.4212,-0.4642
1245,1062,876,34.735,33.525,0.0917,-0.0116,9.8109,-0.0828,0.416,-0.3698
1250,1056,875,34.705,33.536,0.0191,0.0193,9.8766,0.2122,0.2257,-0.3352
1255,1054,875,34.658,33.585,-0.0552,-0.0389,9.861,0.3758,-0.3238,0.1471
1260,1044,876,34.605,33.545,0.0349,0.015,9.9251,-0.3495,-0.1886,-0.306
1265,1033,877,34.635,33.512,-0.0027,-0.0631,9.8248,0.0434,0.2274,-0.6961
1270,1036,873,34.659,33.617,0.0768,-0.0936,9.7279,-0.0545,0.0068,-0.1199
1275,1036,875,34.758,33.473,0.059,0.0832,9.8037,-0.5769,0.3869,-0.9597
1280,1027,871,34.626,33.549,0.0444,-0.0314,9.8523,0.2183,-0.0788,0.3404
1285,1029,867,34.761,33.571,0.0604,-0.0038,9.8303,0.3552,-0.6967,0.2867
1290,1016,861,34.645,33.535,-0.0302,0.0318,9.7683,-0.6985,0.3716,-0.3605
1295,1009,861,34.568,33.492,0.1286,-0.0461,9.8273,-0.8053,0.255,-0.1111
1300,1012,860,34.672,33.52,0.0838,0.0273,9.8183,0.5445,-0.3567,0.575
1305,1005,864,34.75,33.465,-0.0897,-0.0448,9.9157,-0.2528,-0.5715,0.0976
1310,994,859,34.721,33.567,0.0012,0.0312,9.9005,-0.2626,-0.3415,0.3293
1315,983,856,34.727,33.456,0.0772,-0.0073,9.8202,0.3578,0.1474,0.5824
1320,984,853,34.65,33.508,-0.0328,0.0407,9.8058,-0.0375,0.0241,-1.2572
1325,974,860,34.723,33.479,-0.0615,-0.0372,9.7292,-0.2803,0.0593,-0.266
1330,963,847,34.686,33.493,0.0174,0.0855,9.7444,-0.7071,0.4133,0.0729
1335,960,855,34.711,33.52,-0.0035,0.0135,9.9017,0.3107,-1.1426,-0.397
1340,960,850,34.638,33.542,-0.0276,0.0358,9.7824,-0.1574,-0.3854,0.0792
1345,958,846,34.698,33.52,0.0229,-0.1216,9.8079,-0.2322,-0.9267,0.1525
1350,933,847,34.645,33.55,0.0249,-0.0152,9.7946,0.0638,-0.3687,0.0782
1355,921,845,34.715,33.644,0.0208,-0.016,9.9533,-0.3118,0.4603,-0.8936
1360,923,843,34.665,33.561,0.0101,-0.0274,9.8284,-0.5225,-0.0917,0.214
1365,906,843,34.603,33.548,-0.0254,-0.0365,9.8134,-0.0602,0.1797,-0.2938
1370,906,842,34.721,33.47,-0.0216,0.0387,9.6378,-1.1484,0.8983,0.281
1375,897,834,34.694,33.532,0.0157,-0.0707,9.7538,0.4972,0.1077,0.1578
1380,888,831,34.62,33.526,-0.0874,0.0726,9.835,-0.8473,-0.2544,0.2489
1385,874,828,34.672,33.51,0.0199,-0.0384,9.8228,0.3551,0.8152,0.6812
1390,874,823,34.67,33.479,-0.0627,-0.048,9.8558,-0.943,-0.0861,0.1176
1395,870,820,34.742,33.55,-0.0664,-0.0257,9.8492,-0.2602,-0.4227,0.5385
1400,854,818,34.739,33.525,-0.0282,0.0868,9.8154,-0.7967,0.7645,-0.6339
1405,846,816,34.699,33.472,0.0026,0.0087,9.8338,0.1484,0.4037,0.3358
1410,834,814,34.645,33.576,-0.0842,-0.056,9.8606,0.462,0.6582,-0.497
1415,831,807,34.725,33.488,-0.0284,-0.0375,9.8233,-0.2259,-0.0289,0.0757
1420,827,802,34.748,33.504,0.1035,-0.1463,9.8048,0.2027,-0.0799,0.0709
1425,808,800,34.714,33.577,-0.0057,0.0073,9.698,0.4828,0.2173,-0.1772
1430,805,790,34.613,33.538,0.1163,-0.0114,9.7113,0.1222,-0.2772,-0.0275
1435,802,787,34.704,33.441,-0.0427,-0.0354,9.8301,-0.2165,-0.5357,-0.1595
1440,793,784,34.632,33.451,0.0518,-0.0325,9.8813,0.0593,-0.2347,-0.5507
1445,786,781,34.708,33.517,-0.0475,-0.0921,9.8323,0.2304,0.1802,-0.5314
1450,792,775,34.7,33.469,-0.0092,-0.0401,9.7475,0.2346,0.2743,0.2513
1455,780,769,34.614,33.493,-0.0288,0.0411,9.8268,0.2063,0.0234,-0.3479
1460,770,763,34.56,33.537,0.0237,0.0364,9.8288,-0.1742,0.1276,-0.5039
1465,770,758,34.566,33.498,-0.0596,-0.0075,9.7573,-0.6844,0.0713,0.5139
1470,762,747,34.687,33.478,-0.0465,-0.0508,9.9467,-0.6259,0.6464,0.3618
1475,753,749,34.729,33.515,-0.0049,0.0211,9.788,-0.7021,-0.8807,-0.0567
1480,764,737,34.649,33.466,0.0011,0.0064,9.9022,-0.0295,0.582,-0.4691
1485,750,730,34.754,33.518,-0.0136,-0.0336,9.7601,-0.9352,-1.5461,0.323
1490,749,728,34.667,33.513,-0.02,-0.0583,9.801,0.1631,0.2922,0.3364
1495,743,714,34.658,33.545,0.0251,-0.0551,9.808,0.4396,0.3036,0.7529
1500,739,708,34.73,33.553,0.0113,0.0298,9.7931,-0.8802,0.156,-0.1477
1505,743,713,34.726,33.485,0.0439,-0.0861,9.7348,-0.6514,-0.1982,0.2605
1510,744,707,34.691,33.471,-0.0601,-0.0521,9.7756,0.3427,0.197,1.6033
1515,755,701,34.674,33.447,0.0603,0.029,9.8002,-0.9378,0.0786,1.0978
1520,751,687,34.713,33.456,0.0578,-0.1443,9.784,0.5698,0.3589,-0.1067
1525,758,685,34.631,33.493,0.0132,-0.0071,9.7958,-0.5667,-0.1718,0.2801
1530,746,682,34.669,33.485,0.0167,0.036,9.748,0.0325,0.2697,0.1451
1535,759,671,34.649,33.575,0.0878,0.0155,9.7708,-0.4263,0.0556,-0.3554
1540,766,666,34.693,33.575,-0.012,-0.0042,9.7876,-0.0329,0.5481,0.2206
1545,765,667,34.787,33.521,-0.0624,-0.0669,9.8225,0.5146,-0.2707,-0.0587
1550,769,661,34.614,33.514,0.0185,0.123,9.7505,-0.594,-0.1146,-0.7755
1555,775,656,34.676,33.478,0.0179,0.0239,9.7863,0.4154,-0.0577,1.169
1560,778,651,34.73,33.471,0.001,0.0808,9.8189,0.528,-0.3625,0.2354
1565,792,649,34.745,33.577,0.0053,-0.026,9.8269,-0.3441,-0.1072,-1.1585
1570,786,646,34.629,33.512,-0.0061,-0.0106,9.8209,0.1815,0.4381,0.4044
1575,805,640,34.65,33.528,-0.0009,-0.0214,9.8532,0.0945,-0.5326,-0.863
1580,818,635,34.682,33.538,-0.0106,0.0042,9.7877,-0.3374,0.1184,-0.3596
1585,813,626,34.664,33.53,0.0847,0.0757,9.8351,0.5464,-0.365,0.6489
1590,830,628,34.762,33.543,-0.0587,-0.0017,9.8125,0.244,0.2038,0.2926
1595,843,628,34.691,33.587,0.0949,-0.0242,9.8097,-0.0244,0.4707,-0.1687
1600,845,629,34.667,33.584,-0.0799,0.0332,9.7625,-0.1355,-0.2643,-0.1353
1605,853,627,34.759,33.49,-0.099,0.0502,9.7855,1.0081,-0.3797,-0.1743
1610,860,623,34.642,33.496,0.0127,0.0386,9.8279,0.1001,0.2692,0.0575
1615,881,624,34.65,33.544,-0.0456,0.03,9.8431,0.3108,0.6897,0.5722
1620,898,623,34.674,33.513,0.0169,0.0548,9.861,-0.1428,-0.3987,0.6364
1625,896,625,34.56,33.572,-0.0296,-0.0037,9.8053,0.1009,0.6741,-0.0825
1630,906,623,34.697,33.474,0.0103,-0.0729,9.8755,0.0329,-0.2745,0.3952
1635,920,626,34.691,33.514,-0.0448,0.0246,9.7285,0.458,-0.6138,0.2165
1640,935,626,34.683,33.473,0.0084,-0.0226,9.7639,-0.658,0.1918,0.0541
1645,942,629,34.722,33.418,0.0127,0.0331,9.7358,0.7535,-0.3483,0.3404
1650,949,625,34.752,33.568,0.0517,0.0606,9.7944,0.2661,0.65,-0.4078
1655,973,632,34.721,33.501,0.0666,0.0337,9.893,0.306,0.8385,0.3151
1660,978,637,34.677,33.53,-0.0284,-0.0013,9.8936,0.3001,0.4879,-0.38
1665,1000,640,34.616,33.616,0.0114,-0.0413,9.7441,-0.6396,-0.562,0.1636
1670,995,646,34.636,33.603,0.0067,0.0157,9.8099,-0.6691,0.1525,0.6738
1675,1021,647,34.648,33.512,0.0457,0.0362,9.8549,0.5256,0.5903,-0.5387
1680,1012,653,34.65,33.523,-0.0437,-0.003,9.8477,-0.1175,-1.0073,-0.8713
1685,1036,655,34.723,33.526,-0.0315,0.112,9.8735,0.2402,-0.514,-0.3416
1690,1057,665,34.701,33.411,-0.0948,-0.0827,9.8968,0.2916,-0.1787,0.006
1695,1051,672,34.775,33.555,0.0119,-0.0315,9.8887,0.54,0.9785,0.8192
1700,1061,672,34.625,33.464,-0.0645,0.0202,9.854,0.8842,0.8905,-0.2886
1705,1079,682,34.629,33.509,-0.034,-0.0333,9.7952,-0.1307,-0.6122,-0.1155
1710,1094,688,34.574,33.474,0.0383,-0.0064,9.8642,0.2734,0.2023,-0.5386
1715,1085,691,34.685,33.531,-0.034,-0.0833,9.7549,-0.2811,-0.2277,-0.4643
1720,1101,698,34.654,33.552,0.0823,-0.0561,9.8093,-0.1424,-0.0257,-0.6086
1725,1107,702,34.712,33.515,0.0367,0.0266,9.7411,0.4144,0.6605,0.3329
1730,1123,715,34.734,33.546,0.0097,-0.0099,9.776,-0.5122,-0.2087,-0.2278
1735,1121,728,34.675,33.562,-0.0759,0.0273,9.826,0.2548,0.1416,-0.1565
1740,1142,733,34.725,33.533,0.0012,0.0528,9.8397,-0.2794,-0.4046,0.6305
1745,1142,740,34.668,33.517,-0.0983,0.0314,9.82,-0.7782,-1.0486,1.0875
1750,1148,748,34.69,33.52,-0.0159,0.0228,9.829,-0.27,0.1683,0.5214
1755,1151,757,34.734,33.572,0.0219,0.0375,9.7833,-0.2701,0.4139,0.4246
1760,1156,761,34.773,33.503,-0.0209,0.0778,9.7784,0.3137,-0.18,-0.3821
1765,1159,762,34.658,33.539,0.0643,-0.0023,9.868,-0.0636,0.531,-0.7479
1770,1167,780,34.665,33.485,-0.0083,0.0059,9.7399,0.5979,0.1722,0.0572
1775,1176,789,34.675,33.551,0.0236,-0.1519,9.7657,0.597,-0.0521,-0.126
1780,1178,793,34.748,33.51,0.0045,0.0119,9.7957,-0.5705,0.4323,0.1832
1785,1177,805,34.638,33.479,-0.0118,-0.0358,9.9154,0.7655,0.0258,0.4552
1790,1184,807,34.736,33.483,-0.002,-0.0118,9.8596,0.5626,-0.1757,0.9085
1795,1184,821,34.721,33.493,-0.0348,-0.0822,9.8398,0.9347,0.2019,0.4466
1800,1191,821,34.773,33.594,-0.0009,-0.0142,9.8186,1.2364,-0.8227,0.5579
1805,1184,832,34.712,33.48,-0.0589,0.0399,9.8365,0.5008,-0.1555,0.8026
1810,1184,845,34.762,33.619,-0.0888,0.0163,9.796,1.0822,-0.4041,-0.2723
1815,1194,841,34.677,33.556,0.0774,0.0707,9.8151,-0.6741,0.3889,-0.1496
1820,1194,854,34.714,33.623,0.005,-0.0233,9.8529,0.6338,-0.5306,0.3775
1825,1191,859,34.692,33.613,0.1035,0.0038,9.7259,-0.4124,-0.4277,0.2252
1830,1187,866,34.661,33.533,-0.0035,0.0519,9.8043,-0.1061,0.5114,0.0484
1835,1192,872,34.673,33.476,0.0156,-0.0403,9.8156,0.7177,0.1328,-0.068
1840,1184,877,34.766,33.533,-0.123,-0.0174,9.8004,0.6777,0.0741,-0.1323
1845,1179,880,34.651,33.509,-0.0,-0.0058,9.8853,0.7655,-0.6521,0.0362
1850,1178,888,34.657,33.534,-0.1007,0.0036,9.7889,-0.0811,0.0614,0.1323
1855,1177,891,34.747,33.466,-0.0052,-0.0221,9.7558,-0.1687,-0.176,-0.4223
1860,1174,894,34.63,33.441,-0.0055,-0.1021,9.8451,-0.4196,0.1306,0.0042
1865,1176,904,34.761,33.523,-0.0285,0.1414,9.7381,0.3324,-0.1145,-0.232
1870,1176,909,34.71,33.522,0.0306,0.0102,9.7662,0.1661,-0.2619,-0.4238
1875,1167,913,34.712,33.594,0.0469,-0.0619,9.8049,-0.1289,-0.2522,-0.4167
1880,1167,918,34.715,33.568,0.0188,0.075,9.6752,-0.3714,-0.2995,0.6131
1885,1167,912,34.706,33.472,-0.0597,-0.02,9.8427,1.1028,-0.0284,-0.2603
1890,1168,921,34.719,33.468,0.0416,-0.0021,9.9069,-0.028,0.4646,0.8376
1895,1156,919,34.673,33.415,-0.0121,-0.0492,9.8389,-0.0879,-0.3878,0.7814
1900,1152,922,34.671,33.535,-0.0426,-0.0066,9.7543,0.1108,0.4978,-0.4075
1905,1154,929,34.775,33.509,0.0282,-0.0857,9.7311,0.2355,0.1962,0.5099
1910,1151,924,34.712,33.446,0.0646,0.003,9.8195,0.2048,-0.1004,-0.2543
1915,1152,927,34.725,33.54,-0.001,0.0244,9.8665,0.8707,-0.141,0.7741
1920,1131,930,34.717,33.554,-0.0707,-0.0244,9.7831,0.0298,-0.8654,0.1795
1925,1135,930,34.639,33.546,-0.034,0.0008,9.8107,-0.0679,-0.5406,-0.3065
1930,1145,933,34.714,33.524,0.0393,0.0203,9.8736,0.4883,-0.213,-0.2313
1935,1140,929,34.614,33.532,0.0037,-0.0577,9.7741,0.1902,-0.1431,-0.4109
1940,1138,932,34.693,33.49,0.0226,0.0708,9.7746,0.4365,-0.4543,-0.0124
1945,1126,934,34.715,33.544,0.0115,0.0486,9.8187,-0.037,0.0508,0.4203
1950,1118,928,34.674,33.575,-0.0078,0.0388,9.8093,0.0555,0.2652,0.2426
1955,1118,929,34.67,33.507,-0.0595,-0.0926,9.7987,-0.3083,0.3258,-0.0458
1960,1123,931,34.688,33.492,0.0672,-0.0102,9.7766,1.1457,-0.5737,0.13
1965,1116,931,34.646,33.586,0.0441,-0.0732,9.8282,0.2769,0.019,-0.1918
1970,1111,931,34.607,33.494,-0.0265,0.0255,9.7841,0.4127,-0.6854,0.2196
1975,1114,914,34.696,33.516,-0.0372,-0.0192,9.7623,0.4806,1.1616,-0.2816
1980,1108,924,34.674,33.54,0.0308,-0.0774,9.8676,-0.2829,0.0802,0.2639
1985,1110,919,34.667,33.527,0.0084,-0.0819,9.7935,0.8315,0.8893,0.0294
1990,1103,926,34.704,33.376,0.0399,-0.0226,9.8193,-0.3937,0.8087,-0.2641
1995,1108,922,34.683,33.428,-0.0579,-0.013,9.8873,0.2946,0.7253,-0.1681
2000,1106,914,34.718,33.536,-0.0007,0.04,9.8345,0.1674,-0.6172,-0.1054
2005,1095,918,34.698,33.646,-0.0219,-0.0631,9.7792,0.3038,-0.476,-0.2398
2009,1105,907,34.714,33.601,-0.0778,0.1065,9.8197,0.8702,0.0001,-0.446
2015,1094,911,34.664,33.59,0.0545,-0.0292,9.7472,0.2457,0.5167,-0.8138
2020,1082,909,34.753,33.525,0.103,0.0347,9.8759,-0.8976,0.2355,-0.0401
2025,1089,902,34.737,33.545,0.0289,-0.0061,9.7978,-0.7176,0.5255,0.4302
2029,1083,906,34.667,33.409,0.0387,-0.0284,9.7769,-0.3192,0.1439,-0.262
2035,1079,904,34.744,33.461,-0.0513,-0.0077,9.7859,0.2174,0.0392,-0.5401
2040,1088,899,34.726,33.552,0.0248,-0.0238,9.8133,-0.3155,-0.0957,-0.4119
2045,1074,897,34.701,33.478,0.0498,-0.0328,9.83,0.1079,-0.2317,0.6779
2050,1081,896,34.765,33.461,0.0177,-0.0896,9.745,-0.4516,0.2986,-0.0947
2055,1082,892,34.693,33.623,0.0615,-0.0533,9.8279,-0.8922,-1.067,0.082
2060,1074,890,34.647,33.473,-0.0766,0.0152,9.8129,0.0808,0.3354,-0.096
2065,1072,892,34.682,33.456,-0.0169,0.0351,9.8793,-0.5614,-0.0705,0.2127
2070,1059,885,34.759,33.402,-0.066,0.0425,9.8176,-0.7109,0.0509,0.1711
2075,1065,886,34.702,33.57,0.0411,0.0073,9.7628,-0.9792,-0.0412,-0.0608
2080,1062,885,34.713,33.467,-0.0237,0.0125,9.8004,-0.0938,0.093,-0.7386
2085,1057,874,34.675,33.544,-0.0104,-0.0179,9.894,0.0713,0.0167,-0.6508
2090,1064,881,34.725,33.508,-0.0121,-0.0876,9.7652,0.0699,0.3144,0.0725
2095,1057,878,34.635,33.606,-0.0813,-0.0504,9.8167,-0.6936,-0.3115,-0.1315
2100,1048,872,34.685,33.573,-0.0289,0.0262,9.806,-0.7218,-0.4884,-0.379
2105,1043,869,34.754,33.552,0.0112,0.0413,9.7535,-0.372,-0.861,-0.6693
2110,1047,873,34.669,33.539,-0.0203,-0.082,9.7809,-1.0346,-0.3488,-0.5847
2115,1035,875,34.69,33.584,0.0486,0.0149,9.7761,0.6165,-0.0417,0.4247
2120,1022,869,34.658,33.562,0.048,-0.1046,9.8493,0.2091,-1.3815,-0.5112
2125,1021,868,34.669,33.422,-0.048,-0.0803,9.9282,0.0797,-0.5499,0.151
2130,1017,870,34.661,33.444,-0.0056,0.0363,9.8026,0.1436,0.4847,-0.3034
2135,1023,863,34.707,33.495,-0.1262,-0.0615,9.8216,-0.3163,0.7642,-0.2951
2140,1012,864,34.656,33.437,-0.0504,-0.0897,9.7469,0.7497,0.3462,-0.4018
2145,1000,862,34.678,33.512,-0.0566,0.0242,9.8057,0.2095,-0.1566,0.052
2150,1004,862,34.682,33.562,0.0558,0.0235,9.816,0.8214,-0.1012,-0.6634
2155,991,856,34.695,33.458,-0.0639,-0.0216,9.7859,0.0025,0.3755,-0.2488
2160,983,858,34.693,33.473,0.1081,0.0221,9.8362,-0.5192,-0.8549,-0.2256
2165,983,855,34.703,33.569,0.0508,0.1002,9.8543,0.1347,0.0454,-0.0825
2170,974,853,34.75,33.471,0.0227,-0.0074,9.7524,-0.5272,0.131,-0.0111
2175,971,854,34.609,33.529,-0.0401,-0.0258,9.7966,-0.2071,0.2897,-0.3486
2180,952,846,34.631,33.418,-0.0424,-0.0485,9.8095,-0.4143,-0.3063,0.0206
2185,953,849,34.719,33.481,-0.0324,-0.0759,9.8066,-0.8574,0.356,-0.006
2190,944,842,34.689,33.567,-0.0518,0.0709,9.8873,0.0212,-0.4247,-0.5323
2195,932,847,34.721,33.499,-0.0091,0.0012,9.812,-0.2054,0.1617,0.6974
2200,933,842,34.736,33.511,0.1123,0.0127,9.7613,-0.3289,-0.0816,-0.4707
2205,920,841,34.629,33.597,0.0773,-0.0364,9.833,-0.5738,-1.2326,0.1313
2210,914,838,34.669,33.435,0.0241,0.0309,9.7815,0.7016,-0.1697,0.1303
2215,895,839,34.689,33.501,-0.0117,0.0635,9.7857,-0.479,-0.6582,-0.6186
2220,893,834,34.646,33.57,-0.0003,0.001,9.823,-0.955,0.7515,-0.8002
2225,887,832,34.671,33.509,0.0006,-0.0484,9.7472,-0.2756,-0.1252,0.3094
2230,876,829,34.759,33.517,0.0254,-0.1025,9.8617,0.143,-0.1069,0.0957
2235,864,827,34.85,33.52,-0.0714,-0.1172,9.9318,0.3913,-0.0843,0.3416
2240,859,824,34.704,33.471,-0.0569,0.0119,9.8272,-0.3423,-0.1893,-0.2598
2245,849,818,34.628,33.472,0.0281,-0.0145,9.7707,0.6024,-0.4299,0.3341
2250,845,808,34.609,33.471,-0.0241,0.0052,9.8306,-0.7199,-0.096,0.4683
2255,834,811,34.58,33.51,-0.0599,-0.0491,9.7578,-0.3054,0.1112,0.3791
2260,823,802,34.749,33.515,0.0592,-0.002,9.8061,-0.0081,-0.0739,-0.1822
2265,812,800,34.748,33.424,0.0473,0.0295,9.7742,0.0185,0.2953,0.1688
2270,807,793,34.605,33.444,0.0432,-0.0306,9.8344,-0.0685,0.2127,0.272
2275,801,790,34.731,33.584,-0.0318,0.0545,9.8405,-0.721,-0.8247,-0.0831
2280,794,786,34.702,33.452,0.017,-0.0315,9.852,-0.1224,0.3177,-0.5089
2285,791,780,34.777,33.486,-0.0205,-0.0135,9.8331,-0.1424,0.1081,-1.1487
2290,787,778,34.737,33.461,-0.0262,0.0551,9.9248,-0.5791,-0.2195,0.163
2295,781,772,34.688,33.572,-0.0594,0.0587,9.8005,-0.3268,0.1892,0.1313
2300,775,763,34.608,33.605,-0.0163,0.0846,9.8373,-0.5805,-0.0329,0.5512
2305,766,761,34.749,33.569,0.0501,-0.0374,9.7546,-0.4182,0.1931,0.0332
2310,766,753,34.747,33.505,-0.0198,-0.04,9.8339,0.4355,-0.5555,0.2228
2315,762,749,34.648,33.389,-0.0205,0.0454,9.7935,-0.3712,-0.0665,-0.2172
2320,761,742,34.739,33.602,0.012,0.0401,9.7856,0.3139,-0.5898,-0.4269
2325,757,735,34.752,33.507,-0.0243,0.0006,9.7613,0.4266,-0.1049,-0.0176
2330,758,729,34.595,33.49,0.0463,-0.0061,9.8491,0.7347,0.0185,0.0104
2335,753,721,34.701,33.515,0.0679,0.0537,9.7747,-0.4812,0.1573,0.7845
2340,751,718,34.619,33.609,-0.0269,-0.019,9.6916,-0.4892,-0.1151,-0.3021
2345,747,717,34.701,33.479,0.0693,-0.0297,9.7738,0.1856,0.7475,1.0753
2350,753,709,34.64,33.617,0.051,0.0019,9.8857,-0.5141,0.3973,-0.6783
2355,744,701,34.725,33.545,-0.0014,-0.0427,9.7681,0.1567,-0.2644,-0.2381
2360,746,695,34.683,33.513,0.1296,0.0181,9.773,0.6917,0.0947,0.3168
2365,759,689,34.668,33.656,0.0267,-0.0525,9.8318,0.4261,-0.354,0.9276
2370,754,682,34.72,33.581,0.0379,0.054,9.7818,1.0654,-0.6503,-0.1156
2375,757,675,34.715,33.521,0.024,0.0374,9.9038,-0.1788,-0.182,0.1557
2380,764,673,34.802,33.578,0.0016,-0.0463,9.896,-0.5006,0.2783,1.0569
2385,759,668,34.697,33.593,0.0057,-0.0096,9.7971,1.1678,-0.4781,0.6603
2390,772,663,34.652,33.565,-0.0473,-0.073,9.7808,-0.2874,0.2466,-1.047
2395,767,662,34.725,33.566,0.0952,-0.0157,9.8563,0.02,0.2518,0.6058
2400,774,652,34.759,33.55,0.0375,-0.0105,9.827,0.2006,0.6939,1.2522
2405,782,648,34.716,33.517,0.108,-0.0151,9.7237,0.4667,-0.3901,0.3811
2410,790,641,34.715,33.488,-0.0484,0.0583,9.803,-0.0805,0.7362,0.6856
2415,797,641,34.663,33.521,0.128,-0.0234,9.7717,-0.0443,0.1303,0.3195
2420,811,644,34.755,33.512,-0.0054,0.0645,9.8921,-0.7227,-0.1354,-0.0957
2425,814,633,34.654,33.524,-0.0798,0.024,9.8107,-0.1129,-0.6773,0.349
2430,825,633,34.707,33.538,0.0175,-0.0226,9.9306,-0.0336,-0.5857,-0.5012
2435,830,629,34.739,33.554,0.0798,-0.0327,9.8285,0.0045,-0.3405,0.1046
2440,843,628,34.662,33.526,-0.0861,0.0158,9.7951,-0.1603,0.3408,-0.3279
2445,853,629,34.603,33.482,0.0265,0.0706,9.832,-0.2036,0.2757,-0.3536
2450,869,627,34.69,33.48,0.0409,0.0436,9.716,-0.0269,0.0629,-0.0028
2455,873,624,34.595,33.524,0.0644,-0.0439,9.7486,0.2886,-0.2366,1.0378
2460,877,622,34.677,33.571,-0.0414,0.0759,9.8069,-1.0352,-0.0306,-0.1336
2465,887,623,34.674,33.541,0.0812,-0.0792,9.7332,-0.0347,0.5937,0.0249
2470,904,626,34.683,33.457,0.0078,-0.0298,9.7726,-0.7436,0.1871,0.346
2475,910,622,34.754,33.621,0.0073,0.0925,9.8145,0.2472,0.5098,-0.8415
2480,928,624,34.71,33.466,0.037,-0.0946,9.8379,0.4634,-0.1295,-0.2189
2485,943,626,34.617,33.551,-0.0278,0.0187,9.7544,-0.2806,0.3612,1.0263
2490,953,626,34.721,33.549,-0.0391,0.0256,9.7992,-0.1825,0.4495,-0.7404
2495,971,630,34.716,33.573,0.0167,0.0784,9.7961,-0.2209,1.1511,0.4934
2500,962,635,34.703,33.461,-0.0497,-0.0173,9.8063,-0.7739,-0.2388,0.1691
2505,984,640,34.703,33.498,-0.0543,-0.0227,9.9022,-0.6146,0.0434,1.4665
2510,994,639,34.688,33.594,-0.0085,0.0196,9.7249,-0.3173,-0.5172,0.2124
2515,1006,646,34.723,33.53,-0.049,-0.0202,9.8468,0.3185,-0.3614,-0.1329
2520,1020,652,34.751,33.55,-0.0309,0.0145,9.8917,-0.4822,-0.1307,0.6423
2525,1029,652,34.774,33.575,0.0272,-0.0306,9.8358,0.6776,0.1964,-0.0738
2530,1031,656,34.677,33.586,-0.0081,-0.1348,9.7981,-0.4688,0.2932,0.2393
2535,1050,663,34.793,33.447,0.0851,-0.0955,9.8262,-0.0657,0.2278,0.0846
2540,1055,670,34.715,33.559,-0.0406,-0.1253,9.924,0.2476,-0.4806,-0.23
2545,1067,679,34.796,33.54,0.0309,0.0071,9.7591,-0.2401,0.1447,-0.0805
2550,1082,680,34.761,33.507,-0.0253,0.0225,9.8739,-0.0673,-0.2861,0.3387
2555,1084,686,34.782,33.574,-0.0871,0.0898,9.7562,-0.2398,0.1754,0.1461
2560,1101,692,34.756,33.517,0.0106,-0.0124,9.825,-0.3016,0.2863,0.3255
2565,1099,706,34.739,33.437,-0.0005,-0.0392,9.788,0.0015,-0.2389,-0.0021
2570,1116,712,34.71,33.47,0.0689,-0.0511,9.9125,-0.1992,-0.3471,-0.4991
2575,1130,719,34.662,33.529,-0.0344,0.1021,9.8107,0.3102,-0.6752,0.0373
2580,1125,723,34.616,33.545,0.0536,0.0199,9.8425,-0.6598,0.597,-0.2898
2585,1135,725,34.771,33.477,0.0459,-0.0308,9.8081,-0.6541,0.3606,0.4097
2590,1138,739,34.692,33.524,-0.0037,0.0196,9.8633,-1.0509,-1.2726,0.2637
2595,1154,750,34.761,33.536,0.0119,0.0502,9.8444,1.0018,0.6022,0.6342
2600,1163,756,34.719,33.483,0.0145,0.1009,9.7962,0.1711,-0.1848,0.1833
2605,1161,764,34.646,33.46,-0.0208,-0.0814,9.8137,0.4714,0.0965,-0.3751
2610,1165,772,34.724,33.496,0.0445,0.1022,9.7582,-0.1879,0.1707,0.0355
2615,1170,779,34.684,33.515,0.129,-0.07,9.8015,0.2182,0.933,-1.1226
2620,1164,787,34.701,33.495,-0.0264,0.0298,9.7576,-0.0758,0.3263,0.3254
2625,1182,792,34.761,33.609,0.0177,-0.0094,9.7732,-0.1571,-1.0177,0.8075
2630,1180,798,34.652,33.456,0.0503,-0.0326,9.8884,0.451,0.3212,-0.4398
2635,1179,815,34.705,33.487,0.1441,-0.0573,9.7711,0.3068,0.4024,-0.3854
2640,1176,822,34.692,33.511,-0.0448,-0.0073,9.8993,0.2139,0.1284,-0.6357
2645,1170,827,34.682,33.476,-0.0235,-0.0686,9.8995,0.4353,0.3571,0.116
2650,1183,830,34.784,33.497,0.0465,-0.0192,9.8189,-0.1181,-0.4538,0.0542
2655,1186,844,34.709,33.561,0.0582,0.0091,9.7681,0.2409,-0.1678,-0.2414
2660,1181,848,34.691,33.481,0.0308,0.0079,9.8164,0.6807,-0.2926,0.0587
2665,1191,851,34.66,33.496,-0.0,-0.0157,9.8255,0.2167,0.9567,-0.4199
2670,1194,859,34.766,33.502,0.0615,-0.0005,9.8526,0.2609,-0.2534,0.5512
2675,1182,864,34.735,33.572,-0.0739,0.0172,9.8281,0.3652,0.5165,-0.3775
2680,1179,875,34.734,33.525,-0.0648,-0.0543,9.797,-0.02,-0.1122,-0.0445
2685,1179,873,34.679,33.558,0.0108,0.0137,9.7729,0.3437,0.3601,-0.2989
2690,1177,891,34.697,33.573,-0.0205,-0.0404,9.8271,0.4164,0.0343,-0.4653
2695,1182,884,34.805,33.524,0.0445,-0.019,9.8421,-0.2416,0.2233,-0.2911
2700,1181,897,34.709,33.561,0.0066,0.0336,9.8266,-0.4816,0.5904,-0.3789
2705,1176,898,34.658,33.508,0.0354,0.0746,9.8394,-0.2487,-0.6242,-0.4434
2710,1183,907,34.655,33.562,-0.0371,-0.0503,9.8102,0.3655,-0.0419,-0.3255
2715,1185,901,34.72,33.587,0.0196,0.0285,9.8274,-1.0415,-0.7362,-0.084
2720,1173,914,34.639,33.663,-0.0128,-0.093,9.7876,-0.0719,-0.4136,-0.3979
2725,1166,914,34.656,33.471,-0.0642,0.0511,9.8555,0.1192,0.5657,-0.5447
2730,1162,918,34.778,33.589,-0.0157,-0.047,9.7886,-0.027,-1.8436,-0.0479
2735,1169,918,34.616,33.536,-0.0104,0.0453,9.79,-0.4071,1.0732,0.3142
2740,1157,922,34.714,33.58,-0.0534,0.0031,9.7938,0.1137,-0.7215,-0.3548
2745,1162,925,34.735,33.522,-0.0307,0.0138,9.8017,0.3599,-0.1008,-0.0315
2750,1155,931,34.729,33.547,-0.0124,0.0104,9.7926,0.6901,-0.0704,0.019
2755,1145,928,34.667,33.496,0.052,-0.0348,9.7454,0.4946,-0.1706,0.3136
2760,1137,928,34.687,33.568,0.0008,-0.0211,9.8027,0.1246,0.3346,0.5636
2765,1143,927,34.798,33.556,0.0128,0.0468,9.7604,-0.5493,0.6153,-0.499
2770,1142,930,34.678,33.565,0.0011,-0.0351,9.8007,0.735,-0.8018,-0.3489
2775,1135,937,34.725,33.551,0.028,-0.0369,9.764,-0.5239,-0.6532,-0.3395
2780,1126,930,34.75,33.509,0.0143,0.0679,9.7548,0.3056,0.256,-0.0844
2785,1130,934,34.706,33.475,-0.0362,0.0039,9.7824,-0.1886,0.4757,0.7916
2790,1126,933,34.669,33.539,0.033,-0.0493,9.7122,-0.6128,-0.6334,-1.416
2795,1125,929,34.66,33.512,0.0481,-0.0574,9.7537,0.9688,0.1089,0.0555
2800,1127,925,34.695,33.564,0.0307,-0.0195,9.8193,0.6634,0.0246,-0.4107
2805,1125,929,34.692,33.568,-0.026,-0.0711,9.8324,0.2551,0.0173,-0.5908
2810,1120,933,34.712,33.58,-0.0686,0.0061,9.8631,0.3461,-0.1401,-0.8632
2815,1124,925,34.708,33.605,0.029,0.0857,9.7819,0.1796,-0.7713,-0.3623
2820,1112,924,34.689,33.463,-0.01,0.0427,9.8161,0.136,0.223,0.0909
2825,1109,920,34.712,33.524,-0.0768,-0.0842,9.8089,-0.5836,0.4715,-0.4868
2830,1097,918,34.788,33.488,0.0918,0.0667,9.8648,0.2854,-0.1651,0.2596
2835,1103,918,34.678,33.553,0.0476,0.12,9.8539,0.4083,-0.053,0.6436
2840,1098,914,34.747,33.618,0.009,0.0492,9.7951,-0.5904,-0.795,0.1157
2845,1100,912,34.732,33.566,-0.0655,0.0142,9.8475,-1.2772,0.37,-0.1958
2850,1095,912,34.692,33.583,0.0006,-0.007,9.7546,0.6625,-0.0452,0.4715
2855,1102,910,34.649,33.485,-0.018,0.114,9.7373,-0.0566,-0.0278,-0.5121
2860,1088,902,34.701,33.492,-0.0071,0.0181,9.7791,-0.3524,0.1781,-0.763
2865,1095,905,34.661,33.508,0.0571,-0.0001,9.847,0.4792,-0.1437,-0.123
2870,1090,910,34.697,33.534,0.0247,-0.042,9.8708,0.4323,-1.2709,-0.1575
2875,1100,898,34.679,33.57,0.0054,0.0327,9.8593,-0.3637,-0.272,0.4934
2880,1087,903,34.611,33.591,-0.0074,0.0908,9.8356,0.1769,-0.564,0.3017
2885,1090,899,34.705,33.573,0.0413,0.0205,9.732,0.2237,0.2441,1.1526
2890,1078,896,34.71,33.568,0.122,-0.0313,9.7908,0.0425,0.2098,0.079
2895,1066,889,34.752,33.549,0.0414,-0.0227,9.8528,0.4659,-0.3683,-0.7991
2900,1076,891,34.691,33.559,-0.1101,-0.038,9.7982,0.3575,0.5336,0.6124
2905,1074,893,34.702,33.549,-0.0368,0.0868,9.7878,0.2355,0.7533,0.6326
2910,1076,890,34.698,33.528,-0.0502,0.006,9.7661,-0.7867,-0.1372,0.4707
2915,1063,879,34.653,33.529,-0.0247,-0.0255,9.8281,0.9163,-0.0876,0.4732
2920,1066,886,34.75,33.573,-0.0535,0.0264,9.7767,0.4121,-0.2999,-0.0415
2925,1062,881,34.659,33.578,-0.0147,-0.0202,9.7807,0.685,-0.348,-0.0295
2930,1059,883,34.753,33.529,-0.016,-0.0313,9.8027,0.6002,0.56,0.05
2935,1069,877,34.705,33.52,0.0339,0.0755,9.841,-0.2099,0.4086,-0.2405
2940,1057,874,34.707,33.547,-0.0294,0.026,9.6862,-0.1611,0.4677,-0.1421
2945,1051,877,34.682,33.553,0.0803,-0.0115,9.8163,0.177,-0.1863,0.6531
2950,1049,875,34.732,33.527,0.048,0.0783,9.7968,0.6414,-0.3168,0.495
2955,1043,869,34.737,33.534,-0.0082,0.0353,9.8417,0.3293,-0.3152,0.1872
2960,1037,875,34.788,33.562,-0.0048,0.0532,9.7826,0.2458,-0.6146,0.5913
2965,1031,866,34.696,33.532,-0.0015,-0.0064,9.8487,0.5401,0.4142,0.1514
2970,1025,866,34.572,33.598,-0.0425,-0.0902,9.8195,-0.1464,-0.7517,-0.6941
2975,1009,864,34.634,33.584,-0.0043,0.0385,9.7727,-0.0338,0.3075,-0.2016
2980,1016,866,34.774,33.582,-0.0263,0.0403,9.9156,-0.3246,0.0277,-0.1887
2985,1010,860,34.734,33.493,-0.0742,0.0167,9.7783,-0.1113,-0.1742,0.3372
2990,1015,857,34.687,33.529,0.0754,-0.0741,9.784,-0.0987,0.1978,0.9506
2995,989,867,34.695,33.606,-0.0003,0.0488,9.8214,-0.1171,-0.2543,0.0925
3000,991,858,34.725,33.442,0.1014,0.0201,9.8493,-0.5007,-0.2852,-0.1625
3005,992,859,34.675,33.5,0.0353,-0.0267,9.7517,-0.1824,-1.3995,-0.3754
3010,989,854,34.623,33.458,0.0342,0.0279,9.8742,-0.789,0.5837,-0.3615
3015,968,856,34.682,33.512,0.0152,0.0012,9.8522,0.1891,-0.0541,0.4099
3020,958,854,34.685,33.457,0.0575,0.057,9.832,-0.1957,0.1372,0.0847
3025,955,846,34.723,33.605,0.0313,-0.0101,9.8016,0.5924,0.2375,-0.145
3030,952,854,34.728,33.488,0.0474,0.0827,9.8129,0.4638,0.5527,-0.5232
3035,936,843,34.68,33.657,0.0616,-0.009,9.8119,0.436,-0.3337,-0.67
3040,931,846,34.663,33.464,0.0342,-0.1423,9.8417,-0.7902,-0.5016,0.4798
3045,927,841,34.714,33.53,-0.0485,-0.013,9.776,-0.8837,0.0419,0.2692
3050,923,839,34.769,33.491,0.0473,0.0695,9.8447,-0.8519,0.4831,0.1601
3055,906,841,34.75,33.526,0.0185,-0.1519,9.6821,0.2525,-0.107,-0.557
3060,895,832,34.635,33.491,0.0459,-0.0975,9.7583,0.123,0.1236,0.0112
3065,898,834,34.666,33.548,0.0136,-0.0179,9.7788,0.4669,0.0457,-0.2543
3070,874,826,34.714,33.51,0.1178,0.0044,9.8236,-0.4089,-0.6353,0.6448
3075,875,827,34.589,33.565,0.0678,-0.0357,9.8321,0.4016,-0.1037,-0.5201
3080,871,825,34.652,33.421,0.0525,0.0362,9.8381,1.1915,0.3808,-0.3987
3085,851,820,34.742,33.504,0.0409,-0.0742,9.8036,0.3447,-0.6728,0.052
3090,847,810,34.696,33.425,-0.0907,-0.0119,9.8665,-0.1875,0.3915,0.3906
3095,842,811,34.64,33.508,-0.1219,-0.0091,9.7922,0.1895,-0.0682,0.1982
3100,834,809,34.627,33.544,-0.0011,-0.031,9.8562,0.0983,0.8874,-0.3826
3105,820,808,34.671,33.552,0.0441,-0.0322,9.7536,0.9102,0.4865,-0.0447
3110,817,799,34.654,33.524,0.0499,-0.0807,9.8306,-0.0545,-0.3525,-0.1507
3115,818,793,34.778,33.581,0.0499,-0.0992,9.775,0.2868,-0.3214,0.6544
3120,803,786,34.557,33.498,-0.044,-0.0431,9.7645,-0.1868,-0.3143,-1.1282
3125,790,788,34.662,33.449,-0.0529,0.0335,9.8263,0.1392,-0.0214,0.5485
3130,795,774,34.783,33.395,-0.0716,0.0034,9.7937,-0.3999,-0.4374,0.3216
3135,786,771,34.62,33.59,-0.0186,-0.0019,9.8068,-0.4344,-0.4153,-0.1358
3140,784,769,34.823,33.508,0.0623,0.0313,9.8294,-0.039,0.3367,0.1513
3145,776,762,34.776,33.704,-0.0713,0.0506,9.8392,-0.2237,-0.6205,0.2695
3150,770,761,34.656,33.544,0.0221,0.0449,9.745,0.9308,0.4172,0.645
3155,763,751,34.805,33.555,-0.0295,-0.0199,9.8873,0.6065,-0.097,0.1223
3160,754,744,34.739,33.523,0.0084,0.0067,9.871,-0.0882,0.1389,0.0795
3165,755,742,34.622,33.499,-0.0459,0.0538,9.7595,0.4596,-0.6061,-0.0296
3170,762,733,34.789,33.686,0.0314,-0.0158,9.8061,-0.2066,-0.4748,0.5015
3175,746,729,34.612,33.591,-0.045,0.002,9.851,-0.5422,0.7164,-0.0257
3180,749,728,34.764,33.647,0.0495,0.0049,9.7814,-0.2293,-0.9185,0.0732
3185,745,721,34.642,33.614,-0.0292,-0.0246,9.8372,0.1466,-0.1419,0.7313
3190,752,716,34.726,33.531,-0.0666,-0.024,9.7835,0.4289,0.4427,-0.1179
3195,732,708,34.714,33.501,0.0304,0.0117,9.7433,0.481,-1.1923,0.8547
3200,750,700,34.846,33.558,-0.0023,0.0074,9.8776,-0.3033,-0.0354,0.0233
3205,748,694,34.728,33.515,0.0166,0.0021,9.8143,0.4551,-0.0218,0.9101
3210,751,693,34.702,33.479,0.0256,-0.0985,9.8394,-0.0346,0.1809,-0.1579
3215,754,681,34.725,33.534,0.0701,0.0534,9.7409,-0.105,-0.322,-0.1309
3220,753,679,34.72,33.599,-0.0264,0.0261,9.7673,1.1024,0.808,0.2385
3225,761,669,34.712,33.477,-0.0647,0.0317,9.7946,-0.5684,-0.0074,0.8768
3230,746,664,34.729,33.675,-0.039,-0.0275,9.7797,0.3021,-0.0362,0.6399
3235,764,668,34.79,33.483,-0.018,0.0068,9.7885,-0.0726,0.4746,0.2532
3240,767,660,34.718,33.592,0.0319,0.0093,9.7787,0.0331,0.0236,-0.166
3245,786,651,34.722,33.453,0.0814,-0.0254,9.8294,0.0396,-0.1452,-0.5504
3250,781,646,34.736,33.45,0.0438,-0.0526,9.8113,1.059,0.6336,0.5504
3255,799,651,34.747,33.464,-0.0503,-0.0571,9.8437,-0.4146,-0.1043,0.1703
3260,791,643,34.688,33.532,-0.0494,0.0165,9.8337,-0.098,-0.4539,0.1806
3265,817,641,34.729,33.582,0.0522,-0.0421,9.8635,0.0451,-0.026,0.1108
3270,822,635,34.702,33.736,-0.0319,-0.1307,9.832,0.4363,0.5088,-0.5958
3275,823,628,34.704,33.474,-0.0056,-0.1239,9.7794,0.2724,0.5538,-0.5571
3280,825,627,34.644,33.53,-0.0021,0.0257,9.7396,0.7893,-0.6353,0.4488
3285,845,632,34.678,33.541,0.0213,-0.0516,9.866,-0.6027,0.7413,0.1138
3290,847,628,34.764,33.483,0.0033,0.1004,9.7456,0.2186,0.35,0.4964
3295,862,622,34.641,33.579,-0.0394,0.0284,9.7411,-0.5934,-0.4694,-0.0327
3300,867,629,34.7,33.526,0.0231,-0.0334,9.8387,0.5462,0.3095,1.1924
3305,879,629,34.746,33.46,-0.0251,0.0295,9.8285,0.2354,0.8913,0.2183
3310,900,624,34.795,33.489,0.0023,-0.0094,9.7603,-0.5364,-0.5901,-0.0533
3315,904,624,34.772,33.46,-0.023,-0.0479,9.7989,-1.0739,0.0723,0.3702
3320,922,625,34.694,33.517,0.0424,-0.1287,9.7857,0.0138,0.4867,-0.4689
3325,930,623,34.792,33.521,-0.0354,-0.0638,9.8002,1.0093,0.7956,-0.6072
3330,933,626,34.735,33.593,0.0655,-0.0291,9.8512,-0.3038,0.9263,0.3201
3335,957,629,34.786,33.582,0.0397,0.0896,9.8241,0.1776,1.2966,-0.5342
3340,960,632,34.712,33.556,-0.0534,-0.012,9.7966,-0.2473,-0.2398,0.0508
3345,970,633,34.671,33.582,0.0627,-0.0015,9.8795,0.5178,-0.6526,0.2061
3350,979,633,34.675,33.572,0.1458,0.0051,9.8614,0.21,-0.9298,-0.1905
3355,996,638,34.729,33.597,-0.0466,0.0341,9.8066,-0.0543,0.3303,-0.7676
3360,1005,646,34.651,33.44,-0.0374,-0.072,9.823,-0.943,0.2839,0.3313
3365,1011,646,34.637,33.487,0.0779,-0.0976,9.7657,-0.3647,0.0667,0.0012
3370,1028,651,34.76,33.519,-0.0308,0.0665,9.7434,-0.5798,-0.5962,-0.2896
3375,1029,656,34.758,33.641,-0.0441,0.0922,9.7889,-0.8094,0.2829,-0.3498
3380,1044,666,34.735,33.541,-0.0191,-0.0187,9.8212,-0.1556,0.4396,-0.8148
3385,1060,671,34.723,33.571,-0.0191,-0.0064,9.8453,0.0823,0.3045,0.3642
3390,1069,671,34.677,33.541,0.0661,0.0049,9.7541,1.2848,-0.2972,0.274
3395,1078,685,34.685,33.548,-0.0239,0.0196,9.8763,0.845,-0.1765,0.8696
3400,1089,689,34.678,33.594,-0.0408,0.143,9.7929,-0.9529,0.3364,0.1354
3405,1104,697,34.738,33.534,-0.0689,0.0247,9.7807,-0.1064,-0.4885,0.2427
3410,1106,701,34.706,33.555,0.0329,0.0117,9.8439,0.1944,-0.2701,-0.0231
3415,1114,719,34.667,33.52,-0.0235,0.0442,9.7873,-0.0314,0.5547,0.0965
3420,1121,717,34.717,33.519,0.006,-0.0314,9.8504,1.3725,0.7453,-0.6225
3425,1126,723,34.708,33.515,0.0157,-0.0536,9.7723,-0.6112,-0.0745,0.5455
3430,1143,739,34.665,33.602,0.0227,-0.056,9.8238,0.4684,-0.7505,0.4293
3435,1146,742,34.654,33.565,-0.0146,-0.0339,9.8078,0.8668,-0.0943,0.5949
3440,1147,754,34.661,33.545,-0.0296,0.0092,9.7828,-0.9973,-0.7078,-0.0183
3445,1159,759,34.661,33.589,0.0528,-0.001,9.8292,-0.1512,-0.6395,-0.4557
3450,1159,767,34.702,33.494,0.0323,-0.0513,9.7724,-0.4043,-1.2394,0.0548
3455,1161,773,34.653,33.597,-0.0598,-0.0114,9.7671,-0.7867,-0.5928,-0.5341
3460,1180,778,34.648,33.56,0.0384,0.0557,9.7671,-0.252,-0.0448,0.0357
3465,1166,789,34.733,33.598,-0.0136,0.0341,9.9059,0.9067,-0.4502,0.1642
3470,1164,800,34.679,33.583,-0.0275,-0.0874,9.792,0.2606,-0.3647,0.1416
3475,1176,812,34.678,33.579,0.1078,-0.0786,9.7324,-0.418,-0.2096,-0.8218
3480,1189,819,34.599,33.541,0.018,0.0896,9.8297,-0.6279,0.5808,-0.6326
3485,1182,824,34.635,33.623,0.0022,0.0343,9.8039,0.1118,0.8738,0.0292
3490,1188,828,34.71,33.51,-0.0021,0.0091,9.7763,0.3072,0.824,0.226
3495,1183,838,34.758,33.455,0.0327,0.0064,9.7926,-0.3182,0.5542,-0.057
3500,1190,838,34.645,33.527,0.0388,-0.0286,9.78,-0.3417,-0.0928,0.7579
3505,1179,849,34.75,33.527,0.0039,-0.0915,9.8575,-0.6158,-0.4055,-0.4583
3510,1187,857,34.705,33.596,-0.0104,-0.079,9.8609,-0.7755,-0.2257,-0.2372
3515,1187,862,34.748,33.512,0.0093,-0.0539,9.7548,1.0027,-0.5835,-0.385
3520,1177,872,34.689,33.526,0.0237,-0.0139,9.7667,0.3838,0.3972,0.0617
3525,1183,870,34.747,33.525,-0.0633,-0.0694,9.8836,-0.0146,1.0308,-0.6194
3530,1182,877,34.791,33.56,0.014,-0.0127,9.768,0.7559,0.5771,-0.2916
3535,1179,889,34.721,33.493,-0.0033,0.0131,9.8333,0.0443,0.0283,0.5807
3540,1180,894,34.768,33.64,0.0406,0.0268,9.8735,-0.1761,-0.2016,1.1831
3545,1172,892,34.766,33.541,-0.0574,-0.0037,9.8217,-0.1791,-0.1508,0.0273
3550,1180,903,34.721,33.451,0.0324,-0.0743,9.7911,0.343,0.2372,-0.6257
3555,1178,900,34.779,33.517,0.0236,-0.0389,9.7829,0.2454,-0.0901,0.108
3560,1168,913,34.772,33.485,0.0446,0.0224,9.8603,-0.6802,-0.5281,-0.858
3565,1163,910,34.627,33.562,-0.0234,-0.062,9.8143,-0.2458,0.439,0.4436
3570,1162,915,34.645,33.557,0.024,0.0175,9.7902,0.1626,0.5486,0.3457
3575,1162,915,34.66,33.506,0.0503,0.0183,9.9335,-0.4549,-0.2662,0.1326
3580,1164,919,34.759,33.533,0.0128,-0.0431,9.8333,0.4812,-0.0136,0.5833
3585,1163,922,34.607,33.581,-0.0987,-0.0291,9.7445,-1.1055,-0.432,0.2092
3590,1144,930,34.758,33.582,-0.0568,0.0081,9.7401,-0.658,-0.5467,0.3702
3595,1152,925,34.678,33.571,-0.0372,-0.0618,9.8133,-1.1187,-0.0883,-0.2965
3600,1144,932,34.66,33.484,0.0747,0.0278,9.7956,-0.177,0.1137,-0.1021
3605,1142,925,34.769,33.533,-0.0239,0.0238,9.742,-0.5205,0.4028,0.3144
3610,1145,931,34.678,33.51,0.073,-0.0896,9.8515,-0.3053,-0.7505,0.2637
3615,1143,932,34.663,33.515,0.0373,-0.0822,9.7169,-0.1461,-0.1287,0.8501
3620,1134,936,34.809,33.508,-0.0245,0.0726,9.8519,-0.4047,0.1411,-0.2392
3625,1132,932,34.719,33.57,-0.046,0.0386,9.8788,-0.2813,0.613,0.3423
3630,1136,927,34.743,33.61,-0.0048,-0.0559,9.9106,0.1922,0.4136,-0.2352
3635,1137,936,34.808,33.581,0.026,0.0145,9.7731,-0.3662,0.5268,-0.4971
3640,1124,931,34.661,33.536,-0.0126,0.0385,9.8324,-0.4646,0.0939,0.3664
3645,1122,933,34.708,33.488,-0.0201,0.0342,9.8358,0.4707,-0.9725,1.0356
3650,1119,931,34.783,33.526,0.0944,0.0259,9.7799,-0.1738,0.2486,-0.2761
3655,1109,924,34.704,33.581,-0.0639,0.0802,9.8214,0.1726,0.451,-0.1236
3660,1113,929,34.642,33.544,-0.0637,-0.0222,9.742,0.613,-0.9115,0.4912
3665,1101,926,34.657,33.435,-0.0227,-0.0702,9.7549,-0.4464,-0.0773,0.2386
3670,1099,915,34.722,33.555,-0.0128,0.0292,9.7885,-0.6837,-0.0629,-0.5725
3675,1108,922,34.742,33.549,0.0895,0.0435,9.8327,-0.3544,0.4474,0.179
3680,1097,922,34.698,33.506,0.0137,0.0611,9.849,0.444,0.8378,0.1122
3685,1090,917,34.649,33.512,-0.0254,-0.0601,9.8397,0.3286,0.3539,0.1196
3690,1098,908,34.786,33.543,-0.1059,0.0885,9.8456,0.0468,0.14,-0.1595
3695,1096,908,34.64,33.569,0.0219,-0.0013,9.8104,-0.2086,-0.1764,0.1262
3700,1094,910,34.826,33.553,0.0631,0.0753,9.7986,-0.2182,-0.0466,0.4359
3705,1092,908,34.72,33.558,-0.0014,-0.0358,9.8127,0.5866,-0.1816,0.0186
3710,1099,902,34.717,33.57,0.0665,-0.038,9.8179,0.0042,0.9242,0.2604
3715,1094,904,34.681,33.549,0.0126,-0.014,9.8222,0.5339,-0.2504,0.3254
3720,1089,904,34.9,33.458,-0.0014,0.0292,9.7854,0.6346,0.2953,0.0667
3725,1082,900,34.632,33.608,0.1555,-0.0253,9.5809,0.5034,-0.2313,-0.5561
3730,1090,896,34.728,33.536,0.1256,-0.0878,9.8406,-0.513,-0.0153,-0.1436
3735,1085,899,34.686,33.495,0.0118,-0.0242,9.8445,-1.1859,-0.1783,0.0675
3740,1090,895,34.649,33.479,-0.0195,0.0136,9.8409,-0.2798,0.1635,-0.3073
3745,1084,889,34.682,33.452,0.0496,-0.0249,9.8237,-0.7087,0.6809,0.0987
3750,1074,891,34.747,33.566,0.0075,-0.086,9.8644,-0.2557,-0.6044,1.0678
3755,1081,883,34.709,33.503,-0.0606,0.0168,9.8679,-1.1335,0.4825,-0.8184
3760,1068,884,34.778,33.593,-0.04,0.0601,9.7903,0.0609,-0.1972,-0.6797
3765,1066,882,34.709,33.476,-0.0169,-0.0225,9.8436,0.0295,-0.3764,0.8049
3770,1055,882,34.697,33.548,-0.022,0.0026,9.8286,0.3687,0.4303,0.711
3775,1063,882,34.716,33.551,0.0369,-0.0154,9.7674,-0.2934,-0.9164,0.4014
3780,1064,881,34.683,33.53,-0.0249,0.0254,9.7725,-0.0334,0.3157,-0.6234
3785,1055,874,34.708,33.578,0.0833,-0.0191,9.834,0.3451,1.0351,0.4441
3790,1054,878,34.722,33.507,-0.0564,0.007,9.8131,0.1395,-0.2818,-0.0453
3795,1051,878,34.802,33.428,0.0348,0.008,9.774,0.2845,0.1991,-0.3458
3800,1040,868,34.712,33.423,-0.0501,0.0445,9.9126,-0.3984,-0.4708,0.459
3805,1028,869,34.716,33.544,-0.0701,0.0154,9.7764,0.0286,-0.1657,-0.7457
3810,1021,872,34.743,33.592,0.0408,-0.0373,9.7519,-0.9046,-0.1823,-0.3496
3815,1034,869,34.72,33.554,0.0418,0.0848,9.8095,0.5877,-0.3019,0.3919
3820,1021,870,34.697,33.547,0.0085,0.1397,9.8515,-0.1672,-0.6358,-0.7448
3825,1011,870,34.657,33.525,-0.0345,-0.018,9.7985,-0.0901,0.3046,-0.4386
3830,1018,858,34.754,33.573,-0.0084,-0.0086,9.8258,0.2545,-0.2297,-0.0299
3835,1001,861,34.661,33.49,-0.0196,0.0229,9.7822,0.5314,-0.1353,-0.4886
3840,995,863,34.735,33.576,0.0278,-0.0355,9.8057,0.2605,-0.3855,-1.2671
3845,992,861,34.678,33.532,0.0272,-0.0361,9.7718,0.8409,-0.5794,-0.0753
3850,981,862,34.718,33.606,0.0156,-0.0413,9.7947,-0.0642,-0.4758,-0.2343
3855,970,857,34.615,33.519,0.0067,-0.0493,9.8235,-0.0201,-0.1953,-0.44
3860,974,859,34.661,33.635,0.0188,-0.0966,9.8475,-0.0078,0.1627,-0.1445
3865,954,861,34.744,33.58,-0.0164,0.0008,9.7825,0.3289,-0.2378,0.636
3870,950,855,34.76,33.562,-0.0075,0.0747,9.7915,-0.727,-0.059,-0.0248
3875,954,847,34.693,33.559,-0.0206,0.0385,9.8452,-0.4682,0.5462,1.3068
3880,939,848,34.794,33.516,0.0266,-0.0597,9.8306,0.5888,-0.5092,-0.4754
3885,927,848,34.656,33.508,-0.0527,0.1231,9.8905,0.579,-0.0072,-0.3505
3890,921,835,34.702,33.597,0.0095,-0.1028,9.7482,-0.1886,0.3279,0.0719
3895,913,842,34.75,33.561,0.0643,-0.0528,9.8833,-0.0183,0.0173,0.0634
3900,914,834,34.678,33.518,-0.0027,0.0218,9.8712,-0.4165,-0.6628,0.3835
3905,892,835,34.637,33.492,0.0207,-0.031,9.8319,-0.2975,0.8236,-0.1928
3910,879,836,34.702,33.553,0.0092,-0.0309,9.7583,-0.6936,-0.1548,-0.3
3915,869,829,34.732,33.539,-0.033,-0.1151,9.8497,0.1619,-0.5118,-0.2399
3920,880,821,34.723,33.564,0.0304,0.0023,9.8071,0.0736,-0.5504,0.0472
3925,863,829,34.648,33.527,-0.0162,0.0308,9.6783,1.168,-0.5348,0.0432
3930,855,818,34.647,33.484,-0.0092,-0.0047,9.6911,0.1274,-0.2561,0.9525
3935,845,814,34.738,33.572,0.022,0.0173,9.7933,-0.0824,-0.0313,1.6413
3940,840,811,34.729,33.562,-0.0317,-0.0637,9.8317,-0.4747,0.0528,0.0375
3945,838,810,34.658,33.509,0.0258,-0.0325,9.7814,0.6088,0.0133,-0.3808
3950,827,805,34.733,33.554,-0.0046,-0.003,9.7895,0.1971,-0.5325,-0.4802
3955,811,803,34.613,33.54,-0.0503,-0.0558,9.782,0.0141,-0.0858,-0.0374
3960,809,797,34.69,33.541,-0.0427,0.0082,9.8395,-0.2476,0.2913,0.8511
3965,789,795,34.715,33.601,0.0974,-0.0418,9.8196,0.0592,0.1288,-0.13
3970,798,779,34.746,33.631,0.0218,0.013,9.8978,0.1825,-0.3231,0.4095
3975,790,777,34.617,33.535,-0.0292,-0.0251,9.9296,-0.2583,0.416,-0.1145
3980,785,775,34.694,33.483,0.0004,0.0434,9.8352,0.5586,0.3225,-0.4785
3985,773,762,34.7,33.511,-0.0687,-0.0277,9.7363,-1.0234,-0.4082,-0.3497
3990,781,763,34.616,33.542,-0.0161,-0.0356,9.8473,-0.3806,-0.1506,-0.2247
3995,771,761,34.682,33.485,0.0272,-0.0044,9.8186,0.9745,-0.4543,-0.1836
4000,769,752,34.66,33.568,0.0157,-0.0276,9.7604,-0.2231,-0.5331,-0.1501
4005,754,749,34.717,33.505,-0.0208,0.0164,9.801,-0.7654,0.8048,0.0334
4010,754,739,34.706,33.56,0.0327,0.1026,9.8502,0.4632,0.93,0.158
4014,742,735,34.677,33.538,0.0848,-0.0609,9.8434,-0.2618,0.3112,-1.2252
4019,743,729,34.653,33.528,-0.0021,0.0396,9.8673,1.0389,-0.1073,-0.4051
4025,747,723,34.779,33.425,0.0492,-0.0285,9.791,1.5909,0.1655,0.4233
4030,748,716,34.759,33.551,-0.04,-0.003,9.7978,-0.1595,-0.0318,-0.3497
4035,747,706,34.68,33.474,-0.0111,0.0121,9.7126,0.4873,-0.0907,0.7608
4040,747,707,34.733,33.494,0.0698,-0.092,9.79,-0.2336,-1.0033,0.7209
4045,749,703,34.757,33.53,-0.0134,-0.0255,9.8146,0.5813,-0.0265,0.5179
4050,754,696,34.679,33.555,0.0325,-0.0301,9.7697,0.37,0.5523,0.3486
4054,752,688,34.671,33.522,-0.0058,-0.0106,9.7187,-0.1918,-0.1758,1.2265
4059,756,682,34.688,33.557,0.0355,0.0685,9.8567,-0.5612,0.3212,0.3082
4065,761,674,34.708,33.653,-0.0041,-0.012,9.8075,0.1086,-0.5621,0.1229
4070,762,678,34.711,33.59,-0.0566,0.0157,9.7976,-0.1479,0.2767,-0.3844
4075,761,666,34.586,33.58,-0.1272,0.1392,9.7827,-0.4104,-0.1466,0.1433
4080,768,663,34.641,33.573,-0.0035,-0.0067,9.7752,-0.3996,0.7082,-0.7844
4085,775,656,34.7,33.583,-0.048,-0.0006,9.8642,0.272,-0.0301,0.2957
4090,779,656,34.764,33.538,-0.0117,0.0231,9.8302,-0.915,-0.9501,-0.1056
4094,793,645,34.798,33.536,-0.0343,0.0142,9.9077,0.3828,0.1611,-0.1811
4100,790,646,34.763,33.582,0.0328,-0.0414,9.7506,-0.2358,0.7784,0.6072
4105,796,639,34.646,33.515,0.0594,-0.0832,9.7928,0.0091,-0.1143,0.3159
4110,817,634,34.631,33.556,0.0259,-0.0219,9.7211,-0.3522,-0.6656,0.4625
4115,810,631,34.7,33.588,0.0494,0.0361,9.8201,0.0601,-0.031,-0.6976
4120,826,633,34.617,33.571,0.0023,0.0646,9.7668,-0.2307,0.0199,0.0924
4125,832,632,34.728,33.532,0.0727,-0.0344,9.6891,-0.4877,0.5859,-0.152
4130,843,629,34.759,33.577,0.0159,-0.0218,9.7528,-0.0706,0.4538,0.3868
4135,863,625,34.714,33.519,-0.0591,-0.0442,9.8008,0.3675,0.5892,-0.0313
4140,864,621,34.716,33.587,0.0198,0.0365,9.779,1.1404,-0.2508,-0.4722
4145,880,626,34.709,33.512,0.0437,-0.0108,9.7296,0.2522,0.6886,0.0802
4150,878,623,34.736,33.533,0.0277,-0.0325,9.8304,0.2607,0.1799,-0.3969
4155,902,623,34.755,33.528,-0.0172,0.0551,9.8337,-0.667,1.052,-0.108
4160,916,622,34.689,33.473,0.0327,-0.0443,9.757,0.3518,-0.0809,-0.2228
4165,914,625,34.656,33.51,-0.1251,0.1457,9.7756,0.2867,0.7634,0.6289
4170,931,625,34.659,33.596,0.0102,0.041,9.793,-0.0284,-0.5655,0.274
4175,932,631,34.614,33.567,0.0416,-0.0684,9.7647,-0.2572,-0.1429,0.0046
4180,958,628,34.741,33.566,-0.0506,-0.0031,9.8053,-0.0893,-0.6729,0.036
4185,967,631,34.711,33.565,-0.0231,0.0869,9.7761,-0.7917,-0.0184,0.7664
4190,976,638,34.739,33.548,-0.0053,0.0471,9.8531,0.682,1.2936,0.2284
4195,992,642,34.689,33.51,0.0452,0.0081,9.8262,-0.3615,0.42,-1.2448
4200,991,642,34.721,33.499,0.0439,-0.1454,9.8719,-0.3078,-0.1076,-0.8916
4205,1003,648,34.8,33.579,0.0793,0.0236,9.7779,0.173,-0.6193,0.3272
4210,1031,648,34.605,33.606,-0.1078,-0.0061,9.8196,0.6446,-0.0954,0.1226
4215,1027,654,34.707,33.506,0.0847,0.002,9.8275,0.3216,0.8265,0.0378
4220,1041,662,34.792,33.591,-0.0226,0.0307,9.8555,-0.0463,0.3992,-0.4407
4225,1058,669,34.678,33.591,-0.0368,-0.0895,9.7953,0.528,0.1702,0.2683
4230,1065,672,34.656,33.476,-0.013,-0.0302,9.9735,-1.0051,-0.3637,-0.0265
4235,1062,673,34.712,33.541,-0.1279,0.15,9.7745,0.984,0.3226,-0.5694
4240,1072,689,34.72,33.489,0.0031,-0.0225,9.8746,0.7108,-0.3736,-0.4482
4245,1091,700,34.699,33.55,-0.0301,-0.05,9.8956,-0.3644,0.2947,0.6382
4250,1095,698,34.619,33.535,-0.0113,-0.0272,9.8763,-0.6357,-0.2706,-0.2891
4255,1109,705,34.705,33.551,0.0549,0.0289,9.7249,-0.0213,0.0486,-0.6707
4260,1116,710,34.808,33.542,-0.0116,-0.0021,9.7869,-0.6884,0.0852,0.4523
4265,1126,716,34.613,33.607,0.0486,-0.0177,9.8153,0.0588,-0.7,-1.2848
4270,1135,726,34.705,33.544,0.0445,0.0935,9.8613,0.5251,0.2138,-0.1446
4275,1136,737,34.763,33.602,-0.0744,-0.0356,9.7983,-0.3942,-0.875,0.2684
4280,1142,737,34.745,33.493,0.0197,0.0245,9.765,-0.5064,0.4348,0.3179
4285,1156,751,34.7,33.506,0.043,-0.0797,9.8857,-0.2118,0.3469,-0.2111
4290,1158,761,34.719,33.536,-0.0129,0.0947,9.8057,0.0951,-0.2684,0.7362
4295,1167,770,34.722,33.588,-0.0403,-0.0927,9.7806,-1.2166,-0.1585,0.2045
4300,1168,777,34.627,33.509,-0.0249,0.013,9.8053,0.0056,-0.2706,0.1702
4305,1179,783,34.703,33.544,-0.0718,-0.1057,9.7791,-0.2426,0.4663,-0.1451
4310,1168,792,34.657,33.552,0.0275,0.0114,9.7902,0.1289,0.0117,0.3526
4315,1169,794,34.711,33.572,0.0258,0.0164,9.8477,0.4343,0.2853,0.3643
4320,1175,801,34.742,33.618,0.0519,-0.0225,9.6981,0.1779,-0.8042,0.4418
4325,1182,814,34.712,33.527,0.0865,0.0189,9.7734,0.4719,0.8288,0.2496
4330,1188,819,34.682,33.554,0.0381,-0.0047,9.7768,-0.1425,-0.597,-0.9854
4335,1184,828,34.715,33.554,0.0235,0.072,9.7335,-0.4357,-0.8623,-0.469
4340,1180,835,34.673,33.529,-0.0296,0.0246,9.7861,0.1483,-0.3445,0.2873
4345,1194,839,34.696,33.462,-0.0951,0.0813,9.7916,0.0467,0.2095,-0.285
4350,1187,851,34.665,33.53,-0.0311,-0.0067,9.8869,0.0353,0.6233,1.1097
4355,1195,853,34.723,33.53,0.0528,0.0068,9.8376,0.1827,0.5311,-0.1153
4360,1176,866,34.738,33.556,0.0168,0.0267,9.7761,0.1677,0.4672,0.6944
4365,1189,868,34.609,33.525,-0.001,-0.0009,9.7574,-1.0942,-0.3951,-0.1166
4370,1182,876,34.663,33.556,0.1098,0.055,9.8048,-0.5749,0.7083,-0.5413
4375,1188,883,34.709,33.484,0.0112,-0.0154,9.7546,0.0447,0.0674,-0.0382
4380,1179,889,34.653,33.601,-0.1025,0.0847,9.8127,-0.3605,-0.2491,0.0675
4385,1179,887,34.805,33.513,0.0304,0.0122,9.7935,-0.5789,-0.2563,-0.7389
4390,1175,898,34.679,33.572,0.0816,0.0109,9.8026,0.5074,1.3188,-0.6271
4395,1180,896,34.753,33.56,-0.03,0.0091,9.8677,-0.5964,0.036,0.5883
4400,1170,906,34.755,33.554,-0.0189,-0.0192,9.7728,0.4704,0.3841,0.2502
4405,1172,908,34.711,33.535,-0.0519,-0.0039,9.7096,1.0113,0.2009,0.112
4410,1173,913,34.791,33.588,-0.0506,-0.005,9.7803,-0.9599,-1.0913,-0.4423
4415,1170,915,34.754,33.579,0.0455,0.0789,9.8688,0.9447,0.4461,0.9286
4420,1167,919,34.721,33.588,-0.0408,-0.0029,9.7992,0.5077,-0.1824,0.6454
4425,1171,922,34.628,33.558,0.0795,-0.125,9.7806,0.6282,0.9369,-0.1816
4430,1159,922,34.697,33.556,0.0715,-0.0023,9.8131,-0.2821,-0.4354,0.4935
4435,1154,925,34.653,33.481,0.0014,0.0287,9.8167,0.4069,0.2977,-0.148
4440,1147,931,34.685,33.522,-0.0211,0.0354,9.8603,-0.7158,-0.777,0.434
4445,1154,930,34.65,33.455,0.0368,0.0274,9.8141,0.7023,0.2393,-0.8324
4450,1138,929,34.618,33.491,-0.0315,0.0041,9.8086,0.1953,-0.4464,-0.3637
4455,1135,927,34.735,33.611,-0.0034,0.0159,9.8453,-0.5244,-0.0989,0.1861
4460,1140,934,34.692,33.494,0.0253,0.0736,9.7411,0.2053,-0.5992,-0.5294
4465,1136,934,34.776,33.521,-0.0084,-0.046,9.7439,0.1541,-0.0897,-0.2122
4470,1132,935,34.775,33.537,-0.0395,-0.0959,9.7561,0.707,0.0161,-0.3466
4475,1129,930,34.713,33.549,-0.0475,0.0905,9.8727,-0.4778,0.9691,-0.7133
4480,1130,933,34.659,33.495,-0.0201,-0.0728,9.8043,0.2466,0.2963,0.0781
4485,1121,929,34.67,33.619,-0.0439,0.019,9.7851,1.0972,0.0067,-0.7331
4490,1120,926,34.654,33.596,-0.0033,0.0269,9.7503,0.9429,-0.3892,0.295
4495,1110,929,34.749,33.516,0.0656,0.0043,9.7534,-0.9375,-0.0394,-0.9209
4500,1119,924,34.702,33.636,-0.0783,0.0306,9.8162,0.0023,-0.106,0.1245
4505,1108,923,34.777,33.54,0.0438,-0.0097,9.7802,-0.4989,-0.8267,-0.591
4510,1110,920,34.689,33.579,-0.0184,0.1229,9.7334,-0.073,0.2819,0.2568
4515,1108,924,34.702,33.575,0.0004,-0.0085,9.8659,-0.2693,-0.009,-0.017
4520,1102,919,34.72,33.614,0.0041,-0.0095,9.7703,0.403,0.2457,0.3504
4525,1103,915,34.691,33.505,0.0015,0.0969,9.757,1.1254,1.4711,0.6682
4530,1097,911,34.8,33.553,0.1015,-0.0257,9.7836,-0.3207,0.6534,-0.0988
4535,1098,913,34.78,33.54,0.0886,-0.0766,9.7939,0.5688,0.0987,-0.4114
4540,1104,909,34.696,33.698,-0.0143,0.0318,9.7674,-0.0033,0.472,0.8455
4545,1103,908,34.74,33.538,-0.099,-0.1258,9.8241,-0.1124,-0.3,0.3166
4550,1090,909,34.629,33.576,-0.0148,-0.0126,9.8413,0.2108,-0.0127,0.62
4555,1090,898,34.721,33.537,-0.1367,0.0121,9.901,-0.8703,0.4411,-0.4546
4560,1089,905,34.688,33.58,-0.0277,0.0358,9.7843,0.0287,0.4706,-0.36
4565,1082,903,34.747,33.503,-0.0509,-0.028,9.7809,-0.4818,0.9745,-0.2061
4570,1089,896,34.683,33.517,-0.0704,0.0871,9.8356,-0.9416,-0.2141,0.8024
4575,1082,901,34.732,33.461,0.0219,-0.0869,9.6623,0.1315,-0.5502,0.6108
4580,1081,893,34.663,33.513,-0.0133,-0.0022,9.8352,0.0559,0.6583,0.2013
4585,1078,888,34.763,33.548,0.0414,-0.0018,9.8097,0.5796,0.0948,0.1985
4590,1082,893,34.727,33.585,0.0453,0.0157,9.82,-0.1137,-0.488,-0.2586
4595,1076,884,34.742,33.563,0.0281,0.0985,9.7852,0.4884,-0.7534,0.065
4600,1075,882,34.805,33.527,-0.1162,-0.0689,9.8215,-0.3223,-0.8592,0.4559
4605,1070,884,34.657,33.513,-0.0371,0.0219,9.7961,0.1073,0.4028,0.5282
4610,1065,881,34.733,33.533,-0.0725,-0.0242,9.8131,0.5085,0.6137,0.6822
4615,1061,880,34.702,33.495,-0.0181,-0.0336,9.7411,-0.106,-0.2692,0.713
4620,1058,886,34.676,33.566,0.002,0.0372,9.7698,0.3479,-0.1594,0.5559
4625,1047,876,34.733,33.517,-0.063,0.0262,9.84,0.0997,0.6033,0.1881
4630,1059,875,34.763,33.504,0.0172,-0.0221,9.8066,0.841,0.456,0.0813
4635,1048,881,34.784,33.516,-0.0181,0.0152,9.8281,0.4638,-1.1036,-0.0408
4640,1043,876,34.67,33.528,0.0397,0.0181,9.7256,0.1524,-0.4144,0.4795
4645,1044,872,34.732,33.542,-0.1213,-0.0243,9.7907,0.4657,0.8985,-0.1496
4650,1045,871,34.714,33.556,-0.0139,-0.0392,9.7806,0.091,0.0413,-0.2288
4655,1030,869,34.765,33.535,0.015,-0.0279,9.9021,-0.2194,-0.5866,0.2821
4660,1026,870,34.681,33.586,-0.0039,-0.0101,9.8536,-0.1013,-0.6288,-0.3162
4665,1018,863,34.698,33.476,-0.0331,-0.018,9.7424,0.5514,0.2335,-0.4563
4670,1014,863,34.787,33.545,-0.0301,0.0821,9.792,-0.0434,-0.0916,0.0589
4675,1005,861,34.727,33.625,-0.077,0.0678,9.8219,0.1294,0.4681,0.3698
4680,1002,863,34.727,33.594,-0.0198,0.0778,9.7939,0.0596,0.2033,-1.277
4685,998,859,34.713,33.493,-0.0052,0.02,9.7847,-0.1944,-0.8701,-0.5012
4690,993,861,34.675,33.555,0.0355,0.006,9.872,0.0663,-0.2164,-0.2118
4695,982,856,34.751,33.58,-0.0062,-0.0055,9.8494,-0.2616,-0.0093,0.0999
4700,982,850,34.741,33.542,-0.0896,0.0022,9.8075,-0.2834,-0.2196,0.7524
4705,977,856,34.675,33.583,-0.036,0.0885,9.8706,0.0724,0.4133,-0.5598
4710,967,854,34.697,33.502,0.0103,0.0222,9.7615,0.6052,0.1322,-0.3879
4715,957,854,34.754,33.563,0.0652,-0.007,9.807,0.7,-0.0761,-0.4644
4720,950,844,34.739,33.564,-0.001,-0.0266,9.7608,-0.4315,-0.3625,0.3077
4725,940,846,34.75,33.533,0.0401,-0.0687,9.8046,-0.817,-0.495,0.3776
4730,920,844,34.737,33.58,-0.0645,-0.0362,9.8385,-0.002,0.3546,-0.7833
4735,925,844,34.743,33.539,-0.0004,-0.027,9.7871,0.0125,0.1752,0.1275
4740,914,839,34.77,33.415,0.029,0.0041,9.7909,-0.6535,0.0548,-0.1325
4745,892,838,34.721,33.574,-0.0024,-0.0327,9.8211,0.1653,0.0767,0.1704
4750,895,828,34.676,33.621,0.0211,0.003,9.8674,0.7191,-0.8147,-0.3419
4755,891,834,34.764,33.551,-0.0288,0.0783,9.8621,-0.8525,-0.8083,0.454
4760,884,829,34.652,33.48,0.0909,0.025,9.8335,0.2055,0.6163,0.4782
4765,875,827,34.745,33.641,-0.0477,0.002,9.7806,0.1226,0.2859,0.4298
4770,851,822,34.736,33.549,-0.0458,-0.0724,9.8011,-0.3202,0.0287,0.5334
4775,856,813,34.712,33.633,0.0272,0.0339,9.8423,-1.6126,0.0016,0.1389
4780,843,815,34.769,33.574,0.0081,0.0756,9.8513,0.5346,0.2943,0.0358
4785,835,806,34.667,33.519,-0.1101,0.0143,9.9294,1.0693,-0.3945,-0.5881
4790,832,804,34.72,33.547,-0.0499,0.0199,9.8223,-0.1717,-1.3917,-0.5462
4795,827,804,34.736,33.607,0.0098,-0.0162,9.8715,-0.0411,0.4698,0.2495
4800,820,801,34.727,33.529,0.0194,0.0537,9.8439,-0.9656,0.3878,-0.299
4805,805,792,34.67,33.5,-0.0239,-0.0223,9.8186,0.1233,-0.2155,0.2565
4810,798,787,34.725,33.595,0.0107,-0.0476,9.832,0.4697,-0.0658,-0.0103
4815,796,781,34.708,33.471,-0.0173,-0.0146,9.8287,-0.2416,0.33,-0.9411
4820,785,779,34.675,33.629,0.0461,-0.0001,9.7742,-0.5398,-0.5068,0.0105
4825,777,778,34.749,33.578,0.0656,-0.0149,9.8214,-0.2317,0.5232,0.2272
4830,786,771,34.789,33.523,0.0281,-0.083,9.7528,-0.0637,0.9253,-0.3251
4835,769,768,34.701,33.597,0.0691,0.0021,9.7548,-0.0315,0.571,0.3789
4840,761,757,34.724,33.693,-0.0279,0.0179,9.8118,0.1344,0.399,-0.9233
4845,767,746,34.694,33.616,0.013,0.0452,9.8259,0.3248,-0.0404,-1.0981
4850,759,746,34.64,33.577,0.074,-0.0285,9.7397,0.8488,-0.3339,-0.5467
4855,755,739,34.726,33.457,0.1038,0.0223,9.773,-0.5237,0.5157,0.0613
4860,749,735,34.715,33.59,-0.0287,-0.0106,9.7995,-0.0828,-0.2578,-0.0957
4865,747,729,34.728,33.594,-0.1023,-0.0204,9.8447,0.36,0.3167,0.872
4870,752,722,34.584,33.532,0.1019,0.0321,9.8559,-0.9549,-0.1027,-0.1216
4875,754,717,34.698,33.538,0.0112,0.0361,9.7532,-0.6252,0.0942,-0.7607
4880,739,713,34.651,33.578,0.0037,-0.0301,9.7839,0.4403,0.5255,0.4608
4885,755,703,34.701,33.554,0.1323,-0.0017,9.8116,-0.5531,0.0275,-0.4588
4890,749,700,34.84,33.557,-0.0398,0.0063,9.895,-0.2467,1.3661,0.8481
4895,760,696,34.703,33.543,-0.008,-0.0367,9.8155,-0.5009,-0.5682,-0.4672
4900,754,685,34.662,33.516,0.0264,-0.0232,9.7883,-0.3279,0.3736,0.1723
4905,755,678,34.679,33.494,0.034,0.0164,9.8626,0.5691,0.0605,0.0838
4910,763,675,34.778,33.559,0.0072,-0.0752,9.8549,-0.4681,-0.1481,-0.0657
4915,764,666,34.676,33.578,0.0571,0.0556,9.8605,-0.09,0.0269,-0.2083
4920,771,664,34.671,33.559,-0.0227,0.0602,9.8504,-0.6635,0.0225,-0.0252
4925,765,667,34.696,33.524,-0.1021,-0.0803,9.7731,0.332,-0.3492,0.3081
4930,774,654,34.659,33.603,-0.089,-0.0168,9.765,0.6262,-0.2045,0.4606
4935,782,649,34.785,33.622,-0.0576,-0.0006,9.8548,0.3607,-0.3764,-0.3039
4940,795,652,34.707,33.466,0.0018,-0.1003,9.8014,-0.136,0.133,-0.0392
4945,801,646,34.625,33.469,-0.0839,0.0682,9.7754,0.1164,-0.5463,-0.2737
4950,804,643,34.728,33.58,0.0224,0.0098,9.7753,-0.5176,-0.8423,-0.0564
4955,815,636,34.747,33.477,0.0366,0.0119,9.8092,-1.2559,0.2409,-0.1965
4960,811,634,34.673,33.407,0.0592,0.0209,9.8295,1.0298,0.2348,-0.5273
4965,832,632,34.739,33.553,0.0599,0.1097,9.838,-0.6205,0.1612,1.0746
4970,837,629,34.658,33.648,-0.0153,-0.0981,9.8728,0.1139,0.5531,-0.3332
4975,849,627,34.702,33.628,0.0346,0.0632,9.8536,-0.3041,0.6431,0.1068
4980,854,627,34.71,33.464,0.0247,0.0521,9.8702,-0.2512,-0.3968,0.0544
4985,862,625,34.689,33.498,-0.0052,-0.0679,9.8181,0.1469,-0.6573,-0.6296
4990,878,625,34.772,33.47,0.0018,-0.0484,9.8427,-0.7425,0.9387,1.1856
4995,890,628,34.695,33.583,-0.0987,-0.0146,9.8449,-0.2985,-0.1359,0.6031
5000,899,626,34.742,33.594,-0.0212,-0.0629,9.8734,0.2005,-0.8612,-0.6964
5005,905,624,34.751,33.328,-0.001,0.0459,9.8401,0.6539,-0.3115,0.2781
5010,927,627,34.739,33.606,0.0952,-0.0449,9.799,0.2064,0.3553,-0.328
5015,917,633,34.719,33.57,0.0198,-0.0229,9.8103,-0.2383,-0.3333,0.6054
5020,946,627,34.713,33.617,0.0363,0.0785,9.7418,-0.2669,-0.2606,0.2952
5025,962,630,34.776,33.527,-0.0402,-0.0528,9.8932,-0.2564,0.1657,-0.5542
5030,967,630,34.761,33.541,-0.0156,-0.0453,9.7762,-0.611,0.2558,-0.6743
5035,969,633,34.625,33.612,0.0096,0.0333,9.7859,0.0935,-0.8991,-0.4917
5040,993,642,34.689,33.619,0.0721,-0.0317,9.7302,0.4331,0.1407,-0.3485
5045,1003,639,34.665,33.594,0.0045,-0.0043,9.7732,0.2977,-0.6617,-0.6763
5050,1018,650,34.672,33.561,0.107,0.0139,9.8209,-0.8012,0.527,-0.2912
5055,1034,656,34.673,33.625,-0.0342,-0.0703,9.8587,0.0622,-0.1137,-0.7031
5060,1039,661,34.74,33.492,0.0384,0.0727,9.8463,0.3495,-0.305,-0.1863
5065,1052,659,34.693,33.473,0.0012,-0.0434,9.8589,-0.3804,0.3438,0.6289
5070,1051,670,34.679,33.556,-0.011,-0.0684,9.7989,0.1375,0.5501,-0.1054
5075,1068,675,34.755,33.624,-0.0219,-0.0482,9.8282,-0.224,0.2475,0.367
5080,1074,678,34.752,33.569,-0.0609,0.0319,9.7896,-0.6871,-1.2639,-0.2448
5085,1089,685,34.752,33.589,-0.0479,-0.0155,9.7647,-0.3651,-0.3279,0.6893
5090,1096,693,34.672,33.557,-0.0085,-0.0184,9.8661,1.248,-0.1827,0.916
5095,1106,699,34.695,33.541,0.0161,0.0366,9.769,0.6527,-0.2546,0.182
5100,1103,702,34.827,33.592,-0.1116,0.0521,9.8425,0.2004,0.2906,0.3154
5105,1113,714,34.793,33.584,0.0771,-0.0405,9.8459,-0.1888,0.6256,0.4697
5110,1126,717,34.7,33.62,0.0361,-0.0379,9.773,-0.447,-0.2236,-0.5385
5115,1134,729,34.749,33.633,-0.0017,-0.0591,9.8153,-0.4028,-0.5373,-0.2318
5120,1139,738,34.702,33.497,0.0427,-0.0449,9.666,0.4509,-0.1184,-1.0344
5125,1141,743,34.732,33.62,0.0059,-0.0048,9.7952,0.7119,-0.566,-0.0257
5130,1159,749,34.735,33.586,-0.031,0.0039,9.764,-0.7185,0.618,-0.3057
5135,1167,760,34.735,33.575,-0.0179,-0.0934,9.8512,0.1515,0.0887,-0.2731
5140,1155,768,34.718,33.502,-0.0155,-0.0312,9.7882,-0.2617,0.0911,-0.6794
5145,1166,778,34.671,33.568,-0.0264,0.0502,9.8399,0.9193,1.4924,0.4618
5150,1171,780,34.764,33.647,0.0448,0.091,9.7929,0.6105,0.2744,-0.2059
5155,1183,792,34.848,33.543,-0.0221,-0.0247,9.747,-0.2715,-0.1619,0.6252
5160,1181,801,34.733,33.551,0.0598,-0.0747,9.8661,-0.1235,0.8072,-0.2167
5165,1176,805,34.671,33.495,0.0383,-0.0059,9.8601,-0.3563,0.0325,-0.5381
5170,1174,813,34.639,33.573,0.0259,-0.0512,9.8295,-0.9435,-0.6664,-0.7583
5175,1181,824,34.757,33.569,-0.009,0.0302,9.7598,0.7297,-1.1323,0.3289
5180,1193,829,34.675,33.622,-0.0288,-0.0604,9.8067,-1.2949,1.0031,0.2642
5185,1188,836,34.643,33.553,0.0077,-0.0179,9.7653,0.2387,-0.0863,0.143
5190,1186,843,34.626,33.529,-0.0394,0.0124,9.8435,0.2759,-0.0647,-0.0819
5195,1183,852,34.709,33.657,-0.1011,0.0711,9.8202,-0.3523,-0.0211,0.235
5200,1193,858,34.674,33.523,0.0441,0.0241,9.8092,-0.0381,0.6408,-0.8505
5205,1190,867,34.793,33.504,-0.0429,0.0097,9.821,-0.0197,0.1528,0.0249
5210,1184,870,34.765,33.598,0.0414,-0.039,9.8441,0.5077,-0.1525,-0.5822
5215,1195,883,34.78,33.62,0.0241,0.0098,9.8213,-0.147,0.0842,-0.2794
5220,1181,888,34.672,33.573,0.0121,0.006,9.6953,-0.3523,-0.5116,0.3635
5225,1184,889,34.803,33.549,-0.0694,-0.0515,9.9021,-0.3863,-1.2036,0.1442
5230,1174,889,34.763,33.453,0.0162,0.0882,9.7564,0.0075,-0.3923,0.0059
5235,1182,899,34.662,33.612,0.0041,-0.0178,9.6931,-0.5288,0.9261,0.014
5240,1173,897,34.854,33.549,-0.0006,-0.0482,9.8173,-0.8581,-0.4112,0.4451
5245,1171,907,34.815,33.609,0.0381,0.0631,9.8509,-0.362,0.3964,0.0003
5250,1175,906,34.716,33.524,0.0169,0.014,9.7925,-0.0147,0.3257,-1.056
5255,1178,920,34.662,33.538,0.0944,-0.0471,9.7326,0.8636,-0.3951,0.8972
5260,1156,916,34.758,33.427,-0.026,0.0016,9.8211,0.1305,0.9778,-0.5435
5265,1161,919,34.701,33.481,-0.0628,-0.0543,9.8768,0.0488,-0.3671,0.0056
5270,1171,920,34.733,33.507,0.1184,0.0589,9.8507,-0.7787,1.0335,0.907
5275,1153,926,34.704,33.495,-0.0479,0.0328,9.8024,-0.3323,0.9912,-0.3969
5280,1158,919,34.694,33.554,0.003,0.0687,9.6837,0.6791,0.234,-0.0297
5285,1151,925,34.724,33.615,-0.0728,0.0757,9.8004,0.5224,0.0253,0.1528
5290,1137,933,34.655,33.543,0.0824,-0.0229,9.8124,-1.2238,0.2597,-0.3317
5295,1135,930,34.732,33.489,0.0715,0.0263,9.8267,0.5133,0.2685,-0.476
5300,1146,924,34.698,33.626,-0.1065,0.0376,9.867,0.128,0.2527,0.7743
5305,1141,931,34.771,33.573,-0.0274,-0.0079,9.8358,-0.3315,0.4555,0.4386
5310,1131,932,34.721,33.515,-0.0317,-0.086,9.8899,-0.0646,-0.1729,-0.5845
5315,1136,927,34.68,33.61,0.0494,-0.0414,9.859,0.4561,0.2183,0.3547
5320,1124,929,34.663,33.534,-0.0735,-0.0173,9.7911,-0.2879,1.0101,-0.5839
5325,1129,929,34.735,33.617,-0.0141,0.0279,9.7775,-0.1087,-0.2042,-0.8117
5330,1130,934,34.794,33.57,-0.0612,-0.1499,9.7831,-0.1206,-0.1434,0.1953
5335,1118,925,34.774,33.638,0.013,-0.0553,9.8204,0.4207,-0.2938,-0.3129
5340,1117,924,34.689,33.598,-0.0014,0.0958,9.8245,-0.4828,-0.6768,0.4298
5345,1120,921,34.667,33.587,0.0661,-0.0343,9.8877,0.1425,-0.7788,-0.9898
5350,1111,927,34.732,33.51,-0.0921,-0.015,9.9257,-0.2236,0.141,-0.3833
5355,1119,923,34.749,33.528,0.0631,0.0352,9.8244,0.1373,0.1958,-0.6012
5360,1104,919,34.729,33.575,0.0443,0.0779,9.7618,0.5644,0.314,-0.0614
5365,1102,914,34.71,33.622,0.0103,0.0374,9.8066,-0.1253,-1.0981,0.9583
5370,1109,918,34.809,33.532,0.0481,-0.0191,9.8027,0.1106,-0.1525,0.5423
5375,1099,911,34.695,33.588,-0.016,-0.019,9.8141,-0.0772,-0.0483,-0.4102
5380,1105,915,34.71,33.594,0.0526,0.0514,9.747,0.5048,0.5667,0.2426
5385,1101,908,34.775,33.535,0.0066,-0.0305,9.7731,-0.095,-0.5562,-0.3141
5390,1094,916,34.787,33.559,0.0046,0.1378,9.8243,-0.3632,0.1354,-0.3089
5395,1097,911,34.765,33.537,0.0468,-0.0424,9.8316,-0.6182,-0.4169,-0.3967
5400,1094,903,34.643,33.491,-0.0266,0.0306,9.8046,0.6625,-0.5408,-0.2822
5405,1094,906,34.689,33.568,0.125,-0.0933,9.8428,0.0947,-0.457,-1.1876
5410,1079,901,34.713,33.535,0.0004,-0.0312,9.7865,-0.0651,-0.7856,0.2912
5415,1082,900,34.796,33.62,0.0206,-0.0576,9.7982,0.338,-0.0573,-0.5502
5420,1077,901,34.721,33.691,0.0906,0.0209,9.8344,0.0655,0.2698,-0.3109
5425,1078,897,34.853,33.504,-0.0352,-0.0275,9.786,-0.5256,-0.2463,0.2591
5430,1076,887,34.742,33.665,-0.1534,-0.0695,9.8345,-0.0025,-0.2168,-0.8914
5435,1076,889,34.669,33.53,0.0466,0.0196,9.8058,0.595,0.0696,-0.9001
5440,1074,884,34.771,33.659,-0.0169,0.021,9.7455,-0.0301,0.1648,-0.3917
5445,1064,890,34.719,33.539,0.0387,0.0357,9.7598,-0.0714,-0.1411,-1.0896
5450,1079,892,34.731,33.542,0.1224,0.0007,9.8519,0.5769,0.7454,-0.1611
5455,1063,878,34.719,33.506,0.0331,-0.0,9.7956,-0.2001,-0.0185,-0.4636
5460,1061,880,34.686,33.641,-0.0933,0.0011,9.8432,0.6669,0.1301,0.7612
5465,1055,880,34.715,33.565,-0.0592,0.0104,9.7755,0.3644,0.257,0.6681
5470,1051,875,34.739,33.616,0.0051,-0.0501,9.7568,0.0725,0.5926,-0.0437
5475,1050,878,34.635,33.537,0.0283,0.068,9.8633,0.0414,0.156,-0.5194
5480,1054,873,34.809,33.527,0.0151,0.024,9.8338,-0.3933,0.0147,-0.6513
5485,1051,876,34.7,33.605,-0.0601,0.0062,9.8419,0.065,-0.7206,-0.03
5490,1037,867,34.704,33.62,-0.027,0.0377,9.8732,-0.2027,0.1883,-0.2563
5495,1039,868,34.762,33.661,0.1111,0.0857,9.8682,0.2194,-0.0436,-0.264
5500,1032,869,34.784,33.54,0.0345,-0.0615,9.8103,0.6554,1.1236,-0.7686
5505,1028,866,34.65,33.463,0.0237,-0.0123,9.7493,-0.6883,-0.1083,0.156
5510,1031,863,34.734,33.591,-0.0924,-0.0723,9.8454,-0.2166,-0.5098,0.5939
5515,1020,865,34.798,33.667,-0.0771,0.0116,9.8481,-0.2533,-0.1397,0.6486
5520,1006,859,34.766,33.517,-0.0205,0.0072,9.8168,0.4185,-0.5201,-0.2819
5525,1006,865,34.701,33.634,-0.0395,0.0732,9.8184,0.4181,-0.7404,-0.6952
5530,1000,857,34.77,33.595,0.0595,0.0634,9.779,0.3438,0.2467,-0.8946
5535,987,858,34.766,33.557,0.0373,-0.0089,9.8297,-0.3946,-0.1445,-0.1314
5540,972,853,34.774,33.591,0.0206,-0.0615,9.8494,-0.2577,-1.3109,-0.5152
5545,975,850,34.717,33.513,0.0632,0.0592,9.7855,0.2245,0.1571,0.3678
5550,971,854,34.721,33.553,-0.0083,-0.008,9.8025,0.4133,0.2618,-0.0362
5555,956,852,34.668,33.507,-0.0454,0.0128,9.8492,-0.6089,-0.2662,0.0949
5560,952,851,34.701,33.669,0.0095,0.0069,9.8644,0.2693,0.3476,-0.8207
5565,939,850,34.71,33.512,-0.0218,-0.0073,9.8357,0.083,-0.0103,0.7017
5570,938,843,34.675,33.566,-0.0093,-0.0941,9.7449,-0.6243,-0.1236,0.1734
5575,924,843,34.626,33.536,-0.0043,0.036,9.7802,-0.3249,0.0654,-0.4471
5580,915,840,34.781,33.484,0.0166,-0.0806,9.7901,0.2329,-0.1144,1.065
5585,911,836,34.725,33.6,0.0269,-0.0771,9.7201,0.1362,-0.4284,0.1575
5590,904,836,34.743,33.654,-0.0331,0.0281,9.7606,0.6926,1.1062,0.6452
5595,888,837,34.763,33.55,-0.0075,0.0295,9.7686,-0.6309,0.628,0.441
5600,895,832,34.68,33.575,0.032,-0.0181,9.8629,0.0113,-0.3601,0.3818
5605,876,827,34.778,33.524,0.019,-0.0772,9.7982,0.3897,0.1043,-0.9703
5610,873,825,34.726,33.566,0.0487,-0.0403,9.8587,-0.0425,1.1394,0.3965
5615,857,817,34.693,33.507,-0.0233,-0.0624,9.786,0.1376,-0.8491,0.4354
5620,857,820,34.699,33.617,0.0055,-0.0349,9.7513,-0.0055,-0.2566,0.0757
5625,840,815,34.674,33.503,0.0183,-0.0448,9.7923,0.2292,0.6641,-0.5213
5630,830,808,34.771,33.479,0.0061,-0.0074,9.7844,-0.967,0.1264,0.1929
5635,832,805,34.722,33.577,-0.0854,-0.0849,9.915,0.7483,-1.3166,0.0926
5640,834,803,34.762,33.423,-0.0514,0.0236,9.7744,0.5551,0.8129,0.363
5645,815,795,34.717,33.519,-0.0027,-0.0637,9.8764,0.1166,0.2393,-0.4253
5650,806,792,34.69,33.619,-0.0491,-0.0046,9.8145,-0.6771,0.226,0.4937
5655,808,786,34.648,33.537,-0.0881,-0.0177,9.7883,0.203,0.6232,0.0439
5660,799,783,34.689,33.633,0.0736,-0.0075,9.803,-0.7371,0.1715,-0.4226
5665,798,774,34.708,33.587,-0.0337,0.0227,9.8012,0.2559,-0.4029,-0.201
5670,777,769,34.858,33.542,-0.0491,-0.0085,9.8192,-0.6906,0.2308,-0.4371
5675,777,768,34.707,33.547,0.0312,0.015,9.8075,0.1968,-0.2231,-0.042
5680,773,761,34.785,33.494,0.0079,0.0047,9.8969,-0.7123,0.5449,-0.1584
5685,761,754,34.805,33.592,0.0287,-0.0442,9.7641,-0.2529,0.4196,-1.2067
5690,761,751,34.753,33.593,-0.098,0.0207,9.8375,0.2813,0.2408,0.8905
5695,752,741,34.791,33.632,-0.0314,-0.1044,9.8031,0.1238,0.2064,-0.9462
5700,751,737,34.747,33.547,-0.1031,-0.0424,9.7568,0.6919,0.1069,-0.4
5705,754,733,34.68,33.549,-0.0787,-0.0645,9.7185,-0.3158,0.6124,-1.1107
5710,750,724,34.719,33.588,0.06,-0.0755,9.8928,0.1427,-0.1893,-0.5164
5715,750,718,34.67,33.48,-0.0116,0.0675,9.7603,0.7282,-0.1987,-0.5281
5720,749,716,34.76,33.572,0.0601,-0.0733,9.7401,-0.5032,-0.3725,-0.7156
5725,749,705,34.655,33.609,0.049,-0.0326,9.7787,-0.0256,0.5268,-0.4716
5730,751,703,34.749,33.521,0.115,0.0028,9.7836,-0.9893,0.1582,-0.8502
5735,749,695,34.765,33.578,0.0001,-0.0177,9.8199,0.044,0.131,0.4171
5740,756,694,34.755,33.571,-0.0192,0.0309,9.8084,-0.9838,-0.2421,0.5596
5745,746,682,34.763,33.574,-0.0011,0.0111,9.6879,0.3866,-0.135,0.6986
5750,757,674,34.723,33.618,-0.0039,-0.0208,9.8682,0.1706,-0.6664,0.5791
5755,761,674,34.706,33.605,0.0027,0.083,9.8297,-0.2245,-0.1299,0.6112
5760,765,670,34.681,33.6,-0.0216,0.0255,9.8696,0.2685,-0.256,-0.4674
5765,767,664,34.743,33.549,-0.0817,0.0179,9.7951,0.4629,0.0347,-0.6802
5770,772,664,34.774,33.649,0.1005,0.0011,9.8635,0.0991,-0.3343,-0.5008
5775,780,657,34.665,33.551,-0.0144,0.0851,9.738,-0.2775,-0.4822,-0.7269
5780,780,656,34.762,33.637,0.0043,-0.0004,9.7679,0.9208,0.3126,-0.0236
5785,792,644,34.759,33.576,0.0566,-0.0318,9.7638,0.1537,-0.1038,-0.7523
5790,794,642,34.604,33.576,-0.0527,-0.0157,9.8038,0.4705,-0.1949,-0.1704
5795,801,641,34.825,33.569,-0.0199,-0.0672,9.859,-0.5656,-0.0149,-0.2416
5800,813,630,34.741,33.448,0.054,0.063,9.8345,0.0612,-0.3581,0.9293
5805,823,628,34.736,33.531,-0.0372,-0.0435,9.7749,0.039,0.2285,0.5972
5810,830,631,34.676,33.58,-0.0065,-0.0442,9.8095,-0.0348,-0.9588,-0.396
5815,830,622,34.766,33.565,-0.0285,0.0087,9.8127,0.377,1.0376,-0.7184
5820,847,629,34.779,33.595,-0.0149,0.0273,9.8104,-0.0739,-0.0444,0.0154
5825,864,630,34.726,33.573,-0.0455,0.0016,9.8364,-1.0508,0.2408,0.7585
5830,865,623,34.681,33.61,-0.0471,0.008,9.7845,-0.2915,-0.2226,0.4051
5835,879,620,34.711,33.531,-0.0106,0.0063,9.7411,1.587,0.7687,0.5872
5840,891,621,34.899,33.583,0.011,0.0212,9.801,-0.5934,-0.3764,-0.3472
5845,902,622,34.689,33.641,0.0074,-0.1272,9.7972,0.0623,-0.4321,-0.842
5850,910,620,34.73,33.601,-0.0435,-0.0601,9.8064,-0.5174,-0.3656,-0.0698
5855,922,629,34.716,33.552,0.008,-0.0076,9.7938,-0.4519,0.4241,0.6086
5860,937,628,34.741,33.586,-0.065,-0.0167,9.8638,1.0697,-0.534,0.6707
5865,952,635,34.722,33.588,0.0506,0.0379,9.7394,-0.578,-0.8605,-0.2728
5870,963,628,34.727,33.602,0.0169,0.008,9.7541,-0.5184,-1.2843,0.5775
5875,968,632,34.639,33.482,-0.006,0.0168,9.8229,0.7023,-0.0209,0.6573
5880,978,636,34.711,33.54,-0.0573,0.0274,9.8593,0.1456,-0.0394,0.6098
5885,991,633,34.717,33.512,-0.0134,0.0068,9.9612,-0.9709,-0.3237,0.2279
5890,1003,643,34.692,33.57,0.0435,-0.0439,9.8127,0.4003,-0.5424,0.351
5895,1017,649,34.773,33.586,-0.0313,-0.0157,9.8312,0.6649,0.6052,-0.0532
5900,1025,650,34.753,33.581,0.0749,0.0419,9.807,-0.2925,0.6647,-0.1478
5905,1037,659,34.757,33.498,0.0088,0.0604,9.8637,-0.0563,0.3889,0.1328
5910,1040,659,34.734,33.529,0.0316,0.068,9.7965,0.4601,-0.6782,0.0426
5915,1048,667,34.681,33.634,-0.0198,-0.0075,9.7886,-0.2192,0.094,0.2367
5920,1075,677,34.778,33.639,0.0313,0.0263,9.8336,0.0762,-0.1325,-0.0946
5925,1079,682,34.763,33.531,-0.0127,0.0539,9.8503,-0.3602,0.2471,-0.3199
5930,1089,683,34.747,33.567,-0.0386,0.052,9.8428,-0.7689,-0.166,0.9143
5935,1101,693,34.773,33.473,-0.017,-0.0299,9.76,-0.1845,-0.5527,0.3139
5940,1103,699,34.739,33.522,0.0255,0.009,9.9398,-0.0952,-1.0483,0.3243
5945,1110,715,34.672,33.582,-0.0206,0.0182,9.9034,1.2923,0.7564,0.256
5950,1120,712,34.662,33.501,0.0331,-0.0323,9.7758,-0.3957,-0.5682,1.1929
5955,1128,723,34.715,33.549,-0.007,0.0464,9.8062,0.315,-0.6061,-0.5629
5960,1138,738,34.795,33.584,0.0199,0.0968,9.8141,-0.0549,0.1565,0.5375
5965,1138,740,34.676,33.54,0.0398,-0.0031,9.6965,0.3678,0.1967,-0.0268
5970,1143,746,34.746,33.574,0.0228,-0.04,9.8404,-0.4127,0.2954,0.5106
5975,1145,754,34.738,33.612,-0.0365,0.0104,9.7558,-0.2246,-0.3254,0.4187
5980,1161,765,34.713,33.54,0.0404,-0.0189,9.6972,-0.6862,0.0959,-0.2835
5985,1163,772,34.79,33.573,-0.0024,0.0073,9.715,0.8771,-0.0279,0.4363
5990,1159,776,34.778,33.607,0.0097,0.0943,9.8433,-0.0025,-0.1353,-0.0534
5995,1170,789,34.759,33.483,0.0576,0.0392,9.8398,0.0953,-0.275,0.5387
6000,1174,790,34.646,33.575,0.0237,-0.0829,9.8925,0.4818,0.2654,-0.0037
6005,1173,799,34.721,33.533,-0.0005,0.0103,9.84,-0.4295,-0.0932,-0.421
6010,1175,808,34.743,33.605,0.0983,-0.0237,9.8302,-0.2279,0.5004,-0.5584
6015,1180,820,34.666,33.559,-0.0096,0.0031,9.7774,0.2392,-0.6459,-0.3783
6020,1186,822,34.755,33.602,-0.0433,0.0163,9.7753,-0.064,0.3238,0.6637
6025,1194,828,34.8,33.546,-0.0661,0.0421,9.7737,-0.2819,-0.2157,0.4705
6030,1185,838,34.692,33.526,-0.0004,-0.009,9.8038,-0.3767,-0.4301,-0.0464
6035,1200,848,34.682,33.56,0.0215,-0.0654,9.7906,-0.0915,-0.2212,-0.0323
6040,1191,851,34.784,33.654,-0.0408,0.0045,9.7249,0.1006,-0.2313,-0.2542
6045,1197,859,34.739,33.595,-0.0603,-0.0012,9.7838,0.2599,0.5495,0.6052
6050,1196,866,34.712,33.654,-0.031,0.0614,9.8469,-0.7179,-0.1033,0.0086
6055,1180,875,34.678,33.594,0.0637,0.0088,9.8032,0.1093,-1.5156,0.2225
6060,1175,876,34.736,33.57,0.0453,0.0177,9.7505,-0.6997,-0.3531,-0.4748
6065,1179,878,34.747,33.488,0.1064,-0.0982,9.7035,-0.5534,0.4495,0.1702
6070,1181,888,34.741,33.599,0.0219,-0.0267,9.7947,0.1956,-0.3704,-0.4063
6075,1181,891,34.787,33.501,0.043,0.1143,9.8072,0.3174,0.5513,-0.4109
6080,1176,899,34.704,33.515,0.0145,0.0493,9.8044,0.0035,0.0267,0.1594
6085,1171,903,34.73,33.508,0.0533,-0.058,9.8311,0.6764,-0.0768,0.0922
6090,1177,902,34.739,33.534,-0.0038,0.0236,9.8909,0.8323,0.6381,-0.512
6095,1168,909,34.719,33.673,-0.1154,0.0021,9.777,-0.8515,-0.0197,0.433
6100,1175,913,34.74,33.602,-0.0151,0.0495,9.8855,0.1679,-0.0913,0.0153
6105,1165,918,34.703,33.542,-0.0011,0.0269,9.7795,-0.2386,0.4503,-0.1763
6110,1164,926,34.753,33.539,0.0317,-0.0932,9.7783,-0.1248,0.8297,0.4027
6115,1161,920,34.712,33.493,0.0779,0.0399,9.8282,-0.1381,0.6578,-0.1042
6120,1153,926,34.854,33.489,0.0462,0.0979,9.7467,-0.2468,0.0304,-0.6771
6125,1155,928,34.731,33.529,-0.0501,0.0679,9.7946,1.2069,0.5582,0.3619
6130,1152,932,34.801,33.598,-0.0205,0.0139,9.7803,-0.5472,-0.2482,-0.6076
6135,1152,929,34.706,33.538,0.0195,-0.0414,9.9116,-0.0299,-0.2048,-0.7234
6140,1140,932,34.723,33.602,0.0129,-0.02,9.8905,0.5967,0.9419,-0.3601
6145,1146,935,34.745,33.536,-0.0082,-0.0452,9.8498,-0.7298,0.6215,-0.4514
6150,1142,932,34.767,33.554,0.0808,-0.0989,9.748,-0.1847,0.0615,-0.1224
6155,1131,921,34.7,33.585,0.0396,0.065,9.8248,-0.2163,-0.2089,0.2538
6160,1119,930,34.697,33.592,0.0647,-0.0866,9.7602,0.0266,-0.6349,0.1768
6165,1120,932,34.591,33.493,-0.0147,-0.0415,9.8544,-0.0952,0.0743,0.11
6170,1130,935,34.798,33.556,-0.0266,0.0032,9.7843,0.1641,-0.1148,0.6725
6175,1121,931,34.808,33.614,-0.0424,0.0438,9.8117,-0.0993,-0.9985,1.24
6180,1126,931,34.748,33.521,0.0176,-0.0332,9.6846,0.0934,0.2247,-0.3706
6185,1120,922,34.691,33.589,-0.0241,0.0009,9.8532,-0.2252,-0.4129,0.2487
6190,1113,927,34.748,33.65,-0.0132,-0.0564,9.7232,0.4862,-0.1807,-0.1262
6195,1116,923,34.725,33.573,-0.0318,-0.0186,9.8333,0.3306,-0.8197,-0.289
6200,1103,922,34.764,33.546,0.0557,0.0352,9.9108,-0.0297,0.1506,0.0605
6205,1103,918,34.81,33.536,-0.0027,-0.0239,9.8075,0.112,-0.4566,0.0405
6210,1104,918,34.737,33.583,0.1111,-0.0253,9.8326,0.2087,0.5442,-0.4865
6215,1105,910,34.682,33.507,0.07,0.024,9.8746,0.1236,-0.2681,-0.1127
6220,1105,919,34.754,33.568,-0.011,0.0166,9.8718,-0.1714,0.1331,0.2205
6225,1101,914,34.7,33.543,0.0283,0.0339,9.8689,0.2996,0.4367,-0.0981
6230,1096,910,34.68,33.505,-0.0003,0.042,9.818,0.0272,-1.314,0.0022
6235,1091,909,34.76,33.466,-0.027,-0.1077,9.8052,0.4872,-0.2667,0.0148
6240,1085,909,34.754,33.544,-0.0022,0.0124,9.8282,0.0849,0.1251,-0.4751
6245,1094,913,34.673,33.547,0.0832,-0.1095,9.7448,-1.6195,-0.5282,0.9309
6250,1093,903,34.738,33.579,0.0334,-0.0832,9.8011,-0.0215,-0.3321,-0.4522
6255,1086,905,34.751,33.527,0.0763,0.0556,9.727,-0.3623,-0.4039,-0.0192
6260,1087,896,34.667,33.595,-0.0415,0.0329,9.8131,0.2384,0.4925,0.1987
6265,1087,897,34.733,33.552,-0.0751,0.075,9.8137,0.0768,-0.3198,0.0614
6270,1078,891,34.666,33.59,-0.0209,-0.0317,9.8795,-0.9488,-0.6199,-1.239
6275,1077,890,34.734,33.601,0.0299,-0.0184,9.7683,-0.0943,0.3968,-0.3566
6280,1079,895,34.687,33.589,0.0548,0.0119,9.7256,0.6519,-0.3684,-0.0381
6285,1066,890,34.733,33.56,0.0064,0.0864,9.8032,-0.4002,-0.138,-1.1399
6290,1068,884,34.664,33.615,-0.0425,-0.0905,9.7935,0.5337,0.8552,-0.7683
6295,1068,887,34.72,33.601,0.0669,-0.0096,9.7697,0.6093,-0.0021,-0.0216
6300,1060,877,34.764,33.542,0.023,-0.0223,9.7849,-0.1705,-0.1814,0.2288
6305,1063,883,34.788,33.576,-0.0496,-0.0418,9.741,-0.0727,0.1979,-0.04
6310,1062,878,34.685,33.544,-0.0176,-0.0042,9.8067,0.8523,-0.7495,-0.5026
6315,1055,880,34.753,33.619,0.0241,-0.0276,9.8073,0.5026,-0.1117,-0.0161
6320,1056,870,34.798,33.599,0.0007,-0.0437,9.8,-0.4065,0.2492,1.1049
6325,1044,877,34.738,33.668,-0.04,-0.1188,9.798,-0.0866,0.0241,0.4291
6330,1040,873,34.775,33.53,-0.022,-0.1113,9.8576,-0.1327,-0.1116,-0.696
6335,1035,867,34.784,33.705,-0.0451,0.0321,9.8112,-0.4813,0.1994,0.2528
6340,1029,873,34.732,33.568,-0.0373,0.0659,9.661,-0.4575,-0.5412,0.5326
6345,1034,869,34.673,33.619,-0.0272,-0.0026,9.8248,-0.0162,-0.376,0.6221
6350,1022,858,34.761,33.598,0.1415,-0.017,9.8421,0.5299,-0.5045,0.1833
6355,1013,865,34.685,33.547,-0.07,-0.0619,9.8486,0.1397,-0.3843,-0.6053
6360,1005,868,34.82,33.604,-0.0105,0.0201,9.8251,-0.061,-0.008,-0.0589
6365,1014,861,34.629,33.603,-0.1021,0.014,9.753,0.0782,0.6002,0.848
6370,1001,860,34.662,33.518,-0.0033,-0.0503,9.8225,-0.3747,-0.0409,-0.0753
6375,1004,861,34.719,33.594,-0.0487,-0.0042,9.8096,0.5057,0.1105,0.5986
6380,989,855,34.73,33.509,-0.0232,0.0018,9.8011,-0.2503,-0.2908,-1.2019
6385,976,858,34.715,33.61,0.0032,0.0086,9.7831,0.3266,-0.4048,0.4675
6390,973,851,34.793,33.589,-0.1429,0.0331,9.8384,-0.3335,0.2599,-0.3589
6395,969,853,34.73,33.572,-0.0503,-0.0799,9.7961,0.1607,-0.5609,-0.9363
6400,956,855,34.721,33.622,0.0242,0.0698,9.7388,0.6931,-0.2568,0.2002
6405,947,848,34.684,33.603,0.0127,-0.0051,9.791,-0.3727,-0.0249,0.7563
6410,936,849,34.73,33.57,-0.0507,0.1079,9.8543,0.2376,-1.2172,1.0512
6415,938,837,34.745,33.45,-0.0475,0.0401,9.784,-0.2255,-0.5379,-0.6257
6420,925,849,34.768,33.521,0.1553,0.1185,9.824,0.0407,-0.6634,-0.4396
6425,926,844,34.709,33.595,-0.028,0.0026,9.8204,0.0782,0.7869,-0.5012
6430,904,842,34.776,33.523,-0.0432,-0.0483,9.8615,0.9669,0.2805,0.9868
6435,904,836,34.727,33.557,0.0097,0.0374,9.7879,0.7243,0.0915,-0.4433
6440,897,831,34.712,33.553,0.0266,0.0448,9.7765,-0.3041,0.2829,-0.5104
6445,887,828,34.679,33.598,0.0034,-0.0972,9.8605,-0.7821,0.0402,0.068
6450,883,827,34.702,33.499,-0.0421,-0.0373,9.7782,-0.2671,0.1656,0.9493
6455,869,819,34.87,33.569,-0.0078,-0.0988,9.8375,-0.1872,0.3708,-0.314
6460,862,824,34.889,33.587,0.0396,-0.0004,9.7388,0.2129,0.036,-0.5936
6465,850,815,34.747,33.525,0.0554,0.0401,9.8389,0.2119,-0.0707,-0.964
6470,843,813,34.838,33.61,-0.0613,0.0108,9.8007,-0.0464,0.5167,-0.243
6475,832,811,34.793,33.515,0.0541,-0.0467,9.8212,0.243,-0.6897,0.4218
6480,832,802,34.677,33.581,0.0602,0.0239,9.8504,-0.2224,-0.0201,-0.4467
6485,824,800,34.658,33.569,0.0384,-0.0347,9.751,0.4196,-0.3769,0.0383
6490,818,795,34.755,33.476,0.0074,-0.0061,9.7714,-0.2771,-0.1993,-0.1804
6495,806,796,34.701,33.494,-0.049,-0.0324,9.7602,-0.5453,-0.3416,-0.2945
6500,811,786,34.769,33.61,-0.0125,0.0667,9.8913,-0.2009,0.646,-1.0628
6505,789,788,34.779,33.531,0.0497,-0.0656,9.7512,-0.7661,-0.5801,-0.2447
6510,778,773,34.803,33.544,-0.0278,-0.0398,9.6929,1.1265,0.4116,-0.8509
6515,777,771,34.775,33.595,-0.0395,-0.0103,9.7247,-0.4915,-0.4042,0.6913
6520,770,770,34.733,33.623,0.0785,0.0544,9.8883,0.247,0.214,-0.5648
6525,767,761,34.734,33.544,-0.0382,0.0271,9.7003,-0.3342,-0.1634,0.1259
6530,768,752,34.765,33.58,0.0837,-0.0648,9.8343,0.517,0.623,-0.1551
6535,764,748,34.696,33.56,-0.0634,-0.0474,9.82,0.9219,-0.2211,0.2321
6540,765,746,34.807,33.601,-0.0264,-0.0662,9.9445,0.4408,0.6843,-0.7753
6545,748,746,34.667,33.514,-0.033,0.0744,9.8625,0.1684,-0.0062,-0.1304
6550,746,734,34.709,33.67,-0.0288,-0.1066,9.7577,-0.2372,0.9541,0.3403
6555,753,721,34.743,33.515,-0.0535,0.0289,9.8547,-0.6272,-0.3298,-1.0919
6560,749,717,34.673,33.603,-0.0403,-0.0038,9.7908,-0.0399,0.4519,-0.2528
6565,753,714,34.648,33.492,0.032,-0.0238,9.7795,-0.1898,-0.1299,0.2283
6570,750,708,34.709,33.678,-0.094,0.009,9.8792,-0.6217,-0.1216,-0.081
6575,748,702,34.705,33.573,-0.0025,0.0191,9.9403,0.023,-0.5356,0.8254
6580,752,693,34.745,33.549,0.0234,0.0696,9.7886,0.1336,0.006,-0.8794
6585,745,686,34.854,33.542,0.0545,-0.0074,9.8394,-0.2684,-0.0983,0.0929
6590,750,681,34.768,33.705,0.0186,-0.0501,9.8334,-0.6075,0.0619,-0.4845
6595,757,674,34.663,33.527,0.04,-0.021,9.9106,0.1134,-0.0558,0.6488
6600,754,671,34.785,33.535,0.0366,0.0414,9.6799,0.6706,-0.3743,0.1793
6605,755,671,34.647,33.601,0.0297,0.0295,9.8126,-0.1248,0.0532,0.2785
6610,764,661,34.822,33.549,-0.0004,0.0088,9.8684,1.7937,-0.016,-0.5216
6615,778,659,34.744,33.554,0.0152,-0.0091,9.8523,0.3539,-0.2063,0.3191
6620,777,656,34.761,33.537,-0.0488,0.0006,9.7382,-0.0911,0.3674,0.9503
6625,787,651,34.612,33.576,-0.077,0.0177,9.8387,0.4836,-0.6333,-0.2943
6630,793,651,34.695,33.476,0.0434,-0.1067,9.7888,-0.0632,-0.3393,0.547
6635,795,648,34.686,33.568,-0.0212,-0.0239,9.8111,-0.7975,-0.0308,-0.222
6640,809,641,34.695,33.577,0.0076,-0.0624,9.8416,1.0438,-0.4979,-0.2791
6645,809,635,34.776,33.552,-0.1541,-0.0079,9.7843,0.033,-0.1325,-0.4828
6650,817,635,34.718,33.521,-0.0072,-0.0088,9.7131,1.1579,-0.9378,-0.5816
6655,836,629,34.637,33.608,0.0478,0.088,9.8276,-0.2389,0.4372,-0.3415
6660,835,631,34.679,33.547,-0.01,-0.0672,9.7956,0.6417,-0.6127,0.7564
6665,842,625,34.709,33.505,-0.0151,0.022,9.8086,0.6802,-0.293,-0.8698
6670,865,630,34.791,33.53,0.0798,-0.0396,9.8258,0.1193,0.3253,-0.0258
6675,870,629,34.732,33.56,0.0562,-0.0054,9.8627,-0.0952,-0.5254,-0.6414
6680,875,626,34.803,33.548,0.0163,0.0538,9.7245,1.2867,0.3342,0.3229
6685,895,626,34.734,33.61,0.0998,0.0932,9.9211,-0.7858,-0.558,0.345
6690,903,628,34.766,33.592,0.0011,-0.0185,9.7723,-1.0117,-0.1982,-0.2354
6695,916,631,34.772,33.565,-0.0199,-0.0028,9.8112,-0.0359,-0.0716,-0.2383
6700,929,627,34.725,33.585,0.0261,0.0166,9.8456,0.1674,0.115,-0.2235
6705,933,627,34.802,33.587,-0.0112,0.0092,9.8892,0.0432,1.0067,0.2031
6710,951,625,34.678,33.573,0.0028,-0.1035,9.8647,-0.1933,-0.8213,0.589
6715,959,634,34.741,33.478,0.0214,-0.005,9.8231,-0.8019,0.4908,-0.5444
6720,964,634,34.672,33.634,0.0986,0.0156,9.7898,0.5124,-0.2174,-0.4659
6725,974,638,34.773,33.574,0.0366,-0.0284,9.8558,0.1165,-0.3315,-0.7134
6730,991,642,34.821,33.561,-0.0071,0.094,9.8527,0.3536,0.1519,0.482
6735,1005,640,34.784,33.559,-0.0362,0.0738,9.748,0.1111,0.248,-0.7974
6740,1017,650,34.674,33.618,0.0122,-0.0295,9.7762,0.019,1.0264,0.4757
6745,1027,657,34.742,33.553,-0.0147,-0.0866,9.7306,-0.391,0.1874,-0.6336
6750,1039,658,34.819,33.63,-0.0457,0.098,9.8614,0.0335,-0.2206,-0.0591
6755,1035,663,34.729,33.533,-0.0532,-0.0265,9.8919,-0.1527,0.0177,0.3888
6760,1057,669,34.736,33.615,-0.1106,0.0072,9.8558,-0.2333,-0.5607,0.3027
6765,1055,674,34.692,33.463,0.0511,-0.0989,9.8411,0.6571,0.2717,-0.1809
6770,1079,680,34.738,33.591,-0.0981,0.0243,9.7629,0.4561,-0.539,1.0702
6775,1083,691,34.747,33.492,0.0852,0.0389,9.7357,0.2324,0.6173,-0.5235
6780,1092,693,34.68,33.465,-0.0391,0.0033,9.8163,-0.1545,0.31,0.0702
6785,1105,696,34.828,33.568,0.0166,-0.0569,9.8625,-0.9856,0.0235,0.086
6790,1112,713,34.779,33.573,-0.0197,-0.0235,9.7301,-0.416,0.547,-0.6199
6795,1121,717,34.782,33.464,-0.0011,-0.0808,9.8506,0.1714,-0.6854,-0.6888
6800,1138,725,34.706,33.637,-0.0084,0.03,9.7702,0.5749,0.3633,-0.5385
6805,1126,735,34.774,33.647,0.0411,-0.0783,9.8256,-0.2259,0.1862,0.0598
6810,1146,739,34.723,33.566,0.0605,-0.0589,9.8299,-1.3464,-0.9989,0.2865
6815,1150,740,34.729,33.5,0.0075,-0.0264,9.795,-0.4769,0.0479,0.1774
6820,1152,760,34.862,33.641,0.0726,0.0083,9.7348,-0.2184,0.5376,0.7566
6825,1159,761,34.79,33.65,-0.004,0.0483,9.8171,0.0749,-0.1967,-1.0185
6830,1161,769,34.806,33.522,0.0007,-0.0202,9.8778,-0.0514,-0.2663,0.2022
6835,1156,784,34.783,33.614,-0.073,0.0711,9.8449,0.2533,-0.4105,-0.1061
6840,1168,788,34.736,33.482,-0.0144,0.0366,9.837,0.3266,0.1814,-0.185
6845,1174,797,34.631,33.602,-0.0109,0.0224,9.68,-0.6659,-0.2867,-0.401
6850,1183,802,34.684,33.595,-0.0037,0.1156,9.7826,-0.7481,1.3854,0.1061
6855,1176,807,34.641,33.589,-0.036,-0.044,9.8095,0.2554,-0.7945,0.2544
6860,1183,814,34.78,33.573,0.0195,-0.0776,9.8471,-0.353,0.5779,-0.4339
6865,1183,827,34.739,33.589,0.1418,0.0656,9.7193,-0.7744,-0.4687,0.3917
6870,1182,833,34.642,33.531,-0.0798,-0.0606,9.8105,-0.0795,0.7052,0.2315
6875,1188,842,34.74,33.622,-0.0635,-0.0788,9.8392,-0.0003,-0.5964,-0.4137
6880,1185,845,34.827,33.505,-0.0065,-0.0112,9.8072,0.1127,-0.005,-0.0318
6885,1192,851,34.768,33.554,-0.0046,0.014,9.878,0.2243,-0.6699,-0.21
6890,1192,855,34.775,33.626,-0.0542,0.0199,9.7533,-0.6168,-0.1828,1.157
6895,1193,861,34.845,33.584,-0.0509,-0.0136,9.7847,-0.6951,0.639,0.4297
6900,1178,872,34.719,33.677,0.0405,0.0703,9.8035,-0.4054,0.6826,-0.5249
6905,1190,874,34.77,33.644,-0.0233,0.0194,9.7008,0.6812,-0.4884,-0.1538
6910,1189,891,34.642,33.576,-0.0552,-0.0441,9.8402,0.4297,-0.5722,0.2788
6915,1178,894,34.806,33.598,0.0232,-0.0481,9.7855,-0.408,0.9534,0.0264
6920,1184,900,34.753,33.6,0.032,0.0196,9.8633,-0.0191,0.7055,0.6483
6925,1183,901,34.71,33.51,-0.0136,0.0251,9.8663,0.4959,-0.1791,0.0522
6930,1172,906,34.751,33.499,-0.0006,0.0012,9.8229,0.1467,0.3237,-0.0269
6935,1178,910,34.679,33.556,-0.0485,-0.0422,9.8339,0.3259,0.187,-0.0172
6940,1172,912,34.792,33.571,0.0219,-0.0344,9.8576,0.4557,0.0173,0.0663
6945,1171,912,34.722,33.564,0.0032,0.0452,9.7711,-0.5079,0.2704,0.1739
6950,1159,911,34.642,33.534,0.0055,0.0378,9.801,0.0842,-0.6435,-0.5505
6955,1167,921,34.737,33.508,0.0409,-0.0197,9.8311,0.2521,-0.3087,0.1078
6960,1158,921,34.736,33.585,0.0633,0.0515,9.7958,0.3717,1.251,-0.7106
6965,1151,924,34.833,33.654,0.0997,0.0379,9.8293,0.0466,0.489,-0.3484
6970,1154,930,34.755,33.66,0.0628,0.0292,9.7671,0.4279,-0.877,0.2736
6975,1147,933,34.79,33.543,0.0175,-0.0329,9.7787,0.5004,-0.011,-0.0348
6980,1149,932,34.772,33.575,0.0134,0.0677,9.8556,-0.1215,0.0635,-0.7746
6985,1138,929,34.704,33.504,0.0216,0.0584,9.6968,0.2089,-0.2992,-0.1933
6990,1136,933,34.693,33.476,-0.1364,-0.0369,9.7586,-0.8039,0.0188,-0.105
6995,1132,930,34.708,33.601,-0.1333,0.0798,9.7928,-0.2325,-0.0859,-0.424
7000,1141,931,34.68,33.611,-0.0443,0.0185,9.8527,-0.6345,0.2808,0.2789
7005,1127,928,34.699,33.6,0.0229,0.0409,9.8064,-0.5342,0.1899,-0.3021
7010,1127,938,34.802,33.616,0.025,0.0879,9.7906,-0.4777,-0.5081,1.0247
7015,1131,929,34.722,33.536,-0.0233,0.0403,9.85,-0.1222,-0.5649,0.2128
7020,1122,929,34.699,33.542,0.0532,-0.0444,9.8672,0.119,0.399,0.0249
7025,1116,925,34.647,33.481,0.0475,-0.0333,9.6934,0.2176,-0.088,-0.6189
7030,1119,925,34.764,33.65,-0.0776,0.0678,9.6967,0.1097,-0.2908,-0.2498
7035,1116,924,34.653,33.576,-0.0393,0.0326,9.8984,0.2928,0.5654,0.0219
7040,1114,925,34.703,33.588,0.0155,0.0384,9.8592,-0.3882,-0.9318,0.5853
7045,1115,921,34.745,33.592,0.0307,-0.0076,9.8298,0.1655,-0.0648,0.4552
7050,1112,924,34.779,33.591,0.0233,0.0608,9.7917,0.4007,0.6624,0.4967
7055,1113,916,34.766,33.594,0.024,-0.0099,9.7749,0.2056,0.7192,-0.0181
7060,1101,915,34.772,33.47,0.0343,-0.089,9.8948,0.1004,0.6339,-1.2013
7065,1100,917,34.753,33.526,0.0901,-0.0019,9.7242,-0.1599,-0.4625,-0.2895
7070,1101,913,34.691,33.629,-0.1182,0.0362,9.764,0.3595,-0.6187,0.3067
7075,1099,917,34.775,33.541,0.0305,-0.0262,9.7853,-0.7501,-0.3395,-0.0861
7080,1096,910,34.672,33.575,0.0006,-0.0579,9.7672,0.0152,0.2814,0.6124
7085,1096,909,34.729,33.531,-0.0167,0.0536,9.8998,-0.1469,0.4021,-0.1806
7090,1085,903,34.696,33.587,0.0383,0.0303,9.7984,0.0721,-0.199,0.5364
7095,1086,901,34.794,33.539,0.0398,-0.015,9.8315,-0.5253,0.4635,-0.3795
7100,1091,903,34.805,33.61,-0.0719,-0.0709,9.7746,-0.129,-0.1623,-0.5457
7105,1092,899,34.734,33.615,0.036,-0.0442,9.8298,0.0493,-0.0309,-0.0252
7110,1079,896,34.749,33.564,-0.0663,-0.0614,9.8636,0.2245,-0.5144,0.1543
7115,1074,891,34.732,33.593,0.0398,0.1053,9.8281,-0.6147,-0.0689,0.0088
7120,1071,884,34.692,33.505,0.0122,-0.0659,9.7663,0.7793,-0.0216,0.2687
7125,1068,889,34.715,33.558,0.0306,-0.0339,9.7734,0.2849,-0.3469,0.1694
7130,1070,889,34.769,33.542,-0.0027,0.0307,9.8249,0.1177,0.7536,-1.0175
7135,1068,881,34.65,33.478,0.0039,-0.0174,9.7244,-0.3751,-0.6415,0.286
7140,1059,885,34.687,33.538,0.0286,-0.0279,9.7562,-0.3046,0.2616,0.5425
7145,1064,884,34.773,33.602,-0.0008,-0.0272,9.8264,0.5176,0.7226,-0.0341
7150,1071,882,34.699,33.588,0.0197,0.0496,9.8253,0.7359,0.6054,0.6304
7155,1057,879,34.686,33.553,-0.0546,0.0525,9.8978,0.2301,0.4489,-0.4537
7160,1060,877,34.732,33.469,-0.0239,0.085,9.8315,1.1837,-0.0234,-0.4374
7165,1044,876,34.792,33.573,-0.0963,-0.0049,9.8601,-0.142,-0.4607,-0.0774
7170,1046,878,34.772,33.558,-0.031,-0.0096,9.8199,-0.6489,-1.0139,-0.0784
7175,1040,877,34.764,33.575,0.0626,-0.0933,9.8233,0.7055,-0.1128,-0.332
7180,1038,873,34.811,33.562,0.0499,-0.078,9.8006,-0.0445,0.397,0.4602
7185,1021,868,34.68,33.564,-0.0136,-0.0257,9.7585,0.5017,0.15,0.885
7190,1034,871,34.771,33.52,0.0507,-0.0115,9.9403,0.3643,0.549,-0.1935
7195,1017,866,34.693,33.61,0.0282,-0.0111,9.7493,0.1041,-0.059,0.287
7200,1006,867,34.736,33.565,0.1555,-0.0011,9.8063,0.0014,-0.9945,-0.3756
7205,1007,861,34.726,33.587,-0.01,0.0535,9.7535,-0.4738,-0.0285,-0.9853
7210,993,857,34.74,33.485,-0.0159,0.0461,9.8082,-0.5435,0.7363,0.6703
7215,993,864,34.724,33.503,0.0289,-0.0292,9.9215,0.2803,-1.0173,-0.7006
7220,996,854,34.69,33.585,-0.0096,0.0036,9.8177,-0.4777,-0.4563,-0.0167
7225,985,860,34.761,33.603,-0.0156,0.0002,9.8352,0.2529,0.4201,0.541
7230,976,857,34.713,33.54,0.1442,0.066,9.7842,-0.1109,0.2676,-0.4381
7235,972,859,34.817,33.636,0.0351,-0.0371,9.8054,0.2912,-0.0357,0.284
7240,971,854,34.712,33.602,0.0072,-0.0529,9.8845,1.1257,0.188,1.5924
7245,953,854,34.645,33.548,-0.0196,-0.0074,9.8518,0.7555,0.552,-0.4647
7250,944,846,34.755,33.602,-0.0391,-0.0769,9.794,0.4078,-0.2008,-0.0866
7255,939,850,34.743,33.431,0.0155,-0.0447,9.837,-0.3056,0.0438,0.035
7260,934,845,34.79,33.653,0.0994,-0.0374,9.7855,0.1659,0.5418,-0.3971
7265,920,842,34.827,33.629,0.0254,0.0446,9.8616,1.1896,-0.2429,0.3761
7270,921,831,34.733,33.579,-0.0238,0.0805,9.8421,0.748,-0.4984,-0.6617
7275,907,837,34.706,33.603,0.0385,0.0062,9.7809,0.3298,0.4344,-0.197
7280,892,830,34.748,33.591,0.0663,-0.019,9.8749,-0.3866,-0.4775,1.1798
7285,892,834,34.803,33.576,0.0753,-0.025,9.8256,-0.1219,-0.5586,-0.343
7290,880,829,34.626,33.595,0.0098,-0.0103,9.7982,0.1485,0.448,0.6981
7295,879,827,34.745,33.488,0.0309,0.025,9.8476,-0.4643,0.0347,-0.4403
7300,859,821,34.864,33.581,-0.0144,0.0231,9.738,0.3817,0.0917,0.3409
7305,854,824,34.692,33.626,0.0958,-0.0388,9.8036,-0.3189,-0.6335,-0.6884
7310,853,819,34.706,33.562,0.0069,-0.0207,9.8396,-0.3217,0.1594,1.0902
7315,838,813,34.63,33.605,0.0435,0.0141,9.8779,0.6042,0.3591,-0.4477
7320,834,808,34.746,33.575,-0.0621,0.0212,9.7954,-0.007,0.2793,0.0379
7325,825,808,34.767,33.537,-0.0302,0.0278,9.8337,-0.435,0.6424,0.9183
7330,812,803,34.68,33.568,0.0065,0.0359,9.8455,0.0836,-0.7567,-0.7754
7335,813,797,34.699,33.607,0.0024,0.0094,9.7695,0.2195,-0.7694,0.7855
7340,806,787,34.732,33.524,-0.026,0.11,9.7714,-0.0173,-0.3664,-0.2992
7345,786,785,34.822,33.562,0.0756,-0.0373,9.7634,-0.7328,0.01,-0.4147
7350,785,774,34.7,33.673,0.0858,0.0111,9.7911,0.1355,-0.3796,0.0045
7355,778,780,34.694,33.553,0.0038,0.0578,9.8328,0.3052,-0.7912,0.0896
7360,778,771,34.74,33.518,-0.0074,0.1268,9.7689,-0.2115,0.0111,-0.1413
7365,774,766,34.804,33.62,0.0002,0.0864,9.7916,0.9192,-0.4922,-0.7833
7370,780,762,34.671,33.652,-0.0817,0.0746,9.7885,0.3645,0.0761,-0.7564
7375,768,754,34.693,33.559,0.0402,0.0055,9.8429,-0.1073,-0.559,0.6182
7380,751,750,34.741,33.597,0.0167,0.0143,9.7601,0.2444,0.0444,0.435
7385,759,739,34.764,33.532,-0.0162,-0.0407,9.8093,-0.2622,0.3893,1.4452
7390,762,738,34.79,33.607,0.0534,-0.0387,9.8873,-0.4478,0.4022,-0.0965
7395,753,732,34.626,33.597,-0.0077,-0.0313,9.7906,-0.3113,0.4586,0.6662
7400,752,725,34.749,33.563,0.0393,0.0382,9.7779,-0.4526,-0.5946,0.8307
7405,752,714,34.739,33.539,0.0198,-0.051,9.8967,0.5357,-0.2967,0.4805
7410,741,712,34.725,33.552,0.0359,-0.0097,9.8266,-0.366,0.1131,0.0426
7415,748,717,34.748,33.531,0.0519,-0.0093,9.813,-0.0144,-0.8823,-0.5574
7420,758,695,34.736,33.658,0.028,-0.0542,9.8436,0.7289,-0.1469,-0.5957
7425,748,698,34.704,33.606,-0.014,0.037,9.7829,0.6436,0.4606,-0.081
7430,750,686,34.709,33.544,0.0171,-0.0607,9.8145,-0.2628,0.4542,0.6722
7435,748,680,34.703,33.668,-0.0507,0.0014,9.7615,-0.4055,0.164,-0.4218
7440,763,675,34.786,33.483,-0.0655,0.0183,9.6702,0.5261,-0.229,-0.3435
7445,766,671,34.71,33.53,0.0005,0.052,9.7731,-0.4186,-0.2962,0.3543
7450,763,671,34.781,33.632,0.0076,0.0113,9.7833,-0.083,0.2838,-0.2393
7455,766,667,34.727,33.548,-0.0569,0.1126,9.7484,0.7302,0.3593,0.0755
7460,778,660,34.703,33.602,0.0361,0.0564,9.7187,0.5264,-0.1247,0.2742
7465,778,658,34.739,33.581,-0.0063,-0.0481,9.7597,-0.2991,-0.4212,-0.1688
7470,777,653,34.73,33.659,0.0632,-0.0789,9.8066,0.1699,-0.6777,0.3713
7475,795,647,34.808,33.576,0.0601,-0.0649,9.8226,0.7613,-0.3226,0.1251
7480,802,641,34.709,33.562,0.0259,0.0349,9.875,-0.7013,0.3538,0.6971
7485,812,637,34.662,33.56,0.0504,0.0465,9.761,0.376,0.0239,1.1795
7490,814,633,34.742,33.584,-0.101,-0.0093,9.7816,0.625,-0.5971,-0.0883
7495,819,631,34.746,33.609,0.0015,0.024,9.8397,-0.3258,0.2044,-0.3503
7500,843,627,34.685,33.527,0.0889,-0.054,9.7569,-0.3036,0.3669,-0.4911
7505,844,632,34.715,33.585,0.0569,0.0045,9.855,0.968,0.0234,0.6772
7510,845,627,34.904,33.608,-0.0468,-0.0374,9.7154,0.5785,0.2008,0.0923
7515,866,625,34.749,33.568,0.002,-0.0135,9.8028,-0.3579,0.132,-0.7208
7520,874,622,34.709,33.575,-0.1165,0.004,9.7694,0.6776,0.2886,0.1778
7525,886,621,34.74,33.578,-0.0108,-0.0048,9.8192,0.4288,-0.2969,-0.1219
7530,898,623,34.72,33.506,0.0651,0.0727,9.7819,-0.2993,0.0374,0.4216
7535,903,616,34.711,33.565,-0.0154,-0.0631,9.8194,1.0688,-0.0966,-0.0261
7540,914,629,34.765,33.476,0.0462,0.0493,9.8218,0.1972,0.2273,-0.4889
7545,930,630,34.7,33.609,-0.0017,0.0136,9.7922,-0.0194,0.8045,-0.1148
7550,935,625,34.796,33.618,-0.0378,-0.0868,9.9317,-0.1651,0.9282,0.3926
7555,945,631,34.785,33.48,0.0087,-0.0134,9.8319,-0.4272,0.2034,-0.2411
7560,960,628,34.785,33.527,0.0217,0.0116,9.7331,0.0342,0.7496,0.5337
7565,981,630,34.718,33.503,0.007,-0.0224,9.8299,-0.0028,-0.7331,-0.0603
7570,985,641,34.761,33.608,-0.0406,0.063,9.8412,0.2089,-0.6359,0.0122
7575,996,639,34.818,33.505,0.0453,-0.03,9.7647,-0.0069,0.2479,0.894
7580,1006,642,34.738,33.597,0.0094,0.0453,9.8031,-0.2296,-0.6834,-0.0555
7585,1024,651,34.775,33.585,-0.0064,0.0158,9.7973,-0.1544,-0.477,-0.8482
7590,1029,650,34.758,33.572,0.0022,0.085,9.8589,-0.3643,-0.3374,0.1329
7595,1041,663,34.755,33.553,0.0308,0.0222,9.7804,-0.0278,0.4632,0.4922
7600,1045,666,34.817,33.577,0.054,-0.0808,9.7709,-0.0318,0.0154,-1.0775
7605,1063,675,34.71,33.586,-0.0959,0.0154,9.7373,-0.1758,-0.6306,-0.9716
7610,1072,673,34.658,33.579,0.0459,0.0635,9.7637,-0.3478,-0.9388,0.4451
7615,1079,682,34.736,33.53,-0.0261,0.1022,9.8698,0.2606,0.5722,0.8703
7620,1083,689,34.811,33.629,-0.0305,-0.021,9.686,0.3996,0.1733,-0.2463
7625,1099,694,34.81,33.575,0.0304,-0.0071,9.8168,-0.3299,-0.4164,0.7476
7630,1106,707,34.677,33.663,-0.0011,0.0438,9.7625,-0.2774,0.6451,-0.7461
7635,1112,704,34.76,33.581,-0.0689,-0.0434,9.8008,0.026,0.4863,0.0618
7640,1122,720,34.885,33.539,-0.0749,-0.0998,9.8843,0.0236,-0.0322,0.1636
7645,1124,727,34.667,33.551,0.001,-0.0627,9.8688,-0.2201,-1.1489,-0.4739
7650,1131,734,34.695,33.579,0.0275,-0.0599,9.8111,0.1744,0.4737,0.4556
7655,1147,741,34.751,33.486,0.003,0.0268,9.7531,0.059,-0.1246,-0.3357
7660,1148,745,34.778,33.631,0.0273,0.0504,9.771,-0.4038,0.1229,0.3158
7665,1156,758,34.776,33.563,0.0284,0.0879,9.8707,-0.1281,-0.1071,0.3115
7670,1163,762,34.751,33.501,-0.0299,-0.0401,9.8717,-0.8205,0.0415,-0.47
7675,1163,772,34.637,33.613,-0.0785,-0.0124,9.7646,0.4192,-0.5688,1.2533
7680,1172,778,34.72,33.537,0.0045,-0.0328,9.8324,-0.2429,0.6044,-0.8818
7685,1173,788,34.71,33.6,0.056,0.0303,9.7867,0.3908,0.8607,0.5912
7690,1177,797,34.745,33.542,-0.1403,0.0385,9.8128,0.4751,-0.39,0.1397
7695,1177,807,34.682,33.542,-0.0043,-0.0304,9.8446,0.5206,0.8554,-0.6378
7700,1177,810,34.717,33.627,-0.0399,-0.0734,9.8379,-0.1651,0.2459,-0.4398
7705,1177,821,34.704,33.631,-0.0005,0.0118,9.7934,-0.1394,0.401,0.2168
7710,1186,831,34.787,33.56,-0.0065,-0.0283,9.8705,0.3883,0.6673,-0.0241
7715,1182,833,34.788,33.572,-0.0053,0.0362,9.8204,0.2477,0.2667,-0.0351
7720,1192,843,34.761,33.536,-0.0467,-0.0422,9.7251,-0.9382,-1.0048,-0.3153
7725,1189,852,34.763,33.565,-0.0091,0.0034,9.7509,-0.0011,-0.01,-0.3453
7730,1185,855,34.768,33.531,0.0737,0.0338,9.8283,0.34,-1.0201,-0.3993
7735,1188,859,34.694,33.554,-0.0407,-0.0291,9.8086,-0.4039,0.4072,-0.0881
7740,1194,870,34.757,33.621,0.0047,-0.0341,9.7811,0.2369,1.0277,0.3044
7745,1183,875,34.786,33.618,-0.0037,0.0453,9.9139,0.2434,0.1153,0.1368
7750,1179,881,34.737,33.63,-0.0885,-0.0228,9.7919,0.1124,0.7309,-0.3567
7755,1176,891,34.749,33.571,0.0063,-0.0068,9.7988,-0.0795,0.0967,-0.2089
7760,1177,886,34.748,33.571,-0.0656,0.0542,9.8705,0.444,0.64,-0.2219
7765,1175,897,34.738,33.574,-0.0341,0.0308,9.8243,-0.0156,-0.308,-0.199
7770,1178,897,34.691,33.645,-0.034,0.0079,9.8943,0.3402,-0.7789,0.2276
7775,1178,901,34.761,33.546,-0.0102,-0.0338,9.7865,0.3262,-0.1311,-0.3537
7780,1185,911,34.794,33.615,0.0453,-0.0194,9.8238,0.0805,-0.0287,-0.1412
7785,1168,912,34.76,33.616,-0.0675,0.0643,9.8265,0.0705,-0.8674,0.1211
7790,1166,917,34.723,33.623,-0.0125,0.0104,9.8281,0.2712,-0.3303,-0.4016
7795,1170,920,34.78,33.628,-0.0551,-0.0019,9.8395,-0.1391,-0.2075,1.0574
7800,1156,917,34.776,33.514,-0.0097,0.0468,9.837,-0.8876,-0.1355,0.0803
7805,1153,921,34.72,33.581,-0.046,0.0038,9.8002,-0.1606,1.1449,0.4711
7810,1160,926,34.824,33.627,0.0609,0.0356,9.7478,-0.4967,0.6823,-0.0663
7815,1157,925,34.648,33.605,-0.0143,0.1182,9.8228,-0.8857,-0.5769,-0.2408
7820,1147,928,34.688,33.528,0.0427,-0.0305,9.8239,0.7818,-0.2102,-1.0329
7825,1153,932,34.679,33.578,0.0591,0.0477,9.8157,0.7037,0.093,-0.5398
7830,1145,931,34.686,33.553,-0.0622,0.0596,9.8027,0.6526,0.0196,0.176
7835,1127,935,34.718,33.613,0.0532,0.0566,9.8458,-0.4276,0.1511,-0.4605
7840,1131,934,34.732,33.654,-0.1108,-0.0875,9.859,-0.4666,-0.0736,0.7717
7845,1137,934,34.818,33.61,0.043,-0.0974,9.8159,-0.158,-0.6538,0.024
7850,1135,929,34.735,33.581,0.0192,-0.041,9.8126,-0.3495,-1.1738,-0.0271
7855,1127,926,34.751,33.59,-0.045,-0.0098,9.8179,0.32,-1.122,0.6728
7860,1125,932,34.782,33.564,-0.0838,-0.0455,9.9139,-0.0354,0.1502,-0.4884
7865,1119,927,34.787,33.606,-0.0428,0.0129,9.829,-0.0319,-0.024,-0.0134
7870,1109,932,34.794,33.632,0.0213,0.0481,9.7524,0.4556,-0.3363,0.2019
7875,1122,928,34.711,33.645,-0.063,-0.0174,9.8131,0.5179,0.938,0.0215
7880,1106,927,34.764,33.621,0.0197,-0.0451,9.7981,-0.3831,0.7493,0.1802
7885,1100,926,34.713,33.519,-0.0273,-0.0212,9.8976,-0.9047,0.5832,0.6831
7890,1103,921,34.747,33.592,0.0263,-0.0108,9.7891,0.1724,-0.8611,0.3918
7895,1109,919,34.813,33.638,0.016,0.0258,9.8648,-0.435,-0.0699,-0.2395
7900,1100,915,34.759,33.53,0.0146,-0.0187,9.7848,-0.3593,-0.2683,0.1507
7905,1099,917,34.599,33.625,0.1188,0.0604,9.8021,-0.0766,-0.1922,0.6478
7910,1096,916,34.762,33.531,0.0201,-0.0727,9.8721,0.3485,0.113,0.5531
7915,1090,912,34.65,33.611,0.0539,0.0154,9.8332,-0.4162,0.1491,0.9739
7920,1102,903,34.739,33.583,-0.001,0.0281,9.8461,0.2481,0.546,0.5806
7925,1083,906,34.72,33.551,0.0461,-0.0112,9.8205,0.2955,0.1481,-0.3967
7930,1093,904,34.704,33.599,0.0393,-0.0839,9.8823,0.3963,-0.6855,-0.1064
7935,1099,903,34.772,33.553,-0.0021,-0.0201,9.7741,0.2083,-0.8164,-0.4834
7940,1084,902,34.722,33.586,0.0341,-0.0427,9.8187,0.0339,-0.0727,-0.1656
7945,1082,897,34.714,33.595,-0.0176,-0.0155,9.7577,-1.092,-0.486,-0.1468
7950,1078,897,34.747,33.6,-0.0399,-0.0027,9.773,-0.0436,0.224,-0.3076
7955,1082,896,34.734,33.584,0.0118,0.0757,9.8233,-0.3662,0.6717,0.0639
7960,1076,893,34.746,33.565,0.0655,0.0292,9.8055,-0.7845,0.2447,-0.1542
7965,1073,890,34.867,33.497,0.0745,-0.0616,9.7154,0.6086,-0.6837,-0.4395
7970,1069,887,34.843,33.62,-0.0563,-0.055,9.7593,-0.6145,-0.3467,0.2871
7975,1073,884,34.686,33.539,0.0294,0.0218,9.6457,-0.7726,0.243,0.4753
7980,1069,883,34.743,33.527,0.0393,0.0188,9.7571,-0.3211,0.3987,-0.3095
7985,1071,879,34.751,33.563,-0.03,-0.0628,9.7463,-0.5853,-0.5482,-0.1006
7990,1057,887,34.666,33.5,0.0952,-0.0901,9.7477,0.4226,0.1062,0.0751
7995,1061,878,34.705,33.516,0.0183,0.0018,9.8194,0.0866,0.4951,-0.0896
8000,1059,874,34.793,33.534,0.0996,0.0024,9.8054,-0.3728,0.7546,-0.1687
8005,1054,876,34.705,33.464,-0.0455,-0.0313,9.7447,1.0185,0.6945,-0.2216
8010,1059,875,34.753,33.55,-0.0524,0.0231,9.7829,-0.2292,-0.0366,-0.1715
8015,1044,874,34.721,33.576,0.0506,0.0352,9.883,-0.3973,0.2179,-0.2323
8020,1046,867,34.724,33.507,0.0696,0.0033,9.8909,0.0704,-0.0782,-0.1583
8025,1039,873,34.794,33.551,-0.0275,-0.059,9.7894,0.6515,-0.1125,-0.4795
8029,1042,868,34.726,33.526,0.028,0.0107,9.7797,-0.2156,-0.9559,0.0881
8035,1022,867,34.755,33.459,-0.023,0.1005,9.8459,-0.0544,0.3162,0.1014
8039,1026,864,34.7,33.649,0.0204,-0.0243,9.8448,-0.649,-0.0427,0.1597
8045,1020,861,34.797,33.58,0.0873,-0.0361,9.8046,0.2313,1.2585,0.2875
8050,1005,864,34.753,33.61,-0.021,0.0031,9.8463,-0.1921,0.0192,-0.1541
8055,1001,860,34.801,33.627,-0.0079,-0.0029,9.8381,-0.5289,-0.0709,-0.541
8060,989,861,34.732,33.525,-0.049,-0.0285,9.8134,-0.2197,-0.1454,-0.1937
8064,988,860,34.713,33.525,-0.033,0.0559,9.8131,-0.1143,-0.951,-0.4328
8070,984,857,34.751,33.612,0.0358,0.1294,9.8997,-0.0774,-0.3243,-0.2288
8074,972,857,34.786,33.513,0.0773,0.0341,9.8506,-0.0751,-0.6049,0.0114
8080,961,852,34.768,33.573,0.0092,-0.0408,9.8534,-0.2337,-0.0753,-0.567
8085,955,853,34.777,33.576,-0.0141,-0.0647,9.8149,0.0377,0.7507,0.0172
8090,962,849,34.805,33.476,0.0313,0.0489,9.7558,-0.5369,0.1812,0.323
8095,954,846,34.728,33.503,-0.0509,0.0177,9.8174,-0.7439,0.1817,0.199
8100,934,846,34.714,33.538,0.0407,-0.0063,9.8038,0.9724,-1.0146,0.9576
8105,928,844,34.725,33.555,0.0258,-0.0271,9.7997,0.493,-0.1172,-0.4603
8109,915,841,34.707,33.55,0.0159,-0.0341,9.7369,0.7586,-0.0875,-0.0771
8115,908,839,34.776,33.543,0.0161,-0.0412,9.7667,-0.0315,0.7909,-0.6362
8119,908,832,34.702,33.571,0.0009,0.0491,9.7724,-0.0657,0.0677,-0.3216
8125,892,836,34.761,33.566,0.0305,0.0263,9.7528,0.4116,-0.2076,-0.3657
8130,889,839,34.807,33.571,0.0234,-0.0591,9.8746,-0.125,-0.0731,-0.126
8135,880,820,34.797,33.586,0.0519,0.0317,9.7766,-0.4241,-0.2469,0.4692
8140,872,820,34.669,33.489,-0.0012,0.0601,9.8605,-0.5348,-1.1748,0.1345
8145,859,821,34.724,33.627,0.0235,-0.0384,9.7217,0.3075,-0.4259,0.0874
8150,861,823,34.786,33.508,0.0131,0.095,9.8548,-0.438,-0.198,-0.2428
8154,843,817,34.709,33.581,-0.0363,0.0062,9.7345,0.0195,-0.0533,0.4598
8160,842,809,34.649,33.602,-0.0205,0.0111,9.8343,-0.1869,0.2465,-0.5532
8164,832,809,34.675,33.525,0.0156,0.0516,9.7714,-0.1551,0.153,-0.449
8170,816,801,34.758,33.674,-0.0154,-0.0856,9.8343,0.9299,-1.0439,0.2703
8175,812,800,34.816,33.581,0.0327,0.0074,9.8974,-0.8497,0.8088,-1.0027
8180,814,789,34.687,33.554,0.0631,0.0769,9.8229,0.1733,0.2052,0.4168
8185,799,791,34.707,33.502,0.0471,-0.0823,9.8064,0.0295,-0.4173,0.3229
8189,786,782,34.739,33.638,0.0315,0.0231,9.8596,-0.5454,-0.1846,0.1739
8195,789,776,34.703,33.592,0.0293,-0.0165,9.8624,0.3336,-0.3164,0.3664
8200,781,771,34.707,33.612,-0.0664,-0.0366,9.843,0.2128,0.8943,0.5709
8205,776,764,34.736,33.565,0.0074,0.0181,9.8132,0.3373,0.2227,-0.3584
8210,776,771,34.748,33.584,0.0121,0.0402,9.8561,0.4421,0.5702,0.0681
8215,764,756,34.82,33.666,0.0214,0.0325,9.8395,-0.6004,0.8036,0.6248
8220,766,755,34.798,33.566,-0.1487,0.023,9.7752,-0.1976,-0.3746,-0.3419
8225,764,745,34.784,33.603,-0.0148,-0.0125,9.7595,0.3079,0.043,0.295
8230,760,741,34.784,33.566,-0.0003,-0.0455,9.7698,0.4171,-0.3411,-0.735
8235,755,732,34.82,33.546,-0.0318,0.0154,9.8081,-0.3736,0.3254,0.3874
8240,742,728,34.706,33.665,-0.0003,0.0244,9.7547,0.1611,-0.0192,-0.0246
8245,747,726,34.687,33.703,0.0734,0.0027,9.8931,0.3403,-0.0478,-0.0334
8250,751,720,34.648,33.569,-0.0259,-0.0045,9.8226,1.204,-0.3039,-0.1397
8255,754,707,34.683,33.659,-0.026,0.0433,9.8089,0.3691,-0.4844,-0.4566
8260,747,700,34.811,33.6,-0.1169,-0.0864,9.7822,-0.5246,-0.1808,-0.1403
8265,748,697,34.809,33.613,-0.0944,-0.0215,9.8236,-0.4342,0.1695,0.7765
8270,747,696,34.749,33.657,0.0354,0.0062,9.8504,-0.7005,0.2679,-0.3751
8275,748,682,34.77,33.664,0.0027,0.0375,9.824,0.0411,1.0179,-0.1839
8280,759,678,34.86,33.612,-0.0098,-0.0352,9.7848,0.2006,-0.0403,0.5401
8285,764,676,34.697,33.47,0.0668,0.0944,9.8405,0.7231,0.6768,0.1657
8290,760,677,34.686,33.537,0.0213,-0.0101,9.8065,0.5383,0.2123,-0.1404
8295,765,664,34.632,33.626,-0.0252,-0.0673,9.7389,-0.3962,-0.5213,-0.3474
8300,766,666,34.649,33.589,-0.0418,-0.039,9.8295,0.3558,1.395,-0.0371
8305,774,655,34.704,33.584,0.0228,-0.0221,9.8302,-0.8757,0.3922,0.0906
8310,773,646,34.771,33.571,0.0172,-0.0135,9.6995,0.1278,0.2011,0.1737
8315,788,643,34.78,33.574,-0.0347,0.0737,9.796,0.354,-0.2097,-0.7794
8320,790,646,34.761,33.571,0.0275,-0.0624,9.7844,0.6223,0.3007,0.6504
8325,805,639,34.772,33.664,-0.0054,-0.0813,9.7478,0.3999,-0.5768,-0.1196
8330,797,637,34.751,33.611,0.0054,0.0094,9.8611,0.2944,1.0779,-0.0092
8335,822,634,34.799,33.61,-0.095,0.02,9.8073,-0.4929,-0.4289,-0.1256
8340,836,627,34.796,33.629,-0.1156,0.0718,9.845,-0.1601,-0.0727,0.9187
8345,840,626,34.772,33.548,-0.0336,-0.0086,9.8642,0.4886,0.3865,-0.081
8350,844,625,34.845,33.597,-0.088,0.0044,9.9382,-0.2119,0.543,0.7303
8355,864,628,34.749,33.608,0.0179,0.1119,9.886,-0.2422,-1.4221,0.1589
8360,867,625,34.718,33.633,0.0047,0.0277,9.8047,0.4372,-0.9535,-0.0699
8365,876,621,34.722,33.524,0.0199,-0.0511,9.8162,-0.4549,0.0366,0.5455
8370,888,621,34.699,33.672,-0.0205,0.0558,9.8214,0.4949,-0.7335,0.1884
8375,901,621,34.734,33.615,0.025,-0.0894,9.7432,0.1513,0.2594,0.61
8380,898,623,34.77,33.58,0.0387,-0.0915,9.7216,-0.4044,-0.2733,-0.2085
8385,913,633,34.794,33.582,-0.0209,-0.0434,9.7453,-0.1426,0.2662,-0.2144
8390,935,625,34.786,33.626,-0.0093,0.0668,9.8384,0.377,-0.3353,-0.2367
8395,936,628,34.816,33.572,-0.0624,-0.0123,9.7721,-0.7707,0.8228,0.2065
8400,951,633,34.686,33.551,-0.0411,-0.0446,9.8043,-1.0697,0.8712,-0.7465
8405,959,639,34.747,33.569,-0.0294,0.0883,9.7997,0.4874,0.0577,-0.1562
8410,978,634,34.713,33.561,-0.0102,0.0445,9.8028,-0.9742,0.2301,0.4542
8415,978,641,34.824,33.529,-0.0745,0.0033,9.8119,-0.1852,-0.098,-0.4075
8420,995,645,34.785,33.543,0.049,0.1329,9.7912,-0.4386,0.5365,-0.8153
8425,998,645,34.709,33.685,0.0338,0.0495,9.8773,-0.4105,-0.4599,-0.4779
8430,1018,656,34.718,33.591,0.0014,0.0121,9.8756,0.2875,0.02,0.0617
