timestamp_ms,ir_finger,ir_toe,temp_finger,temp_toe,ax,ay,az,gx,gy,gz
0,1042,687,34.629,33.628,0.0476,-0.0908,9.8936,0.0781,-0.1642,1.4388
5,1051,685,34.566,33.558,-0.0582,-0.0756,9.7032,-0.4799,-0.0632,-0.4965
10,1064,687,34.53,33.53,0.0249,-0.0258,9.808,-0.4483,0.0284,0.0163
15,1079,697,34.577,33.542,-0.0064,0.0334,9.8572,-1.0445,-0.2546,-0.2796
20,1091,700,34.634,33.608,0.0344,0.038,9.7445,-0.1367,0.147,1.3804
25,1091,717,34.58,33.634,-0.0743,0.0582,9.82,-1.7189,0.7643,0.3407
30,1098,722,34.603,33.557,0.1306,-0.0224,9.7634,-0.3448,-0.0109,0.2699
35,1108,725,34.507,33.573,0.0087,-0.0302,9.8106,0.0913,0.1799,-0.075
40,1115,731,34.511,33.594,-0.0218,0.0483,9.84,0.1725,0.4752,-0.9275
45,1123,735,34.54,33.617,0.0376,0.0247,9.8427,-0.0912,-0.3951,0.4506
50,1136,745,34.509,33.616,-0.0004,-0.06,9.6845,-0.3027,-0.4598,0.6855
55,1140,752,34.566,33.565,-0.0066,-0.021,9.7535,-0.2247,0.7586,-0.2608
60,1146,760,34.66,33.503,0.0253,-0.0142,9.7759,-0.2907,-1.0498,-0.2869
65,1151,770,34.602,33.545,0.1119,-0.007,9.7944,-0.2927,-0.465,-0.0643
70,1150,775,34.589,33.514,-0.0133,0.0242,9.887,-0.0251,0.5494,0.0008
75,1160,781,34.582,33.571,0.005,0.0821,9.808,0.5692,-0.3137,0.0527
80,1167,788,34.544,33.568,-0.0909,-0.0026,9.8142,-0.5725,0.51,0.4317
85,1180,795,34.55,33.538,0.0029,0.0263,9.7906,-0.4248,0.1195,-0.2715
90,1173,802,34.606,33.549,-0.0115,-0.0246,9.7783,-0.2845,0.2651,-0.4329
95,1182,809,34.601,33.548,0.02,0.008,9.6976,-0.6685,-0.4085,0.1718
100,1190,817,34.694,33.582,-0.0249,0.0498,9.833,-0.1009,0.8029,0.45
105,1187,820,34.683,33.599,-0.0154,0.0034,9.8462,-0.2619,-0.3779,0.9509
110,1180,834,34.5,33.552,0.0515,0.065,9.7921,0.5816,0.1051,0.139
115,1173,840,34.534,33.663,-0.0141,0.0622,9.8307,0.3739,-0.0353,0.105
120,1189,841,34.614,33.546,-0.0192,0.0358,9.8377,0.0471,0.8973,0.0017
125,1191,853,34.619,33.573,-0.0473,0.0039,9.7406,0.1264,-0.6224,-0.6438
130,1198,856,34.589,33.559,-0.0266,-0.0587,9.9042,0.2388,0.2229,0.1424
135,1196,861,34.651,33.532,-0.0076,0.0086,9.8047,0.2628,0.8015,0.1005
140,1188,871,34.48,33.558,-0.0311,0.0413,9.7457,0.4115,-0.4106,-0.0104
145,1185,871,34.638,33.568,-0.0847,-0.0217,9.7796,0.0758,-0.2157,-0.9115
150,1176,877,34.582,33.604,-0.0036,0.0189,9.865,-0.5869,-0.2162,-0.5679
155,1195,880,34.599,33.622,0.0623,-0.0933,9.8408,-0.1051,-0.1628,-0.0012
160,1181,886,34.567,33.626,-0.0024,-0.0321,9.8312,0.0794,-0.2075,0.0324
165,1173,887,34.556,33.59,-0.101,0.0513,9.7699,-0.4266,0.1265,-0.4258
170,1189,888,34.619,33.562,-0.0156,-0.0529,9.7936,-0.0007,0.1168,-0.2333
175,1173,896,34.549,33.525,-0.0039,-0.0181,9.8593,-0.7525,0.015,-0.0862
180,1167,897,34.546,33.556,0.042,0.0261,9.7627,0.7694,-0.6923,-0.4715
185,1173,897,34.653,33.567,-0.0612,-0.0598,9.7525,-1.0271,-0.4031,-0.4326
190,1166,905,34.506,33.641,0.0379,-0.0833,9.8602,-0.4909,0.2501,-0.8365
195,1166,907,34.663,33.576,-0.0152,0.0937,9.759,0.2852,0.1827,-0.0244
200,1162,905,34.624,33.572,-0.0524,0.0523,9.8046,1.1147,0.1396,0.0657
205,1153,912,34.589,33.531,-0.0077,0.0083,9.7369,0.6369,0.4919,-0.1496
210,1150,914,34.638,33.562,-0.1048,0.0112,9.8488,0.0925,0.0626,-0.2991
215,1147,916,34.498,33.564,-0.0079,0.0499,9.8563,-0.7522,-0.0469,-0.0739
220,1137,915,34.617,33.647,0.0227,0.0249,9.7899,-0.651,0.2475,0.5006
225,1136,915,34.463,33.525,0.0127,-0.1033,9.7851,-0.5572,1.1849,-0.1407
230,1137,915,34.468,33.515,0.018,0.0036,9.9287,-0.0651,0.4693,-0.6714
235,1144,916,34.609,33.496,-0.0711,-0.0806,9.8301,0.0566,-0.9123,-0.2071
240,1139,915,34.547,33.566,0.1288,-0.0737,9.8084,0.2212,0.1281,0.0155
245,1123,918,34.506,33.605,-0.0829,-0.0423,9.8265,-0.3192,-0.9356,0.859
250,1135,919,34.473,33.579,0.0332,-0.0867,9.7459,-0.4823,0.3425,-0.3077
255,1121,911,34.52,33.54,-0.0534,-0.0063,9.7341,-0.857,0.572,-0.1084
260,1128,913,34.588,33.558,-0.0694,0.0983,9.7906,0.7185,0.5214,-0.0936
265,1113,913,34.549,33.569,0.0237,-0.0062,9.7979,0.3927,0.0676,-0.0768
270,1109,910,34.568,33.587,-0.0138,-0.0665,9.8143,-0.5331,-0.037,-0.2452
275,1114,910,34.596,33.586,0.0036,0.0305,9.8164,-0.2429,0.3501,0.5944
280,1123,914,34.584,33.552,0.1125,0.0283,9.7785,0.3609,-0.0881,0.0351
285,1105,906,34.522,33.574,0.1082,0.0043,9.7988,0.1545,0.5085,1.2945
290,1108,903,34.609,33.625,0.0567,0.0264,9.8488,0.4903,0.4237,-0.3229
295,1100,899,34.663,33.532,0.0379,-0.0318,9.8058,0.2999,-0.3456,-1.0603
300,1097,899,34.597,33.538,-0.0159,-0.1233,9.7583,0.1663,0.0919,0.3486
305,1103,897,34.578,33.624,0.0329,-0.0358,9.7531,0.7589,-0.6973,-0.4515
310,1100,897,34.517,33.653,0.017,-0.0703,9.8561,0.0313,-0.7285,1.4598
315,1091,895,34.605,33.687,-0.0246,0.0397,9.93,-0.7567,-0.5689,-0.9256
320,1095,892,34.651,33.566,0.0215,0.0259,9.8332,0.1686,-0.0724,-0.5681
325,1091,890,34.508,33.546,0.0331,0.0111,9.8812,-0.0541,0.6465,-0.4771
330,1087,885,34.529,33.639,-0.019,-0.0141,9.8275,-0.8799,0.3626,-0.492
335,1087,888,34.565,33.551,0.0221,-0.0275,9.8125,0.0812,0.2435,0.1745
340,1081,878,34.646,33.558,-0.0214,0.0153,9.8079,-0.0229,-0.3087,0.0508
345,1097,888,34.52,33.545,-0.0087,0.0299,9.8618,-1.1801,-0.1744,0.1563
350,1084,880,34.492,33.661,-0.0425,0.1309,9.8137,0.0355,-0.7034,-0.4547
355,1079,880,34.688,33.549,-0.0174,0.0121,9.7715,-0.4995,0.1107,0.446
360,1068,879,34.549,33.576,0.0309,0.0017,9.8084,0.3425,0.017,0.5
365,1070,877,34.633,33.513,-0.0373,0.0294,9.8296,0.0302,0.6523,1.4915
370,1075,868,34.639,33.572,-0.0036,0.1106,9.8023,-0.3331,0.088,0.6137
375,1069,874,34.512,33.575,-0.0267,0.0444,9.7529,-1.0912,0.6445,-0.4739
380,1064,872,34.546,33.577,0.0355,0.0326,9.7148,-0.1987,0.1763,0.2427
385,1061,868,34.537,33.565,-0.0493,-0.0355,9.6716,0.2227,-0.4194,0.3085
390,1056,866,34.576,33.625,0.0506,0.0053,9.7949,-0.1376,0.1426,0.6631
395,1053,871,34.551,33.515,-0.0068,0.0036,9.7987,0.9013,-0.6395,0.0989
400,1045,870,34.589,33.478,-0.07,0.0323,9.8548,-0.1393,-0.2325,-0.4559
405,1050,859,34.524,33.517,-0.001,0.0674,9.8591,-0.8104,-0.2575,-0.0052
410,1038,864,34.539,33.659,-0.0333,-0.0689,9.6973,0.4438,-0.3159,-0.6661
415,1035,863,34.517,33.58,0.0389,-0.0823,9.7816,-0.5004,-0.1719,-0.5303
420,1033,854,34.596,33.554,0.0447,0.0323,9.9173,0.2937,0.3536,0.1848
425,1036,852,34.599,33.579,-0.0986,0.0608,9.8403,0.303,-0.2913,0.0897
430,1018,848,34.499,33.597,0.0021,-0.045,9.734,0.0192,-0.013,0.0815
435,1016,851,34.609,33.616,-0.0076,-0.0534,9.7718,0.2736,-0.1323,0.7118
440,998,855,34.552,33.587,-0.0066,-0.0566,9.7572,-0.3269,-0.4199,-0.6571
445,1003,852,34.665,33.486,0.0782,0.0083,9.8036,0.1295,0.3487,-0.2806
450,1006,846,34.603,33.576,-0.0462,-0.0463,9.8053,0.1181,-0.2755,-0.4544
455,989,849,34.482,33.533,-0.049,0.0317,9.859,-0.2055,0.2051,-0.2814
460,992,847,34.522,33.579,0.0328,0.0137,9.7888,0.134,-0.9872,0.2127
465,978,847,34.594,33.567,-0.026,0.0006,9.7898,-0.3464,-0.7029,-0.1526
470,975,848,34.571,33.585,0.0188,0.0517,9.8686,0.0328,0.3135,0.1223
475,967,843,34.604,33.565,0.0061,0.003,9.7923,-0.2797,0.1323,-0.1564
480,958,844,34.558,33.549,0.0185,-0.0435,9.7971,-0.4144,0.3639,0.4418
485,946,840,34.52,33.534,-0.0791,0.0167,9.8496,-0.2195,-0.3132,-0.239
490,940,839,34.566,33.536,-0.0489,-0.0391,9.7879,0.1823,0.3287,0.5005
495,928,836,34.576,33.499,-0.0638,0.0645,9.9052,-0.0379,-1.3438,0.7672
500,920,830,34.608,33.59,-0.0592,-0.0563,9.8973,0.8088,-0.0321,1.7456
505,916,831,34.632,33.652,-0.0652,0.021,9.7601,-0.6024,0.5917,-0.6854
510,903,828,34.512,33.588,0.0574,0.0599,9.8267,0.0219,-0.2914,0.2678
515,887,827,34.578,33.509,0.0524,-0.0015,9.8404,-0.2373,0.6785,-0.2601
520,886,822,34.52,33.456,-0.0148,-0.007,9.7234,-0.2068,0.7408,-0.3013
525,885,817,34.637,33.518,0.0514,-0.0549,9.7428,0.3152,0.4272,-0.1034
530,876,820,34.589,33.503,0.0102,-0.0004,9.8489,0.0285,0.6617,0.5561
535,852,815,34.504,33.504,0.0328,-0.0506,9.8163,-0.2577,-0.119,0.7134
540,848,809,34.565,33.629,-0.0947,0.0174,9.826,0.1253,0.2909,-0.5505
545,841,809,34.621,33.539,-0.0798,0.0136,9.7749,-0.0375,-0.2361,-0.1757
550,842,801,34.544,33.557,-0.014,-0.0251,9.7235,-0.6311,0.8017,0.5687
555,824,799,34.547,33.546,-0.0369,0.0416,9.776,0.2465,0.1386,-1.0381
560,820,793,34.52,33.562,-0.0056,-0.0886,9.8503,0.513,0.3488,-0.6131
565,808,790,34.541,33.5,0.0584,-0.0409,9.7347,-0.2004,-1.0748,-0.1382
570,798,787,34.527,33.505,-0.015,0.0639,9.8135,0.457,-0.3607,-0.1356
575,801,784,34.619,33.553,-0.0328,0.0062,9.7912,0.3755,0.151,-0.3801
580,791,777,34.554,33.587,0.0154,0.0162,9.7931,-0.2614,-0.0224,0.3659
585,791,768,34.637,33.496,0.0401,0.0839,9.7797,0.4875,-0.0582,0.4398
590,776,771,34.624,33.564,0.0602,0.0027,9.822,0.304,-0.5027,0.6611
595,773,760,34.573,33.596,0.0803,0.0026,9.8192,-0.5651,0.9188,-0.0177
600,770,758,34.487,33.532,0.0043,0.0722,9.8444,-1.1064,0.7834,0.3698
605,763,751,34.544,33.596,0.0262,-0.016,9.8249,0.3012,-0.1335,0.1883
610,760,751,34.572,33.556,-0.0064,0.0882,9.9024,-0.1397,-0.4707,-0.2366
615,753,741,34.433,33.545,-0.0371,0.0186,9.8723,-0.275,-0.5027,-0.0423
620,755,734,34.495,33.648,-0.0054,-0.0271,9.8488,0.1415,0.1942,0.6821
625,749,729,34.576,33.593,0.0366,-0.059,9.7668,0.1077,0.5445,-0.4159
630,746,728,34.584,33.628,0.0439,-0.0575,9.8615,0.1321,0.4941,0.0269
635,746,718,34.615,33.562,0.031,0.1193,9.7661,-0.2345,0.5168,0.6811
640,756,708,34.628,33.45,0.0499,0.0424,9.8255,-0.3614,0.1976,-0.7427
645,757,711,34.559,33.66,0.0315,-0.0807,9.8488,-0.3675,-0.1359,0.9159
650,749,699,34.573,33.554,-0.0157,-0.0019,9.807,0.3042,-0.1372,0.2611
655,752,698,34.559,33.536,-0.0685,-0.0177,9.7985,0.9834,0.6882,0.4757
660,753,690,34.564,33.551,-0.0215,-0.0137,9.8232,0.1021,0.9195,0.1074
665,758,687,34.567,33.586,-0.0011,0.0399,9.7192,-0.0432,0.8696,0.4867
670,755,680,34.581,33.59,-0.0552,-0.0371,9.7999,-0.3386,0.8059,0.3478
675,760,679,34.521,33.591,-0.0368,0.0351,9.9046,-0.4852,-0.7124,0.2962
680,770,672,34.545,33.532,0.0838,0.0828,9.851,0.1904,0.0444,0.0886
685,767,669,34.566,33.509,-0.0289,0.0072,9.8262,-0.074,-0.2742,-0.0913
690,783,667,34.603,33.538,0.0511,-0.0328,9.7772,-0.5277,-0.0632,-0.1681
695,786,670,34.637,33.547,0.0248,0.0357,9.8177,0.4363,-0.1901,0.2738
700,787,660,34.53,33.61,-0.0368,-0.0243,9.7742,-0.0509,0.3254,-0.1486
705,797,653,34.573,33.511,0.0343,-0.0692,9.8677,0.85,-0.3558,0.1147
710,803,655,34.564,33.543,0.0066,0.0933,9.8554,-0.4401,0.2491,-1.2208
715,808,652,34.644,33.53,-0.0194,0.0611,9.8448,-0.5393,-0.1404,0.0008
720,820,651,34.617,33.543,0.0063,-0.0072,9.817,-0.0401,0.4664,-0.2644
725,838,646,34.557,33.636,0.0312,0.0013,9.7912,0.1285,-0.2692,0.1704
730,832,648,34.509,33.624,0.0457,-0.041,9.8105,-0.5271,0.1787,0.7439
735,852,643,34.703,33.552,0.1491,-0.1094,9.8083,-1.136,-0.0735,0.1668
740,858,647,34.559,33.628,0.0118,0.0394,9.841,0.8738,0.1007,0.5624
745,860,640,34.54,33.522,0.0887,0.0092,9.8065,-0.2926,-0.0501,-0.1345
750,883,643,34.501,33.639,0.0434,-0.0012,9.8095,-0.7842,-0.0033,-0.0421
755,896,639,34.671,33.573,-0.0339,-0.0118,9.7879,0.6995,0.6305,0.5012
760,906,646,34.522,33.579,-0.0006,0.0301,9.7975,-0.2557,-0.3115,0.2954
765,916,641,34.608,33.584,0.0565,-0.0721,9.8694,0.0282,-0.4192,-0.341
770,933,645,34.597,33.573,0.0646,-0.0168,9.8791,0.0718,0.716,-0.2818
775,945,654,34.489,33.623,-0.0049,-0.0143,9.8359,0.3942,0.8517,0.4738
780,948,650,34.515,33.663,0.0483,-0.0151,9.8451,-0.3359,0.6804,0.6111
785,966,653,34.522,33.543,0.097,0.002,9.7865,0.3873,0.4107,-0.7042
790,980,657,34.527,33.563,0.0137,-0.0767,9.8246,-0.3718,0.2726,0.0963
795,994,662,34.583,33.558,0.0947,0.0559,9.813,0.318,-0.2551,-0.1124
800,997,670,34.521,33.522,0.0821,-0.0103,9.7938,-0.5306,-0.4161,-0.0254
805,1013,668,34.563,33.596,0.0394,-0.0009,9.7588,-0.3886,0.4216,0.1903
810,1024,675,34.565,33.549,0.085,-0.0188,9.82,0.8892,-0.496,1.1595
815,1028,673,34.533,33.557,0.0718,-0.0081,9.8738,0.5935,-0.5156,-0.0819
820,1053,687,34.56,33.513,-0.0042,-0.0484,9.8462,-0.6748,-0.6363,-0.6346
825,1055,693,34.573,33.545,0.0542,0.0414,9.863,-0.7364,-0.548,-0.2773
830,1065,696,34.535,33.622,-0.0061,0.0062,9.8132,-0.4029,-0.2683,-0.0672
835,1079,697,34.581,33.517,-0.0724,-0.0246,9.8176,-0.1263,-0.0539,0.2573
840,1087,704,34.58,33.527,-0.0293,0.0377,9.8014,0.1018,0.588,0.1636
845,1099,716,34.581,33.581,-0.0263,-0.042,9.7847,-0.371,0.135,0.6566
850,1106,722,34.581,33.628,0.0838,0.018,9.8232,0.0323,0.1704,-0.2685
855,1125,728,34.587,33.593,0.038,0.0041,9.8323,0.6561,-0.1731,-0.8151
860,1124,734,34.573,33.601,-0.0267,0.0726,9.8777,0.324,-0.218,-0.211
865,1131,735,34.516,33.599,-0.113,0.0107,9.8261,-0.5568,1.1979,-0.8373
870,1132,748,34.493,33.634,0.0171,0.0677,9.7388,0.0407,-0.4225,0.0607
875,1141,754,34.516,33.494,0.0674,-0.0049,9.7885,0.1965,-0.065,-0.2442
880,1154,760,34.62,33.541,0.0429,-0.0311,9.7913,-0.3887,-0.3469,0.4408
885,1155,767,34.567,33.519,-0.0296,-0.0482,9.8954,0.0736,-0.016,-0.5905
890,1162,774,34.608,33.589,-0.0006,-0.0271,9.7924,1.4946,-0.2223,0.4031
895,1170,792,34.68,33.627,-0.0496,0.0016,9.7989,-0.1041,-0.3151,-0.5031
900,1166,791,34.603,33.565,-0.105,0.0883,9.7985,-0.4356,-0.0559,-0.4463
905,1181,798,34.618,33.522,-0.1164,0.0399,9.8508,-0.3584,0.1946,1.0896
910,1172,811,34.66,33.672,-0.0456,0.0427,9.8023,0.2616,-0.0488,-0.1875
915,1182,814,34.547,33.518,0.007,0.0184,9.7689,0.2532,0.7219,-0.8876
920,1178,823,34.559,33.553,-0.0104,-0.0188,9.8208,0.4588,0.4512,0.3528
925,1183,826,34.597,33.705,0.0586,0.0617,9.7203,-0.1396,0.2092,0.2143
930,1190,833,34.593,33.549,0.0352,0.0183,9.7343,0.0581,0.0791,0.3113
935,1191,841,34.587,33.52,0.0418,0.0982,9.8079,-0.3123,-0.7958,-0.1572
940,1178,848,34.553,33.584,-0.0136,-0.1044,9.8903,-0.4238,-0.2495,-0.6671
945,1185,853,34.692,33.573,-0.0378,-0.0671,9.8118,0.1539,0.8901,-0.0124
950,1184,859,34.511,33.517,0.0655,-0.0151,9.842,0.1132,0.2734,0.5455
955,1182,866,34.543,33.619,-0.0038,-0.0268,9.8585,-0.2547,0.4219,0.719
960,1198,867,34.497,33.543,-0.092,-0.0459,9.8348,-0.1014,0.1571,-0.0676
965,1184,867,34.566,33.523,-0.0851,-0.0116,9.8218,0.1957,0.073,-0.1206
970,1176,876,34.503,33.541,0.0606,0.0229,9.8433,0.5388,-0.2953,-0.4043
975,1178,889,34.551,33.56,0.0563,-0.0011,9.8483,-0.3717,-0.3886,-0.6904
980,1179,888,34.622,33.585,0.0524,-0.0297,9.7733,0.2125,0.4677,-0.5439
985,1174,886,34.561,33.596,-0.1128,-0.0222,9.7624,0.4175,0.3593,0.2782
990,1170,896,34.559,33.582,-0.0122,-0.071,9.7992,-0.2309,0.4129,0.7321
995,1173,897,34.558,33.595,-0.0151,-0.0493,9.7569,-0.3353,-0.4555,-0.0967
1000,1179,899,34.567,33.512,0.0094,-0.0326,9.7437,-0.4301,0.8019,0.0412
1004,1168,906,34.624,33.597,0.0689,-0.0141,9.8705,0.1785,0.3262,-0.0297
1010,1172,908,34.613,33.484,-0.0523,-0.0321,9.8216,-0.1225,0.5008,-0.1602
1014,1165,909,34.604,33.594,0.0015,0.0234,9.8613,-0.5255,-0.8831,-0.3723
1020,1158,917,34.577,33.574,0.0642,0.0402,9.7526,-0.5609,0.6728,0.0852
1025,1162,909,34.533,33.566,0.0213,-0.0304,9.7105,-0.2419,-0.1565,-0.5269
1030,1149,913,34.562,33.557,-0.0015,-0.0299,9.728,-0.6167,0.0248,-0.0809
1035,1153,913,34.508,33.591,-0.0714,0.0162,9.8853,-0.2621,-0.2112,0.5693
1040,1145,917,34.633,33.599,-0.0227,-0.0459,9.9235,-0.0049,-0.5749,-0.994
1045,1142,912,34.613,33.564,-0.0118,0.0459,9.8967,-0.4406,-0.1768,1.3944
1050,1136,916,34.608,33.47,-0.0189,0.0118,9.8361,-0.755,-0.3845,-0.2774
1055,1135,918,34.552,33.588,-0.0482,0.0485,9.8049,0.2546,-0.1831,-0.8096
1060,1137,920,34.604,33.567,0.006,0.0142,9.7252,-0.0555,0.3224,-0.1922
1065,1132,911,34.592,33.553,0.0463,-0.085,9.8085,-0.3107,0.1558,-0.1736
1070,1127,916,34.566,33.542,0.0367,0.0047,9.8229,0.0715,-0.3061,-0.2291
1075,1124,913,34.561,33.584,0.0813,-0.0485,9.7743,0.2441,-0.0896,0.2418
1080,1112,911,34.538,33.623,0.1286,0.0378,9.7946,0.4857,0.8256,0.2126
1085,1117,910,34.573,33.534,-0.057,0.0644,9.7718,-0.3284,-0.0135,-0.2048
1090,1109,914,34.598,33.477,-0.0388,-0.0272,9.7482,0.0345,0.5055,-0.116
1095,1103,910,34.629,33.601,-0.1147,-0.0157,9.7865,-0.5216,-0.3948,0.0919
1100,1114,907,34.573,33.628,0.0156,0.0635,9.745,0.6187,-0.3771,0.6065
1105,1103,903,34.547,33.568,0.0128,-0.049,9.8179,-0.1889,-0.1171,0.3072
1110,1105,904,34.609,33.558,-0.004,-0.0202,9.7524,0.6845,0.2825,-0.4664
1115,1109,904,34.582,33.657,-0.0148,0.0542,9.853,-0.1962,-0.0615,-0.8604
1120,1101,901,34.612,33.526,0.0101,0.0246,9.7411,-0.022,-0.3574,-0.0633
1125,1103,908,34.601,33.596,-0.0374,-0.0327,9.8269,-0.969,0.0228,-0.0473
1130,1097,895,34.654,33.667,0.0355,0.0011,9.8196,-0.0129,-0.0066,0.4799
1135,1090,891,34.525,33.595,0.0029,0.0397,9.8955,-0.2285,0.3448,-0.0038
1140,1092,895,34.545,33.617,-0.0535,0.101,9.8993,-0.7387,0.7384,-0.3615
1145,1095,891,34.685,33.557,-0.0229,-0.0072,9.8571,-0.9103,0.1796,-0.4315
1150,1091,892,34.488,33.552,0.0277,-0.0217,9.7609,0.652,0.1817,0.2403
1155,1087,883,34.623,33.633,-0.0194,0.0231,9.7604,-0.2325,-0.6926,-0.2901
1160,1080,885,34.567,33.698,-0.0688,0.0185,9.8786,-0.262,-0.8603,-0.1083
1165,1090,884,34.516,33.59,0.0856,-0.0784,9.8291,-0.9035,0.683,-0.8136
1170,1075,879,34.729,33.521,0.0074,-0.0289,9.8097,0.3515,0.4937,0.2819
1175,1075,881,34.57,33.557,-0.0248,0.0128,9.8294,0.294,-0.2737,-0.1721
1180,1077,879,34.617,33.651,-0.0089,0.0467,9.6563,0.0534,-0.8662,-0.473
1185,1057,872,34.543,33.565,0.0519,0.0066,9.812,0.6678,0.5737,0.0219
1190,1075,872,34.641,33.648,0.0145,0.0332,9.8745,-0.0959,0.5272,-0.6673
1195,1072,869,34.582,33.587,-0.0548,-0.0533,9.8247,0.481,0.3776,0.2448
1200,1062,871,34.546,33.506,0.005,-0.0441,9.8097,-0.0451,0.5172,0.1602
1205,1062,864,34.576,33.534,0.0418,0.0461,9.8648,-0.2186,1.1442,-0.4452
1210,1060,861,34.648,33.589,0.0495,0.0366,9.784,-0.533,-0.092,0.0593
1215,1059,870,34.54,33.57,0.0408,0.081,9.8383,0.625,-0.4608,0.3667
1220,1053,867,34.569,33.603,0.0268,0.0386,9.8122,0.81,0.1472,0.3557
1225,1048,856,34.595,33.536,0.0636,0.1041,9.6953,0.2911,-0.1589,-0.4383
1230,1049,861,34.516,33.725,0.0765,0.0177,9.8443,0.074,-0.5027,0.4316
1235,1029,856,34.583,33.581,0.0361,0.024,9.8689,0.6362,0.242,-0.2143
1240,1035,860,34.592,33.538,0.0328,-0.0089,9.8015,0.8967,-0.5655,0.1334
1245,1028,858,34.509,33.495,0.012,-0.0297,9.8325,-0.6381,-0.1965,-0.255
1250,1028,854,34.542,33.516,-0.0088,0.0214,9.8298,0.0908,0.0743,-0.3054
1255,1018,852,34.504,33.661,-0.0647,-0.0337,9.8152,0.0608,0.4549,0.6141
1260,1005,854,34.572,33.566,0.012,-0.091,9.7537,0.4118,0.3914,-0.1468
1265,1006,853,34.537,33.593,0.0125,0.0355,9.8026,0.6699,-0.0741,-0.688
1270,1000,853,34.605,33.606,-0.0274,-0.0198,9.8477,0.0505,0.5998,-0.4889
1275,995,848,34.556,33.625,0.0301,-0.0552,9.7616,-0.7467,0.0702,-0.0734
1280,984,850,34.601,33.565,0.0511,0.0748,9.7441,-1.0256,-0.9809,0.5488
1285,972,848,34.58,33.534,0.0234,0.0041,9.7541,0.1772,-0.418,0.4991
1290,964,842,34.57,33.541,0.0106,0.0032,9.7649,0.5649,0.4677,0.0239
1295,962,841,34.579,33.541,0.0288,0.0139,9.7121,0.9554,-0.358,-0.4428
1300,951,837,34.583,33.591,0.0069,-0.0074,9.8288,0.6233,-0.4561,0.2327
1305,942,839,34.512,33.677,0.0159,0.0083,9.8173,0.0614,-0.8379,0.1371
1310,931,834,34.587,33.437,0.077,-0.0559,9.799,0.082,0.489,0.0632
1315,925,833,34.556,33.568,-0.0092,-0.0072,9.7874,-1.1201,0.5645,0.2923
1320,918,829,34.581,33.612,0.0218,0.0229,9.7851,0.092,-0.1494,-0.8544
1325,915,834,34.566,33.601,-0.0119,0.0739,9.8524,0.1755,-0.1968,-0.3914
1330,897,827,34.595,33.532,0.0419,0.0283,9.7809,-0.0924,-0.2019,1.0153
1335,883,826,34.559,33.548,-0.048,-0.0603,9.7456,-0.2964,-0.1607,-0.8104
1340,887,823,34.506,33.585,0.0383,0.0146,9.7838,0.4353,-0.0554,-0.2662
1345,874,818,34.542,33.523,-0.0393,-0.0316,9.7265,-0.6269,0.6764,0.4786
1350,871,818,34.565,33.506,0.0066,-0.1015,9.7706,-0.2861,-0.4299,0.4519
1355,860,811,34.587,33.52,0.063,-0.0264,9.8269,-0.6369,-0.3872,0.0473
1360,843,809,34.642,33.56,0.0167,-0.0005,9.8486,0.5529,-0.3517,0.0297
1365,849,808,34.586,33.668,-0.037,0.0458,9.7621,0.1564,0.3053,-0.7088
1370,837,804,34.607,33.569,0.0714,0.0404,9.8766,-0.588,-0.4046,0.3377
1375,831,796,34.564,33.553,0.021,0.0332,9.8723,0.1033,-0.1669,0.0062
1380,830,793,34.57,33.529,-0.0381,-0.0165,9.8296,0.8771,-0.3212,-0.1082
1385,798,786,34.645,33.564,-0.0951,-0.0081,9.8768,-0.6611,-0.1846,1.0307
1390,790,782,34.502,33.549,-0.04,-0.0604,9.821,0.1657,0.4219,-0.0141
1395,793,780,34.573,33.614,0.0224,0.0173,9.9654,-0.1386,-0.7273,-0.6882
1400,783,781,34.517,33.611,0.0303,-0.0115,9.8464,-0.3132,0.7229,-0.549
1405,775,773,34.67,33.612,0.0571,0.047,9.8053,0.0893,0.1032,-0.3134
1410,777,761,34.551,33.575,0.0834,0.0174,9.7953,-0.6701,0.8741,-0.5089
1415,777,762,34.584,33.487,-0.0068,0.0852,9.8739,-0.8933,-0.0366,-0.1198
1420,763,761,34.542,33.581,0.0208,0.0212,9.8183,0.57,0.6444,0.3704
1425,759,756,34.623,33.515,0.0771,-0.0044,9.8471,1.4282,0.8949,-0.1233
1430,764,746,34.676,33.617,0.0815,-0.0089,9.7519,-0.4687,-0.4771,-0.6484
1435,756,738,34.579,33.585,0.0394,-0.0397,9.7603,-0.5901,0.9223,-1.1427
1440,755,730,34.536,33.539,0.043,0.0154,9.8818,-0.641,0.5143,0.1025
1445,758,732,34.558,33.587,0.056,-0.0503,9.787,0.1533,-0.1345,-0.4008
1450,750,725,34.734,33.628,0.0558,0.0375,9.7539,0.6047,0.2672,0.157
1455,743,721,34.525,33.548,-0.0605,-0.0333,9.7188,-0.4469,-0.3402,-0.0148
1460,748,717,34.57,33.583,0.0514,-0.012,9.779,0.0968,-0.0225,0.3313
1465,747,713,34.583,33.509,0.0762,-0.0282,9.8148,0.2133,0.3207,-0.2464
1470,759,708,34.552,33.619,-0.0096,-0.0813,9.7825,-0.136,0.1726,-0.713
1475,749,698,34.553,33.562,0.0897,0.0341,9.7804,0.6833,-0.5302,1.359
1480,754,689,34.631,33.566,-0.0063,0.0001,9.8227,-0.1095,-0.3894,0.9654
1485,751,692,34.597,33.602,0.0474,0.0052,9.7726,-0.1783,-0.318,-0.4875
1490,761,686,34.57,33.62,0.089,0.0425,9.8534,0.0453,-0.0972,0.6141
1495,758,672,34.569,33.662,0.0035,-0.0406,9.7674,0.4475,-0.2286,0.2651
1500,764,674,34.611,33.506,0.086,-0.0537,9.8218,0.2307,-0.4276,-0.5857
1505,772,672,34.606,33.549,0.0448,0.0243,9.7899,0.4787,0.3148,0.1173
1510,781,674,34.519,33.489,-0.0178,0.0476,9.9155,0.6073,-0.7935,0.2931
1515,781,662,34.577,33.573,0.0766,0.0809,9.8524,-0.9052,-0.2116,0.1288
1520,788,660,34.621,33.515,-0.0315,-0.0043,9.8044,-0.0315,0.648,0.3052
1525,798,653,34.603,33.535,-0.0109,-0.0577,9.8469,-0.2533,0.1709,-0.275
1530,807,656,34.572,33.527,-0.0213,-0.0617,9.7747,-0.9904,-1.5158,0.673
1535,809,652,34.523,33.614,-0.0267,0.0194,9.8439,-0.9038,-0.2453,-0.554
1540,826,648,34.642,33.574,0.0144,0.0252,9.7988,-1.0177,-0.5408,-0.2636
1545,838,651,34.673,33.609,-0.0313,-0.0121,9.9086,-0.0179,0.8328,-0.3261
1550,850,647,34.554,33.654,0.0139,0.0704,9.7885,0.3421,0.6203,0.3691
1555,861,647,34.655,33.608,-0.0612,0.0244,9.7622,0.7784,0.0694,-0.2953
1560,858,641,34.566,33.582,-0.0621,0.0292,9.7348,0.029,0.1668,-0.1203
1565,872,646,34.56,33.593,0.0103,-0.0172,9.8999,-0.2964,0.6216,0.2114
1570,882,642,34.529,33.595,0.0366,0.0668,9.9167,0.12,0.2975,0.0233
1575,901,643,34.524,33.532,-0.0563,0.0735,9.9336,-0.0653,0.1923,-0.3406
1580,908,649,34.589,33.594,0.0301,0.0103,9.8566,-0.4846,0.5925,0.9279
1585,916,643,34.555,33.546,-0.1078,-0.0221,9.8691,0.3817,-0.1952,-0.0173
1590,932,651,34.592,33.528,-0.0079,0.0042,9.7566,0.1345,-0.3922,-0.2153
1595,942,652,34.653,33.52,-0.0589,0.0496,9.7511,-0.1733,0.6863,0.0173
1600,950,659,34.634,33.579,0.0155,-0.0595,9.7852,0.4659,0.3012,-0.2059
1605,968,660,34.561,33.631,-0.0693,0.0698,9.7086,-0.2169,0.3609,0.3084
1610,981,659,34.564,33.623,0.0807,0.0876,9.7685,0.1913,-0.3262,-0.0197
1615,993,657,34.564,33.536,-0.0482,-0.0014,9.7547,0.4942,-0.2986,-0.4929
1620,999,667,34.526,33.643,-0.0228,-0.0153,9.7668,0.2795,0.2439,-0.0792
1625,1015,669,34.538,33.641,-0.0669,-0.0258,9.8763,0.135,0.8498,-0.3705
1630,1020,677,34.614,33.584,-0.0173,0.023,9.7961,-1.1933,0.4318,-0.3099
1635,1034,679,34.536,33.573,0.0399,0.0447,9.8118,0.2536,-0.7188,-0.4072
1640,1059,684,34.542,33.539,0.1093,0.0104,9.86,0.4601,0.6874,-1.1025
1645,1058,689,34.572,33.602,-0.0181,-0.1043,9.8406,0.2992,0.3961,-0.1323
1650,1069,696,34.576,33.594,-0.0262,0.1097,9.8161,-0.9781,0.6988,0.1443
1655,1085,705,34.544,33.556,0.0144,-0.0187,9.8045,0.8274,-0.0333,-1.068
1660,1087,712,34.625,33.623,-0.0229,-0.0241,9.7691,-0.2623,-0.6486,-1.1216
1665,1097,719,34.622,33.537,0.0071,-0.0085,9.7569,-0.2781,0.5478,-0.0356
1670,1101,716,34.546,33.612,0.0184,0.0403,9.9026,0.2661,0.7413,0.5468
1675,1118,727,34.504,33.622,-0.021,0.0164,9.8518,0.2748,-0.4858,0.5679
1680,1117,735,34.602,33.597,0.0031,-0.0394,9.8073,-0.0759,-0.742,0.4619
1685,1135,737,34.55,33.507,-0.0302,0.0216,9.8379,-0.0146,0.1883,-1.0186
1690,1133,744,34.623,33.571,0.04,-0.0354,9.7873,-0.1353,-0.2956,0.5224
1695,1148,755,34.502,33.572,0.0029,0.0946,9.8945,-0.035,0.0246,-0.2085
1700,1158,763,34.64,33.627,-0.0089,-0.0298,9.8264,0.339,0.6023,0.2791
1705,1165,776,34.637,33.563,0.0133,0.037,9.89,0.6327,0.2706,0.4284
1710,1169,783,34.657,33.643,0.007,-0.0382,9.8402,0.3424,0.6971,-0.4676
1715,1163,784,34.618,33.554,-0.0847,-0.0787,9.8191,-0.3113,-0.5252,-0.6639
1720,1166,793,34.552,33.544,-0.0374,0.0134,9.8885,-0.0692,0.4973,0.2968
1725,1173,805,34.585,33.52,-0.0382,0.1764,9.779,0.6053,-0.7172,0.2715
1730,1176,808,34.555,33.494,0.0167,-0.0214,9.7786,0.3102,-0.4792,-0.2987
1735,1170,814,34.522,33.598,-0.0456,0.0306,9.7849,-0.0289,0.3281,0.4568
1740,1179,821,34.625,33.604,0.0151,-0.0159,9.8345,-0.7377,0.9383,0.5157
1745,1188,824,34.63,33.604,0.0695,-0.008,9.7929,0.6025,-0.2304,-0.7608
1750,1181,836,34.51,33.601,0.0377,0.0557,9.8734,0.0007,0.0373,-1.1752
1755,1193,838,34.578,33.573,0.0667,0.1163,9.7723,0.032,0.5156,-0.5141
1760,1177,844,34.564,33.611,-0.0748,0.0424,9.8783,0.256,-0.4655,-0.1388
1765,1190,854,34.653,33.551,-0.0089,-0.0449,9.8485,-0.231,0.6593,0.2149
1770,1196,854,34.607,33.605,-0.0238,-0.0291,9.7419,-0.0363,-0.2546,-0.3438
1775,1195,861,34.568,33.579,0.0539,0.032,9.8437,-0.7818,0.3742,-0.2466
1780,1188,869,34.644,33.578,-0.0584,0.0163,9.7936,-0.2105,0.3351,-0.3379
1785,1183,872,34.587,33.673,0.0593,0.0169,9.7498,-0.616,0.2911,0.7095
1790,1180,876,34.613,33.52,-0.0819,-0.0407,9.7816,0.1469,0.3255,0.0922
1795,1179,886,34.503,33.572,-0.0367,0.0439,9.7339,0.9939,-1.1917,-0.1884
1800,1184,889,34.621,33.584,-0.0524,-0.0032,9.8334,-0.3758,0.4265,0.5064
1805,1177,888,34.586,33.539,0.0082,0.0236,9.763,0.7994,-0.4451,0.0246
1810,1170,895,34.689,33.563,0.0534,-0.0272,9.841,-1.0014,-0.4537,0.073
1815,1172,900,34.668,33.549,0.0778,0.014,9.8147,0.9907,-0.0344,-0.049
1820,1175,899,34.604,33.654,-0.001,-0.0516,9.7551,-0.5648,-0.1456,0.28
1825,1167,907,34.632,33.632,-0.0386,0.0363,9.8812,0.4366,-0.2513,-0.7
1830,1163,912,34.523,33.468,-0.0043,-0.0074,9.7045,0.2271,-0.8518,0.118
1835,1166,905,34.629,33.481,-0.0509,-0.0751,9.7219,-0.4739,0.1343,-0.0729
1840,1155,911,34.567,33.532,-0.0476,0.0321,9.733,0.1209,-0.0506,0.1734
1845,1147,912,34.519,33.583,-0.0175,-0.0494,9.861,0.1461,-0.4732,0.7832
1850,1145,915,34.603,33.641,0.0093,-0.0608,9.8368,-0.1656,0.0585,1.0426
1855,1144,916,34.579,33.552,0.0226,-0.0171,9.7367,-1.2108,-0.0272,-0.5045
1860,1150,914,34.595,33.6,-0.0068,0.0258,9.8875,0.2977,0.1823,0.7746
1865,1144,922,34.468,33.632,-0.0107,-0.0298,9.7605,0.7199,-0.7626,-0.6501
1870,1136,916,34.61,33.64,-0.0195,-0.006,9.6925,-0.0164,0.8904,-0.5511
1875,1130,919,34.585,33.52,-0.0425,0.0433,9.8365,-0.2412,0.9819,0.1147
1880,1136,918,34.578,33.641,-0.0376,0.0446,9.8449,-0.5073,-0.8679,-0.0083
1885,1131,917,34.619,33.612,0.0454,-0.0653,9.8474,-0.1773,0.2136,-0.4681
1890,1119,918,34.491,33.57,-0.01,-0.0478,9.7789,-0.2768,-0.4204,0.2876
1895,1129,914,34.636,33.589,-0.0073,-0.1236,9.8495,0.1176,-0.7475,0.3501
1900,1114,911,34.526,33.624,-0.0541,0.0482,9.7926,0.204,0.2211,0.2686
1905,1112,914,34.602,33.611,-0.0292,-0.0173,9.7838,0.22,0.0207,-0.3012
1910,1113,906,34.568,33.614,0.0043,-0.0076,9.7743,0.4041,0.002,0.0044
1915,1117,905,34.559,33.622,0.036,0.0477,9.8039,0.1482,-0.2053,-0.1191
1920,1113,907,34.613,33.579,-0.0018,0.0353,9.7912,0.4131,-0.4567,-0.4954
1925,1104,903,34.567,33.547,-0.071,-0.0216,9.8078,-0.3475,0.3928,0.1727
1930,1106,900,34.602,33.583,0.0605,0.0031,9.8234,0.3106,1.524,-1.15
1935,1101,904,34.581,33.603,0.0826,-0.0295,9.8157,0.8182,0.3869,-0.4145
1940,1101,901,34.59,33.652,-0.0787,-0.0647,9.844,0.0247,-0.2664,0.1934
1945,1099,899,34.671,33.631,-0.0,-0.0163,9.8577,0.4303,-0.161,0.1991
1950,1098,895,34.523,33.552,-0.0345,0.0922,9.7659,0.6885,-0.6311,0.4726
1955,1102,893,34.643,33.621,-0.076,0.0313,9.8583,-0.8306,0.642,-0.4509
1960,1101,893,34.611,33.531,-0.0313,0.0217,9.876,0.576,-0.2204,0.2813
1965,1093,892,34.61,33.593,0.059,-0.0276,9.9031,-0.5765,-0.0494,-0.1832
1970,1085,885,34.622,33.592,-0.0053,0.0165,9.8193,-0.1518,0.11,0.4058
1975,1088,882,34.539,33.63,0.0259,-0.037,9.8724,-0.0885,-0.81,-0.2538
1980,1088,885,34.636,33.627,-0.0736,0.018,9.8429,-0.1929,-0.9929,-0.409
1985,1088,883,34.556,33.619,0.0365,-0.024,9.826,-0.9092,0.6564,-0.4343
1990,1076,882,34.678,33.524,0.0366,-0.1216,9.7651,-0.2815,-0.3648,-0.7794
1995,1087,876,34.676,33.597,-0.0523,0.0782,9.8608,0.5949,0.1804,-0.4329
2000,1073,876,34.577,33.636,0.0662,0.0046,9.8099,0.1013,-0.8417,-0.1224
2005,1073,876,34.551,33.629,-0.0451,0.057,9.804,-0.8085,0.2206,0.5835
2009,1070,880,34.603,33.564,-0.0237,0.0553,9.7199,-0.1299,0.5692,-0.4111
2015,1065,873,34.684,33.531,0.0436,-0.0111,9.8952,0.1403,0.0126,-0.2993
2020,1069,867,34.546,33.559,0.0426,0.0101,9.7902,-0.0531,0.7745,0.1605
2025,1052,867,34.619,33.649,-0.0218,0.0042,9.749,-0.0212,-0.3492,-0.1971
2029,1048,865,34.611,33.64,0.0267,0.0709,9.773,-0.0216,0.7727,-1.0947
2035,1056,863,34.593,33.698,-0.0318,0.0308,9.9241,0.3431,-0.1101,-0.1844
2040,1044,866,34.693,33.65,0.0379,-0.0073,9.7789,-0.1342,-0.0886,-0.471
2045,1044,864,34.649,33.624,0.0138,-0.0022,9.9118,-0.5044,-0.4688,-0.1369
2050,1042,859,34.555,33.507,-0.0371,-0.0754,9.8956,0.0741,0.7541,0.0583
2055,1032,859,34.566,33.637,0.0341,0.0377,9.8653,0.4133,-0.024,-0.6302
2060,1029,859,34.538,33.521,0.0836,-0.0069,9.6874,0.9711,-1.2756,0.4908
2065,1032,856,34.62,33.645,0.011,-0.0831,9.8933,0.5436,0.6057,0.7673
2070,1024,858,34.6,33.634,0.0877,-0.0905,9.7256,0.4676,0.6217,-0.435
2075,1017,851,34.694,33.575,0.099,-0.007,9.8306,-0.173,-0.9238,0.1334
2080,1005,855,34.536,33.561,-0.0636,-0.0159,9.8397,-0.5729,-0.7721,-0.4667
2085,1004,855,34.548,33.575,-0.049,-0.0576,9.7775,-0.4661,-0.3146,0.1434
2090,994,852,34.55,33.544,-0.0282,0.0364,9.7681,0.3429,-0.0393,-0.2171
2095,1003,854,34.621,33.605,-0.119,-0.0022,9.7545,0.7066,-0.457,-1.2381
2100,982,851,34.636,33.531,-0.0383,-0.0391,9.8188,-0.0859,-0.781,-0.0262
2105,981,845,34.506,33.628,-0.0221,0.0522,9.8806,-0.1393,-0.1815,0.5999
2110,965,842,34.641,33.635,0.0396,0.0505,9.7776,0.4832,0.016,0.1577
2115,959,842,34.572,33.58,0.0454,-0.0317,9.8804,-0.5536,0.2802,-0.6611
2120,948,839,34.538,33.683,-0.0333,-0.0109,9.8369,-0.4478,0.0272,-0.1285
2125,949,839,34.613,33.594,-0.0625,0.0056,9.8069,0.9319,-0.8373,0.3305
2130,938,838,34.609,33.608,0.0005,-0.024,9.8773,-0.3217,0.1588,-0.1347
2135,923,837,34.581,33.589,-0.0852,0.0374,9.8171,0.5747,-0.2093,0.1728
2140,923,828,34.515,33.615,-0.0158,0.0326,9.8598,-0.3552,0.3628,0.422
2145,907,827,34.465,33.719,0.0301,-0.0132,9.7702,0.2853,-0.4676,0.6461
2150,903,830,34.586,33.533,-0.0995,-0.0386,9.793,-0.3372,-0.0942,-0.1132
2155,898,823,34.69,33.712,0.0013,-0.0404,9.764,0.7416,0.3066,-0.6053
2160,882,819,34.566,33.575,0.0131,0.0234,9.84,-0.0624,-0.0027,-0.0959
2165,868,824,34.714,33.571,0.0054,-0.0111,9.7497,0.4957,-0.7158,-0.1347
2170,865,817,34.626,33.482,0.0806,-0.0613,9.7536,-1.2658,0.9637,1.2775
2175,863,811,34.584,33.598,0.0689,-0.0412,9.8628,1.2374,0.2337,-0.4041
2180,848,809,34.61,33.561,-0.0607,-0.0322,9.7169,0.5915,0.2601,0.1652
2185,837,805,34.628,33.579,0.0175,0.0839,9.8047,-0.2537,-0.1824,-0.2243
2190,840,800,34.666,33.608,0.0879,0.0133,9.8713,0.3243,0.281,0.3089
2195,824,793,34.561,33.595,-0.0174,0.0076,9.7628,1.0241,-0.9556,0.6423
2200,815,791,34.543,33.634,-0.0037,0.1147,9.8037,-0.2246,0.0563,0.0011
2205,803,783,34.605,33.552,0.0424,0.0275,9.8809,0.218,0.4415,-0.2593
2210,799,785,34.582,33.531,0.0436,0.059,9.8499,0.0803,0.1633,-0.742
2215,797,775,34.572,33.597,0.0608,0.0284,9.8667,-0.4555,0.1602,0.3135
2220,792,775,34.547,33.531,0.0566,0.0141,9.8319,-0.0578,0.1795,0.7641
2225,782,771,34.629,33.543,-0.0301,-0.0283,9.8831,0.8147,-0.0164,0.6086
2230,783,766,34.611,33.638,-0.095,0.0225,9.8106,0.2041,0.0171,-0.0092
2235,772,763,34.585,33.599,0.0416,0.0276,9.777,-0.1356,-0.3717,0.6262
2240,758,752,34.587,33.623,0.0497,0.089,9.8087,0.5536,0.1619,-0.2396
2245,750,754,34.6,33.574,0.1405,0.0236,9.8776,0.2009,0.4205,-0.655
2250,764,742,34.642,33.556,-0.0293,-0.0222,9.748,-0.4711,-0.4495,-0.4474
2255,755,735,34.577,33.546,0.1142,0.0274,9.8403,0.3134,0.2702,-1.2591
2260,754,731,34.529,33.579,0.0629,-0.0248,9.87,-0.0367,-0.041,-0.0933
2265,741,729,34.62,33.573,0.0044,0.0685,9.8486,0.3154,-0.0335,-0.3644
2270,746,720,34.575,33.623,-0.0244,0.0401,9.8741,-0.1241,-0.2844,-0.3733
2275,748,718,34.604,33.591,-0.0547,-0.1717,9.7928,0.1364,0.8789,-0.0034
2280,753,711,34.61,33.524,0.0334,-0.1388,9.7828,-0.6811,-0.2597,-0.3249
2285,753,705,34.564,33.491,-0.0253,0.0802,9.7737,0.1683,0.4585,-0.7183
2290,735,699,34.519,33.681,0.0161,-0.0588,9.8456,0.2133,0.6318,0.9575
2295,750,697,34.599,33.552,0.0767,0.0755,9.7744,-0.3687,-0.4016,-0.4051
2300,757,690,34.566,33.545,-0.039,0.0616,9.7668,0.8668,0.0214,-0.0612
2305,763,682,34.546,33.552,-0.084,0.0238,9.8243,0.3243,0.0028,0.0619
2310,758,676,34.727,33.58,-0.023,-0.1166,9.8342,-1.1104,-0.3089,-0.2968
2315,765,674,34.503,33.588,-0.0787,-0.0877,9.8169,-0.2944,-0.0486,0.6412
2320,763,674,34.616,33.673,-0.0141,0.075,9.7257,0.1782,0.3726,0.0303
2325,775,665,34.599,33.597,-0.1217,-0.0371,9.7221,0.4231,0.3194,0.0904
2330,782,664,34.618,33.577,0.0217,-0.0073,9.8391,0.2672,-0.071,0.0942
2335,787,663,34.609,33.636,0.0041,0.0447,9.9087,-0.9518,1.0251,-1.122
2340,792,660,34.581,33.61,0.0019,-0.0197,9.8456,-0.1121,0.1046,0.0378
2345,804,660,34.574,33.598,-0.0159,-0.0446,9.815,0.3142,0.2848,-0.9751
2350,811,655,34.553,33.481,-0.0,0.0617,9.923,-0.8857,0.2762,0.6955
2355,815,655,34.671,33.582,-0.019,0.0134,9.8257,-0.027,-0.1167,-0.8371
2360,817,645,34.604,33.635,-0.0319,-0.009,9.872,0.4481,0.0831,0.3856
2365,840,647,34.604,33.626,0.0553,0.0489,9.7197,0.166,0.217,-0.7087
2370,850,645,34.608,33.638,-0.013,-0.0699,9.7465,0.0181,0.114,-0.1141
2375,862,643,34.62,33.616,-0.0996,-0.0319,9.825,-0.7646,0.274,-0.1179
2380,868,644,34.63,33.619,-0.0141,0.09,9.8172,-0.3212,-0.3993,-0.0133
2385,880,645,34.601,33.56,0.0333,-0.0184,9.761,-0.3227,0.1463,0.2797
2390,885,650,34.648,33.635,-0.077,-0.0053,9.8948,-0.0072,-0.4365,0.7765
2395,899,645,34.589,33.623,-0.0273,0.0318,9.7779,-0.3501,-0.6477,-0.726
2400,913,647,34.586,33.639,0.0261,0.0117,9.8189,0.7002,0.1379,-0.4698
2405,929,652,34.537,33.579,0.0109,-0.0001,9.8513,-1.4202,0.2001,-0.7867
2410,936,648,34.633,33.605,-0.0196,0.0251,9.8307,-0.5966,0.2328,-0.0642
2415,947,653,34.636,33.597,-0.076,-0.0042,9.8359,-0.4399,-0.4571,-0.0056
2420,951,655,34.59,33.642,0.0106,-0.119,9.8213,0.3892,0.4694,-0.3653
2425,973,653,34.48,33.64,0.0057,-0.0045,9.8618,-0.3371,0.851,0.0235
2430,984,662,34.594,33.609,-0.0146,-0.0207,9.8652,0.4608,0.4228,-0.6004
2435,1000,662,34.625,33.514,0.0268,0.0092,9.8488,-0.478,-0.1897,-0.7453
2440,1012,667,34.64,33.638,-0.0073,0.0055,9.7898,0.5665,0.2828,-0.2365
2445,1020,671,34.693,33.586,0.0675,0.0096,9.83,-0.1516,0.2766,-0.6495
2450,1016,677,34.603,33.547,0.0129,-0.0024,9.8665,-0.2318,0.4206,-0.1931
2455,1044,676,34.633,33.591,0.0271,-0.0234,9.835,-0.3774,-0.2465,0.236
2460,1048,691,34.517,33.515,0.0502,-0.0167,9.8541,-0.5225,0.1335,0.3749
2465,1057,692,34.551,33.625,0.0219,-0.0189,9.8263,-0.3075,0.5588,0.7626
2470,1075,700,34.601,33.61,-0.0182,0.0441,9.8127,-0.9661,-0.6798,-0.0026
2475,1074,703,34.557,33.596,0.0106,-0.0687,9.862,-0.0469,-0.5794,-0.3238
2480,1099,708,34.56,33.587,0.0123,0.0995,9.8218,-0.1136,0.2861,-0.4133
2485,1094,725,34.594,33.658,0.021,0.0255,9.8474,-0.4162,-0.1648,0.2451
2490,1108,722,34.596,33.639,-0.0479,0.0374,9.8203,-0.0464,0.1609,-0.8015
2495,1112,729,34.629,33.638,0.0081,-0.073,9.8253,0.0948,-0.2161,-0.3163
2500,1133,737,34.593,33.645,0.027,-0.0428,9.7713,-0.0425,0.4489,0.4017
2505,1131,743,34.653,33.525,-0.017,-0.0411,9.8577,-0.3161,0.1962,-0.4053
2510,1133,750,34.603,33.639,0.0171,0.0854,9.8141,0.2893,0.0571,-1.5443
2515,1151,757,34.583,33.625,0.0135,-0.0226,9.7838,0.565,-0.6757,-0.6312
2520,1146,770,34.613,33.627,-0.1551,-0.0642,9.8278,0.0441,-0.4785,0.0725
2525,1154,771,34.459,33.599,0.0007,0.128,9.7841,0.2976,0.3098,-0.2005
2530,1169,784,34.595,33.573,-0.0146,0.0071,9.8741,1.0807,-0.1593,0.0158
2535,1164,787,34.692,33.666,0.0106,-0.0262,9.8481,0.0594,0.3718,-0.7007
2540,1173,792,34.576,33.716,-0.0485,0.0173,9.7853,0.4184,-0.1257,0.3819
2545,1171,802,34.55,33.587,0.0445,-0.0193,9.7562,0.3224,0.062,-0.1136
2550,1192,809,34.67,33.505,0.026,-0.0214,9.9341,0.1543,-0.0572,1.0078
2555,1186,811,34.568,33.618,0.0465,-0.0786,9.8118,0.665,-0.2757,0.3909
2560,1188,826,34.57,33.584,0.0322,0.081,9.8518,-0.6391,0.3174,0.6032
2565,1183,824,34.551,33.53,0.0533,-0.0115,9.9141,0.7751,0.7813,0.5578
2570,1178,834,34.566,33.567,-0.1044,-0.018,9.6842,-0.1753,0.6306,1.2293
2575,1191,847,34.518,33.579,0.0128,-0.052,9.8299,-0.1546,0.3357,-0.5927
2580,1191,850,34.555,33.551,-0.0511,-0.0831,9.7968,0.0362,0.8151,0.5146
2585,1184,859,34.685,33.717,-0.0121,0.0214,9.8769,-0.0419,0.329,-1.2419
2590,1183,862,34.597,33.688,0.0777,0.0306,9.8495,-0.5069,-1.6736,-0.2347
2595,1188,870,34.62,33.642,-0.0522,0.0518,9.8866,0.1659,-0.4439,-0.5738
2600,1188,873,34.703,33.627,-0.0214,0.0682,9.8025,-0.2331,-0.139,0.686
2605,1174,872,34.606,33.605,0.0302,-0.0211,9.8248,-1.2581,-0.4604,-0.6234
2610,1176,885,34.595,33.678,-0.0634,0.0155,9.8827,-0.095,-0.6792,0.0657
2615,1185,883,34.601,33.542,0.0001,0.0609,9.7322,0.9676,0.2719,0.052
2620,1189,887,34.616,33.586,-0.0565,0.0125,9.8389,0.4845,-0.4537,0.3395
2625,1186,890,34.621,33.614,0.0328,-0.0706,9.8822,-0.2927,-0.2841,0.332
2630,1172,892,34.603,33.635,0.0124,-0.0368,9.7814,-0.0918,-0.2421,-0.1447
2635,1169,901,34.64,33.581,0.0639,-0.0496,9.7597,-1.1186,0.5258,1.1095
2640,1166,908,34.488,33.629,0.007,-0.0507,9.8424,-0.0242,-0.4733,0.1945
2645,1163,904,34.572,33.559,-0.0158,0.0564,9.8358,0.3098,-0.3602,-0.9686
2650,1162,903,34.582,33.625,-0.0234,-0.0527,9.8549,0.0141,-0.6661,-0.1463
2655,1164,906,34.448,33.587,0.1022,-0.0189,9.8591,0.6793,-0.9444,-0.188
2660,1156,910,34.643,33.62,-0.0302,-0.0469,9.7366,-0.0432,-0.0936,-0.3985
2665,1152,910,34.664,33.47,-0.0765,-0.0405,9.816,1.7948,-0.2934,-0.0729
2670,1154,916,34.546,33.588,-0.0386,0.0325,9.7866,0.043,-0.8612,0.0684
2675,1146,917,34.571,33.58,-0.0301,0.0348,9.9058,0.0357,-1.3827,0.9637
2680,1146,912,34.587,33.658,-0.0806,-0.049,9.8072,-0.5898,-0.2912,0.479
2685,1140,920,34.718,33.609,0.0578,0.0313,9.7649,-0.1641,-0.4153,-0.0022
2690,1141,919,34.489,33.642,0.0301,0.0462,9.8255,0.634,1.0158,0.2311
2695,1142,916,34.561,33.683,-0.0197,0.0715,9.739,0.6247,0.7524,0.1892
2700,1132,923,34.613,33.633,-0.0082,0.031,9.7767,0.3443,0.425,0.215
2705,1127,910,34.617,33.553,-0.0143,-0.0691,9.7939,0.7282,0.0958,0.1792
2710,1127,921,34.55,33.648,-0.0715,0.0475,9.8066,0.2093,0.5565,0.6845
2715,1122,913,34.604,33.547,-0.0116,0.0578,9.8197,-0.4768,-0.6341,0.0891
2720,1126,912,34.48,33.528,-0.0169,0.0265,9.7536,-0.2572,0.6335,0.676
2725,1119,913,34.556,33.601,0.0373,-0.0744,9.8075,-0.4248,0.3898,-0.1746
2730,1115,911,34.631,33.569,0.0508,-0.0279,9.7146,-0.1657,0.4643,0.0501
2735,1108,909,34.676,33.513,-0.012,-0.0574,9.7646,-0.1881,-0.4227,-0.0081
2740,1108,908,34.617,33.6,0.0339,0.0148,9.8181,-0.3867,-0.4784,0.653
2745,1119,903,34.555,33.647,-0.0093,0.0085,9.8815,-0.2586,0.0183,0.0133
2750,1113,902,34.62,33.698,0.0494,0.0389,9.7629,0.0983,-0.3697,0.3634
2755,1104,902,34.585,33.624,-0.0389,-0.0228,9.7984,0.7345,-0.1063,0.1238
2760,1098,904,34.541,33.639,0.0106,0.0431,9.8028,-0.3581,-0.5137,0.0033
2765,1106,892,34.697,33.557,0.0443,0.0114,9.7449,0.7725,0.4875,0.4237
2770,1084,897,34.629,33.636,0.012,0.0939,9.825,0.4323,0.24,1.1354
2775,1101,894,34.728,33.551,-0.0652,0.0695,9.7101,-0.5354,-0.1931,-0.6199
2780,1090,893,34.536,33.556,0.0348,0.0532,9.7948,-0.0942,-0.2332,-0.1395
2785,1088,891,34.619,33.633,0.006,-0.0103,9.7389,0.6211,-0.3811,0.6551
2790,1085,884,34.648,33.543,0.0375,0.1275,9.8155,0.2154,-0.5302,0.0644
2795,1087,883,34.656,33.713,0.0644,-0.0317,9.8351,-1.0248,-0.0507,-0.3467
2800,1085,884,34.525,33.576,-0.0087,0.0085,9.7475,0.0347,-0.9993,0.6244
2805,1084,882,34.665,33.619,-0.1193,-0.0802,9.839,0.6913,0.8611,-0.4942
2810,1070,882,34.635,33.617,0.0247,-0.047,9.8354,0.4079,-0.4175,-1.1356
2815,1067,873,34.63,33.612,-0.0365,0.0692,9.7611,0.5719,-0.6515,-0.5096
2820,1064,874,34.59,33.618,-0.0266,-0.0062,9.7942,0.3753,-0.4489,-0.1824
2825,1073,875,34.581,33.553,-0.0085,-0.0627,9.7889,-0.1199,-0.2212,1.0993
2830,1076,877,34.578,33.658,-0.0807,0.0704,9.8144,-0.1042,0.9358,-0.1293
2835,1068,870,34.599,33.627,0.0254,-0.0478,9.7806,0.1152,0.0396,0.9691
2840,1067,865,34.477,33.609,0.0728,0.0007,9.8754,0.0586,0.0523,1.1427
2845,1060,867,34.561,33.565,0.0551,-0.0044,9.7645,0.2,-0.0901,-0.348
2850,1049,866,34.574,33.602,0.0418,-0.0093,9.8086,0.3058,0.555,0.1019
2855,1050,872,34.632,33.666,0.0793,-0.0228,9.7655,-0.332,0.1591,-0.3247
2860,1043,862,34.573,33.574,0.0134,-0.017,9.8778,0.1475,0.4472,-0.338
2865,1051,865,34.699,33.553,0.0532,0.0011,9.8138,0.5264,-0.5205,-0.2508
2870,1043,863,34.567,33.593,0.0554,0.0857,9.7252,-0.3784,-0.767,-0.0255
2875,1044,860,34.617,33.534,0.0585,0.0049,9.9074,-0.3195,0.044,0.4099
2880,1039,858,34.538,33.581,-0.0346,0.0324,9.8668,-0.2014,-0.4045,-0.3931
2885,1021,856,34.707,33.505,-0.009,0.0787,9.7586,0.6388,-0.5808,1.4234
2890,1023,847,34.607,33.617,-0.0458,0.0048,9.7882,0.3631,-0.2555,0.1026
2895,1016,857,34.586,33.583,-0.0207,0.0123,9.7854,-1.2797,0.2308,-0.9402
2900,1008,853,34.572,33.564,-0.048,0.0016,9.8687,0.1977,-0.6112,-0.5203
2905,997,853,34.682,33.619,0.0259,0.0712,9.775,-0.2662,-0.1178,-0.314
2910,994,853,34.524,33.566,0.0241,-0.0526,9.747,-0.0762,0.5842,0.4937
2915,992,850,34.567,33.504,-0.0148,0.0732,9.744,0.1403,-0.6078,0.0427
2920,975,847,34.606,33.598,0.03,0.0067,9.8024,1.4564,0.403,-0.0522
2925,977,847,34.607,33.532,-0.0317,-0.0461,9.8529,-0.0406,-0.4093,0.1707
2930,972,846,34.626,33.643,-0.035,-0.0155,9.8231,0.153,-0.3434,0.2463
2935,960,845,34.524,33.666,-0.029,-0.0882,9.9224,0.5768,0.6482,0.7251
2940,945,839,34.548,33.539,0.0545,0.1312,9.8063,0.1707,-0.4997,0.2288
2945,952,834,34.562,33.632,0.0115,0.0302,9.8107,0.4775,0.7541,0.4555
2950,931,836,34.573,33.532,0.0528,0.048,9.8066,0.5941,0.3214,0.31
2955,926,834,34.608,33.643,0.0734,0.008,9.806,0.1326,-0.0646,0.535
2960,911,831,34.592,33.596,-0.0416,-0.0425,9.8306,0.2106,-0.4842,0.6472
2965,911,833,34.482,33.587,0.0168,0.013,9.8167,-0.4246,-0.1621,0.5066
2970,889,828,34.662,33.464,-0.0387,0.1353,9.7936,-0.4042,-0.2734,-0.7735
2975,883,819,34.688,33.577,-0.0446,0.0502,9.7687,0.6423,-0.5292,0.12
2980,886,816,34.576,33.594,0.0077,0.0752,9.786,1.1053,0.2061,-0.8579
2985,864,815,34.573,33.586,0.0107,-0.0008,9.7705,-0.0829,0.9083,-0.2708
2990,865,814,34.582,33.676,0.0289,-0.0189,9.8133,0.26,-0.2235,-0.4602
2995,860,814,34.601,33.516,-0.0412,0.0182,9.7688,0.4116,-0.1575,1.0895
3000,835,810,34.589,33.583,0.0187,-0.0113,9.8143,0.601,-0.3942,0.2514
3005,840,801,34.58,33.613,-0.0189,0.0234,9.799,0.4536,0.2649,0.3774
3010,823,805,34.616,33.569,0.0376,-0.0374,9.7454,-0.1197,1.3812,-1.0607
3015,822,794,34.68,33.577,-0.0217,-0.0413,9.8013,0.2344,-0.0709,-0.4939
3020,810,788,34.581,33.571,0.0653,-0.095,9.7708,-0.1312,-0.4391,0.9658
3025,806,793,34.526,33.68,-0.0908,-0.1013,9.7702,-0.2965,-0.3235,-0.5112
3030,803,785,34.618,33.578,-0.0657,-0.0272,9.7613,-0.2224,-0.295,-0.3706
3035,791,781,34.588,33.619,0.035,0.1131,9.9171,0.1013,-0.4741,0.7368
3040,787,772,34.669,33.586,-0.0379,0.0619,9.8082,0.4073,0.4167,0.3596
3045,780,770,34.617,33.591,-0.0265,0.062,9.8125,0.4475,-0.0609,0.0484
3050,765,765,34.577,33.521,-0.0202,0.0759,9.8395,-0.1691,-0.2081,-0.5234
3055,770,761,34.54,33.627,-0.0191,-0.0955,9.7612,0.0387,0.2871,-0.2557
3060,769,755,34.578,33.671,-0.0485,-0.0317,9.8579,0.7356,-0.8715,1.3579
3065,760,750,34.559,33.576,0.0388,-0.0002,9.8944,-0.407,0.4988,0.3094
3070,762,741,34.547,33.618,0.0704,0.0252,9.8302,0.4177,0.2804,0.4505
3075,754,739,34.593,33.703,-0.0213,-0.0751,9.839,0.4561,0.3357,0.3193
3080,750,733,34.666,33.602,0.0398,0.0205,9.8299,-0.5267,-0.8299,-0.4097
3085,747,727,34.57,33.616,-0.0333,-0.0886,9.8702,-0.0278,0.5894,-0.7632
3090,745,724,34.552,33.586,0.0118,0.0688,9.76,1.2354,0.2882,-0.1928
3095,740,710,34.579,33.676,0.0015,0.0267,9.8723,-0.4888,0.0753,0.2554
3100,746,711,34.574,33.61,0.0564,0.0087,9.7383,0.2986,0.1652,-1.3775
3105,749,700,34.588,33.607,0.0474,-0.0028,9.7695,0.4019,0.1528,-0.2034
3110,750,698,34.588,33.599,0.0331,-0.0343,9.7674,0.7736,1.0582,0.1839
3115,748,694,34.619,33.605,-0.0113,0.0622,9.8441,0.1067,-0.0001,-0.228
3120,752,688,34.54,33.581,-0.0821,-0.0455,9.8222,0.0807,0.0252,0.2418
3125,764,684,34.612,33.578,0.0106,-0.0135,9.8086,0.9253,0.0646,0.2323
3130,760,679,34.717,33.584,-0.0881,-0.0184,9.8343,0.16,0.6409,0.345
3135,763,669,34.544,33.538,0.0798,0.0564,9.826,0.1791,0.0504,-0.2627
3140,763,675,34.538,33.645,-0.1672,0.0478,9.787,-0.1813,-0.6591,-0.1599
3145,781,663,34.599,33.636,-0.1591,0.0463,9.7697,0.2614,0.6458,-0.079
3150,781,662,34.601,33.651,-0.0419,-0.0212,9.7273,-0.0984,-0.1245,0.9488
3155,797,660,34.68,33.534,-0.0157,-0.0542,9.8341,0.4196,-0.0689,-0.7046
3160,794,659,34.628,33.563,0.0914,-0.0104,9.8023,0.2216,-0.5321,-0.443
3165,806,657,34.635,33.615,0.0146,-0.0232,9.822,0.3281,0.4552,-0.369
3170,809,649,34.556,33.603,0.0084,0.0291,9.7744,0.1204,-0.1257,-0.1483
3175,822,657,34.708,33.537,0.0626,0.0706,9.888,0.3134,0.1811,0.7063
3180,833,648,34.591,33.514,-0.0113,0.0371,9.8227,0.7847,-0.243,0.1424
3185,840,648,34.604,33.684,-0.0135,0.0701,9.7791,1.3376,0.0568,0.7697
3190,850,648,34.624,33.6,0.0058,-0.0769,9.8164,-0.1071,-0.7619,-0.2511
3195,861,646,34.63,33.649,0.0133,-0.0058,9.7546,-0.3917,1.1761,0.1498
3200,873,645,34.615,33.614,-0.0321,-0.0341,9.8146,-0.3405,0.7404,-0.217
3205,872,648,34.595,33.603,0.0615,0.0154,9.8065,0.4001,0.3343,0.3163
3210,890,644,34.668,33.548,-0.0481,0.0173,9.8225,-0.4448,0.1426,-0.0472
3215,906,644,34.634,33.581,-0.0674,-0.0283,9.7117,0.1803,-0.2334,-0.0621
3220,910,646,34.655,33.628,0.0953,0.0202,9.7722,-0.233,-0.319,-0.6412
3225,920,650,34.633,33.564,-0.0204,0.0329,9.8187,-0.6876,0.0032,0.6723
3230,932,651,34.666,33.664,-0.0442,-0.0195,9.8905,0.5424,-0.7813,-0.2439
3235,935,646,34.67,33.619,-0.0123,0.0092,9.912,0.3514,-0.0562,-0.2112
3240,960,651,34.561,33.563,-0.0787,0.1203,9.7808,0.2793,0.6476,0.0893
3245,982,658,34.52,33.572,0.0769,-0.0366,9.865,0.1916,-0.2017,-0.4363
3250,988,664,34.556,33.623,0.0323,0.0245,9.7705,0.8598,0.4171,-0.2399
3255,1000,666,34.614,33.675,-0.0156,0.0721,9.8642,0.4529,0.9625,0.6449
3260,1012,666,34.529,33.594,-0.0183,0.0029,9.7346,0.1889,0.3479,-0.7715
3265,1013,676,34.538,33.612,0.0585,-0.0405,9.8318,0.6612,0.1374,0.5058
3270,1029,676,34.622,33.557,-0.0002,0.0163,9.7536,0.2894,0.0722,-0.1611
3275,1035,684,34.569,33.571,-0.0337,-0.0499,9.8903,-0.0251,1.1187,0.6011
3280,1051,693,34.64,33.498,0.0433,-0.0221,9.781,-0.3307,0.2514,0.4146
3285,1069,694,34.712,33.528,0.021,-0.015,9.7983,-0.3362,0.0298,-0.3946
3290,1073,701,34.558,33.571,-0.025,-0.0468,9.7765,0.1068,-0.0096,-0.1657
3295,1086,703,34.633,33.631,0.0148,-0.0052,9.7721,-0.5011,-0.1878,0.2105
3300,1099,715,34.601,33.573,-0.0032,-0.0189,9.8154,0.4008,-0.5601,0.1917
3305,1101,718,34.489,33.598,0.0084,0.0399,9.9297,-0.0985,0.2375,-0.1244
3310,1108,721,34.546,33.54,0.0397,0.0011,9.7281,-0.9446,-0.0777,-0.0794
3315,1113,731,34.654,33.567,-0.0041,-0.0578,9.8332,-0.2424,-0.5273,-0.1327
3320,1131,734,34.6,33.52,-0.0306,-0.0824,9.8411,-0.1051,-0.3856,0.4746
3325,1131,743,34.553,33.597,0.0055,0.0289,9.7798,-0.8488,-0.2729,-0.1183
3330,1136,756,34.485,33.592,0.0176,-0.0323,9.7819,-0.4333,0.254,0.2483
3335,1140,753,34.7,33.582,-0.0624,0.0345,9.8462,-0.4242,-1.1978,0.4633
3340,1161,768,34.706,33.579,-0.0345,-0.0277,9.7912,0.0214,0.0234,-0.3945
3345,1164,774,34.578,33.585,0.0121,-0.0152,9.7762,0.0113,1.0976,0.2075
3350,1171,775,34.557,33.558,-0.0319,0.0151,9.8211,0.1398,0.8235,-0.2053
3355,1165,788,34.594,33.653,0.0562,-0.0929,9.8152,-0.2847,0.1046,-0.4443
3360,1171,796,34.534,33.65,0.0669,-0.0502,9.867,0.3752,0.1084,0.008
3365,1185,799,34.506,33.563,0.1137,-0.0131,9.755,-0.172,0.5345,0.0812
3370,1172,807,34.536,33.63,0.0483,0.0284,9.8394,0.2478,0.4004,0.8235
3375,1178,813,34.644,33.62,-0.009,-0.0003,9.8298,-0.2537,-0.0001,0.2984
3380,1182,824,34.612,33.53,0.0271,-0.046,9.9172,0.0794,-0.1589,-0.2372
3385,1189,827,34.673,33.63,0.0496,-0.0126,9.9324,0.067,-0.0582,0.9902
3390,1189,831,34.593,33.559,0.0462,-0.1115,9.7835,-0.3619,0.7996,-0.0691
3395,1184,844,34.6,33.624,0.0186,-0.0081,9.833,0.4365,0.0231,0.4867
3400,1196,849,34.604,33.611,-0.048,-0.1575,9.927,0.9707,0.6552,0.46
3405,1189,849,34.597,33.599,-0.0731,0.0064,9.8085,-0.166,-0.4544,0.8624
3410,1194,861,34.648,33.544,-0.048,0.0187,9.8217,0.0971,0.0594,0.2072
3415,1191,862,34.57,33.643,-0.0459,-0.0096,9.7148,0.5791,-0.4972,-0.8191
3420,1181,870,34.675,33.604,0.0902,-0.0286,9.827,0.0767,0.9071,-0.4333
3425,1186,874,34.586,33.662,-0.033,0.0147,9.7956,-0.1115,0.5283,-0.3983
3430,1180,878,34.607,33.571,0.0396,-0.0909,9.8656,-0.8047,-0.0829,-0.4971
3435,1179,883,34.634,33.559,-0.0363,0.1173,9.7733,0.5415,0.4771,-0.4555
3440,1180,893,34.622,33.633,0.0174,0.0129,9.7614,0.2237,-0.1301,-0.4652
3445,1164,891,34.592,33.608,0.0246,0.0487,9.7783,-0.0589,0.1459,0.4259
3450,1167,901,34.474,33.584,0.0042,0.0049,9.7921,0.3182,0.2226,0.4904
3455,1171,897,34.656,33.7,-0.0526,0.0151,9.7658,0.6895,0.0354,0.0567
3460,1173,900,34.642,33.528,-0.0099,0.0337,9.8127,0.4306,0.1124,0.1796
3465,1159,908,34.631,33.583,-0.0046,0.0113,9.8083,-0.0035,0.3827,0.1541
3470,1163,912,34.678,33.691,0.0571,0.047,9.8417,0.4908,-0.2504,0.37
3475,1170,911,34.524,33.57,-0.0862,-0.0766,9.8196,0.6132,0.8866,-0.0231
3480,1149,913,34.616,33.657,-0.0579,0.0019,9.7764,-0.2103,1.1902,-0.0847
3485,1152,914,34.537,33.68,-0.0166,0.0354,9.794,-0.1387,-0.4993,0.6275
3490,1144,920,34.628,33.676,-0.0088,0.0726,9.7705,0.1239,0.9376,0.2086
3495,1148,920,34.577,33.646,0.0857,-0.0159,9.7839,0.5948,0.7608,1.2754
3500,1137,918,34.549,33.556,0.0492,-0.008,9.8176,0.0267,0.591,-0.4449
3505,1139,914,34.602,33.644,-0.0026,-0.0449,9.9148,0.1061,-0.0264,-0.2704
3510,1133,918,34.65,33.617,0.0284,-0.0094,9.841,-0.7739,0.2631,-0.0764
3515,1128,913,34.677,33.595,0.0284,-0.0432,9.7533,-0.3966,0.0635,-0.1182
3520,1125,915,34.495,33.606,0.0077,0.0057,9.8746,0.1067,-0.7827,0.7524
3525,1119,912,34.601,33.674,-0.0601,0.0671,9.8165,0.6342,0.1871,-0.2386
3530,1124,914,34.648,33.59,0.0986,-0.0069,9.7675,-0.4531,0.5459,-0.4456
3535,1122,913,34.58,33.601,0.021,-0.015,9.8122,0.3349,-0.6508,-0.3365
3540,1121,916,34.584,33.519,0.011,-0.0062,9.8597,0.2073,0.2357,0.5168
3545,1118,923,34.66,33.552,0.0859,0.028,9.8458,0.1541,-0.5115,0.3265
3550,1112,910,34.556,33.631,0.0106,-0.0115,9.8249,-0.2376,0.1309,-0.1532
3555,1120,914,34.584,33.637,0.0964,0.0077,9.8103,-0.7131,0.3647,-0.2506
3560,1100,905,34.623,33.677,0.0119,0.0782,9.8334,0.3056,-0.597,-0.5884
3565,1108,906,34.637,33.599,0.0832,-0.0106,9.7543,-0.5075,0.112,0.0047
3570,1109,901,34.594,33.592,0.0495,-0.0009,9.8199,-0.1479,-0.7836,-0.2452
3575,1102,902,34.616,33.574,-0.0118,-0.0802,9.8562,0.2356,0.1983,0.3089
3580,1102,900,34.66,33.639,-0.0287,-0.0452,9.7767,0.5848,0.0619,-0.0113
3585,1097,905,34.643,33.633,0.0443,0.0409,9.7607,0.3621,-0.247,0.6532
3590,1104,894,34.632,33.648,-0.1045,0.0537,9.8017,0.0692,0.6944,-0.2396
3595,1100,890,34.588,33.6,-0.0546,0.1709,9.8708,0.8342,-0.4979,0.5419
3600,1089,892,34.582,33.611,0.0777,-0.0371,9.8617,-0.7956,0.378,-0.9586
3605,1085,888,34.655,33.525,0.0086,-0.0057,9.8631,0.3325,-0.2039,-0.0161
3610,1074,886,34.643,33.615,0.0639,-0.0062,9.7589,-0.0264,0.5666,0.333
3615,1088,886,34.622,33.624,-0.0321,0.0279,9.8131,-0.3568,-0.8642,0.5341
3620,1082,880,34.526,33.577,0.0888,0.0352,9.7655,0.06,-1.3078,0.2052
3625,1083,879,34.594,33.592,0.0043,-0.0154,9.7714,-0.5918,1.1365,0.3345
3630,1074,876,34.638,33.611,0.0089,0.0022,9.7644,0.2084,0.6694,0.3566
3635,1078,879,34.594,33.579,-0.0649,0.0765,9.7427,-0.6164,0.705,-0.8941
3640,1076,874,34.579,33.664,0.0245,-0.0094,9.7928,0.179,-0.3115,-0.3668
3645,1071,874,34.751,33.583,0.0368,0.0082,9.8678,0.5909,-1.3516,0.4711
3650,1066,874,34.613,33.616,0.0523,-0.0491,9.8626,0.6837,0.3787,0.5741
3655,1065,869,34.556,33.62,-0.0311,0.1178,9.8583,-0.2238,1.1302,0.4806
3660,1063,875,34.416,33.575,0.0161,0.0359,9.7955,0.1062,0.1711,-0.5084
3665,1057,866,34.64,33.665,-0.0821,-0.0136,9.8178,-0.4029,0.3364,0.3801
3670,1054,867,34.578,33.641,-0.0413,0.0427,9.8183,0.1436,0.1464,-1.5748
3675,1056,866,34.565,33.668,0.0184,-0.0634,9.7596,-0.5338,-0.6011,0.3857
3680,1047,865,34.58,33.522,0.0053,-0.0061,9.8034,-0.4089,-0.3415,-0.1756
3685,1038,862,34.557,33.613,-0.0227,-0.0207,9.8148,-0.3436,-0.0434,-0.0081
3690,1038,861,34.662,33.632,0.0817,-0.026,9.9683,0.1812,0.8857,-0.0741
3695,1029,860,34.554,33.614,0.0391,0.0242,9.8285,0.16,-0.0744,-0.2869
3700,1028,860,34.573,33.608,-0.0627,-0.0247,9.807,-0.31,-0.3446,-0.4614
3705,1020,852,34.679,33.612,0.0808,0.0515,9.7978,0.546,-0.0358,-0.0987
3710,1011,857,34.505,33.628,-0.0191,0.0206,9.9049,-0.5872,0.0544,-0.076
3715,1010,855,34.633,33.607,0.0797,0.038,9.8738,-0.0628,-1.0248,0.2029
3720,1018,853,34.515,33.591,-0.1631,-0.031,9.8752,0.5811,-0.52,-0.7429
3725,998,849,34.612,33.631,0.005,0.0001,9.7767,-0.69,-0.1351,-0.7748
3730,997,852,34.55,33.453,-0.0189,-0.0053,9.803,-0.2698,0.5233,-0.2849
3735,985,850,34.64,33.557,-0.0243,0.0514,9.8211,0.3689,-0.1277,-0.7379
3740,979,848,34.507,33.601,0.0196,0.0293,9.7433,0.3299,0.2176,0.6936
3745,969,844,34.544,33.584,0.0604,-0.0501,9.8214,0.0502,-0.5839,0.4858
3750,951,841,34.511,33.594,-0.0256,-0.023,9.7348,-0.1273,0.3321,0.2544
3755,965,844,34.58,33.563,-0.0823,-0.0179,9.7951,0.1187,0.7303,-0.0354
3760,941,838,34.649,33.55,-0.0321,-0.0335,9.8352,0.6646,1.1756,-0.2892
3765,935,840,34.526,33.566,-0.0522,-0.0273,9.6832,0.9617,-0.1339,0.2088
3770,927,844,34.54,33.6,-0.022,0.0477,9.8463,0.288,1.0459,-0.2959
3775,913,830,34.605,33.622,-0.0028,0.0507,9.8178,-0.973,0.9709,0.5219
3780,907,836,34.695,33.673,-0.0408,-0.0378,9.9198,-0.6492,-0.6893,0.2335
3785,906,834,34.574,33.659,0.089,0.01,9.7928,0.092,-0.4099,0.2595
3790,890,829,34.652,33.661,0.0223,-0.0224,9.7757,-0.2968,0.2628,0.8275
3795,877,823,34.559,33.606,0.0516,-0.0602,9.8415,-0.7112,-0.4791,-0.1303
3800,871,821,34.526,33.557,-0.0373,-0.0607,9.8371,-0.3538,-0.6755,0.8364
3805,866,822,34.595,33.558,-0.053,-0.0459,9.8045,0.0334,-0.5568,-0.8245
3810,856,815,34.568,33.568,-0.0874,-0.0205,9.8393,-0.1687,-1.5411,0.0918
3815,851,816,34.674,33.619,-0.0997,0.0051,9.8891,-1.0383,-0.2478,0.2158
3820,835,812,34.629,33.604,0.0139,-0.021,9.8613,-0.3324,0.6527,0.0625
3825,836,802,34.591,33.566,0.0369,-0.0415,9.8205,0.1501,1.0417,-0.0204
3830,825,804,34.591,33.6,0.0278,-0.1406,9.8175,-0.0021,0.5089,-0.2248
3835,824,794,34.602,33.577,0.0777,-0.0286,9.8146,0.5607,0.3549,0.0672
3840,817,795,34.629,33.666,-0.102,0.0731,9.7854,-0.3174,-0.0014,0.1936
3845,806,788,34.567,33.552,-0.0025,-0.0479,9.8333,0.3184,-0.1179,-0.1746
3850,799,779,34.605,33.556,0.0561,0.0332,9.87,-0.2291,0.5579,0.556
3855,798,781,34.569,33.583,0.0086,0.0406,9.9069,-0.1425,0.4989,0.4798
3860,782,773,34.608,33.633,0.0026,-0.0074,9.8414,-1.028,-0.3501,0.0428
3865,776,774,34.552,33.572,0.007,-0.0051,9.7753,0.2959,-0.4897,0.3445
3870,778,767,34.587,33.602,-0.0047,0.0121,9.7893,-0.373,-0.0463,-0.1365
3875,774,756,34.602,33.648,-0.0391,0.0261,9.8022,0.2891,-0.5277,0.0259
3880,762,752,34.619,33.643,0.0418,-0.0244,9.8121,-0.4146,0.0743,0.0912
3885,765,749,34.566,33.615,0.0294,0.0187,9.8661,-0.023,0.2048,-1.0651
3890,762,742,34.563,33.546,-0.0078,0.0294,9.8439,0.0866,0.3962,-0.0307
3895,743,739,34.574,33.62,-0.0328,-0.0206,9.8278,0.0397,0.6708,0.1063
3900,746,736,34.583,33.624,0.0699,0.0828,9.7886,0.2783,-0.1369,1.0567
3905,745,727,34.6,33.613,-0.0866,0.0129,9.9097,0.389,-0.4342,0.1178
3910,753,722,34.553,33.658,0.0212,-0.0492,9.8492,-0.6591,-0.2892,-0.1876
3915,746,714,34.546,33.653,0.0255,-0.0559,9.8836,-1.3614,0.7161,0.2629
3920,752,715,34.621,33.585,0.0151,-0.0591,9.7498,-1.0982,-0.5542,0.2274
3925,743,705,34.602,33.633,-0.0655,-0.0397,9.8414,0.4901,0.8355,0.7332
3930,747,700,34.578,33.54,0.0065,0.0075,9.8141,0.2943,0.3066,-0.9937
3935,751,701,34.6,33.624,0.0351,0.0988,9.9315,-0.9975,-0.2781,-0.4314
3940,760,694,34.61,33.521,-0.0239,-0.0563,9.8191,-0.2975,0.8434,0.1121
3945,755,686,34.554,33.662,0.0341,-0.0116,9.8542,0.1398,-0.7221,0.6975
3950,767,679,34.632,33.568,0.0379,-0.043,9.8418,-0.4601,1.1309,-0.8917
3955,763,677,34.572,33.682,0.0136,0.0254,9.8144,0.3717,-0.2684,-0.0188
3960,772,674,34.602,33.543,-0.0216,-0.0198,9.8441,-0.6216,0.3145,0.0698
3965,773,668,34.653,33.683,-0.0094,-0.006,9.7248,-0.2588,0.3487,0.5633
3970,790,663,34.566,33.592,0.0249,0.0274,9.7588,0.8741,0.1574,0.3999
3975,786,660,34.645,33.577,-0.0592,-0.0335,9.9249,-0.9529,-0.7659,-0.7879
3980,788,655,34.53,33.58,-0.0532,-0.039,9.8488,0.7711,0.044,-0.0847
3985,801,652,34.58,33.614,0.0185,0.0338,9.8064,0.4033,-0.0215,0.9938
3990,816,655,34.685,33.603,-0.118,0.1274,9.9562,0.0873,0.1164,-0.477
3995,816,653,34.546,33.627,0.0022,0.037,9.7875,0.3469,-0.0757,-0.1262
4000,828,647,34.558,33.629,0.0223,-0.0143,9.8178,0.9097,-0.43,-1.1658
4005,846,651,34.469,33.661,-0.021,0.0168,9.7262,-0.7953,-0.2245,-0.2319
4010,845,653,34.635,33.762,-0.0349,-0.0868,9.8122,0.4387,-0.2126,0.5556
4014,870,647,34.607,33.545,0.011,0.0002,9.8504,0.6379,-0.4855,0.018
4019,865,642,34.699,33.606,-0.0053,0.0381,9.9062,-0.159,0.2129,0.1958
4025,876,646,34.595,33.628,0.035,0.018,9.7639,-0.5886,-0.2574,-0.7133
4030,902,643,34.615,33.623,-0.0574,-0.0876,9.8263,-0.0411,-0.0468,-0.044
4035,902,645,34.569,33.57,0.028,-0.0569,9.7731,-0.0381,0.1173,0.753
4040,915,645,34.538,33.676,0.001,0.052,9.8074,0.1882,-0.257,-0.4801
4045,931,650,34.578,33.593,-0.08,0.1014,9.8597,0.3793,0.3867,0.8025
4050,934,650,34.572,33.621,-0.0103,0.0084,9.8597,-0.099,0.9094,0.111
4054,957,656,34.641,33.634,0.0841,0.0821,9.7373,-0.2358,-0.7113,0.5749
4059,958,654,34.615,33.604,-0.0315,0.0557,9.802,0.4297,-0.2867,-0.5424
4065,968,656,34.608,33.634,-0.0053,0.0071,9.7953,-0.5233,0.4528,-0.4616
4070,987,661,34.626,33.583,0.0104,-0.1269,9.8301,0.4584,-0.749,0.3059
4075,997,661,34.528,33.676,0.0007,0.0757,9.8023,0.1139,-0.7798,-0.5807
4080,1003,675,34.641,33.581,-0.0598,0.0618,9.799,1.1769,0.035,0.1366
4085,1011,672,34.645,33.63,0.0116,0.0417,9.8785,0.4957,0.1944,-0.7654
4090,1037,677,34.628,33.541,-0.0937,0.052,9.8383,0.2283,-0.4246,-0.287
4094,1043,679,34.587,33.604,-0.0721,-0.041,9.885,-0.0837,-0.6816,-0.3611
4100,1057,692,34.618,33.687,0.1067,0.0383,9.7472,-0.2334,0.4855,0.2
4105,1064,692,34.565,33.57,0.0535,-0.0104,9.8441,0.5724,-1.0555,-0.0796
4110,1081,695,34.532,33.643,-0.006,0.0986,9.8455,0.9275,0.8035,-0.2934
4115,1072,705,34.584,33.571,0.0533,0.0609,9.8258,0.3268,0.4045,-0.4152
4120,1089,713,34.599,33.589,0.0005,0.0211,9.8413,-1.3523,-0.0142,0.4333
4125,1095,721,34.61,33.632,0.0023,-0.0878,9.8356,-0.4762,0.211,0.8452
4130,1111,730,34.555,33.685,0.0073,-0.0315,9.7589,0.5831,-0.7768,-1.0098
4135,1118,732,34.598,33.569,0.0346,0.0239,9.8119,-0.0162,-0.25,0.1029
4140,1130,740,34.565,33.553,0.1268,-0.0298,9.7693,-0.1155,0.4921,0.0649
4145,1131,749,34.587,33.671,0.0311,-0.0053,9.7768,-0.8316,-0.6644,0.3442
4150,1146,755,34.596,33.645,-0.0804,0.0314,9.8091,0.5776,-0.1803,0.0058
4155,1152,761,34.569,33.533,0.0094,-0.0042,9.7749,-0.6083,-0.2939,-0.0631
4160,1156,766,34.61,33.632,-0.0762,0.031,9.7735,-0.2068,0.2981,0.2768
4165,1163,777,34.585,33.6,0.0433,-0.0251,9.8384,-0.0316,-0.6774,0.0255
4170,1162,781,34.581,33.67,0.0684,-0.0112,9.871,-0.5948,0.3723,0.2926
4175,1171,787,34.586,33.67,-0.0008,-0.0912,9.8831,0.998,0.5446,-0.5867
4180,1164,799,34.598,33.631,-0.039,-0.0423,9.8323,0.6276,0.794,0.0476
4185,1170,801,34.628,33.613,-0.0162,0.0105,9.7914,-0.1409,0.3042,0.9874
4190,1181,813,34.614,33.615,0.0392,0.0285,9.7934,-0.582,-0.5232,-0.0365
4195,1190,815,34.601,33.624,0.0068,-0.0349,9.7614,-0.8723,0.3513,-0.4723
4200,1188,825,34.623,33.593,-0.0307,0.0181,9.8452,-0.2785,-0.0345,0.2318
4205,1178,825,34.667,33.56,-0.0411,0.0655,9.7959,-0.4039,-0.2397,-0.9399
4210,1177,838,34.628,33.652,0.0427,0.041,9.7213,-0.6026,-0.3226,0.5996
4215,1185,850,34.603,33.716,0.0068,0.0082,9.8593,-0.2174,-0.4094,0.407
4220,1185,855,34.568,33.62,0.0462,-0.0203,9.7397,-0.1322,0.5922,-0.4216
4225,1177,858,34.557,33.61,-0.0134,0.0631,9.8525,-0.4072,-0.0263,0.5178
4230,1181,864,34.563,33.564,0.0178,-0.114,9.8367,0.5654,0.5714,-0.1605
4235,1181,874,34.659,33.588,-0.0193,0.0654,9.9042,0.067,-0.0342,0.2439
4240,1188,876,34.596,33.586,0.0456,0.0308,9.8001,-0.541,-0.2779,0.6939
4245,1189,882,34.666,33.63,0.0389,0.0036,9.7495,-0.0737,-0.1653,-0.1645
4250,1188,882,34.553,33.612,-0.0179,0.0305,9.794,0.1401,-0.0521,-0.8292
4255,1185,890,34.597,33.636,-0.0575,-0.0216,9.8884,-0.4218,-0.6214,-0.0492
4260,1171,891,34.564,33.64,-0.0121,-0.0088,9.8195,0.358,0.2755,-0.4775
4265,1167,887,34.611,33.56,0.036,-0.0559,9.877,-0.6663,0.0104,-0.2525
4270,1188,894,34.495,33.683,0.0722,0.0486,9.7917,-0.9184,-0.616,0.1437
4275,1172,900,34.529,33.695,-0.0067,-0.0291,9.7633,-0.5033,-0.1291,0.162
4280,1179,913,34.499,33.574,-0.0161,-0.0984,9.8339,0.0732,-0.3061,-0.5049
4285,1161,910,34.57,33.609,0.06,0.0008,9.8038,-0.531,-0.6749,-0.6196
4290,1170,910,34.596,33.652,0.0248,-0.0553,9.8561,-0.8855,0.2371,0.019
4295,1159,912,34.521,33.617,-0.0467,-0.0049,9.8505,0.2753,0.0418,0.3971
4300,1164,905,34.588,33.626,0.0238,-0.0775,9.7972,0.6397,0.3668,-0.1452
4305,1159,915,34.7,33.586,0.0456,0.1135,9.7635,0.1296,0.3162,0.3868
4310,1150,916,34.525,33.74,0.0469,-0.1075,9.7472,0.1263,0.79,-0.1101
4315,1152,910,34.61,33.627,0.0036,0.0033,9.7865,-0.7264,-0.2942,-0.1079
4320,1145,919,34.606,33.725,0.0414,-0.0317,9.7665,-0.1563,-0.8404,-0.2621
4325,1140,907,34.585,33.648,0.0273,-0.0453,9.754,-0.5177,0.2291,-0.1347
4330,1137,917,34.652,33.625,0.0212,-0.0332,9.8756,-0.6324,-0.0805,0.3878
4335,1137,914,34.682,33.691,0.021,0.1466,9.8836,0.5101,0.2269,-0.3637
4340,1132,915,34.607,33.675,0.0633,-0.0064,9.899,0.9467,0.7382,0.1817
4345,1122,915,34.678,33.643,0.0382,0.0136,9.7743,0.6086,-0.5889,-0.8246
4350,1132,917,34.586,33.619,-0.0238,-0.0577,9.8136,-0.5627,0.6629,-0.7853
4355,1132,914,34.647,33.575,0.0349,0.004,9.7871,-0.0995,-0.5264,-0.2725
4360,1115,910,34.594,33.683,-0.0599,0.0114,9.8325,0.4083,0.3088,-0.5108
4365,1120,913,34.601,33.604,0.0373,-0.0563,9.7898,-0.5942,-0.7157,0.2574
4370,1112,915,34.482,33.692,-0.0246,0.0148,9.8462,0.2297,-0.2289,1.2638
4375,1111,907,34.557,33.524,-0.033,0.1166,9.8356,-0.051,0.2383,0.5527
4380,1105,902,34.548,33.55,0.077,-0.0039,9.743,1.2146,0.3265,-0.3788
4385,1111,908,34.636,33.582,0.0475,0.0083,9.8494,0.3355,0.3712,0.4647
4390,1099,899,34.487,33.68,0.0329,-0.037,9.7324,0.8024,0.0575,1.0248
4395,1107,898,34.544,33.656,0.0517,-0.0158,9.7595,0.9583,0.1185,-0.0022
4400,1105,898,34.634,33.595,-0.0425,0.0321,9.8662,0.1378,-0.8192,-0.3463
4405,1102,900,34.592,33.632,-0.0332,-0.0332,9.8769,-0.6864,-0.0494,-0.3846
4410,1098,897,34.555,33.595,-0.0131,-0.0077,9.8545,-0.2918,-0.7139,0.3165
4415,1107,888,34.64,33.619,-0.0111,-0.0802,9.8328,0.3392,0.2544,0.2135
4420,1096,886,34.522,33.506,-0.0689,0.0137,9.882,-0.2473,0.6536,0.4117
4425,1089,885,34.686,33.539,-0.0196,0.0675,9.8348,0.234,0.1497,-0.3828
4430,1089,885,34.536,33.603,0.0754,0.0471,9.9777,0.7262,0.3768,-0.7457
4435,1070,884,34.535,33.607,0.0614,0.0112,9.7907,-0.0182,0.1194,0.1396
4440,1079,881,34.574,33.639,0.0248,-0.0393,9.8294,0.5987,-0.0472,1.0453
4445,1087,874,34.634,33.568,-0.0343,0.0011,9.8003,-0.3683,0.1731,0.2125
4450,1072,878,34.589,33.671,-0.0869,-0.0387,9.8322,0.205,-0.217,0.2274
4455,1079,877,34.636,33.621,-0.0682,-0.0342,9.8502,1.1398,-0.4235,-0.5011
4460,1077,876,34.602,33.678,0.0202,0.009,9.7065,0.3598,-0.084,0.2223
4465,1073,877,34.67,33.728,-0.0402,0.023,9.7542,-0.3689,-0.4771,0.5257
4470,1071,871,34.557,33.611,-0.0079,-0.1133,9.7458,-0.2941,-0.184,-0.5721
4475,1066,866,34.554,33.572,0.0336,-0.092,9.863,0.0508,0.168,0.0899
4480,1066,867,34.574,33.641,0.0421,0.0509,9.734,1.1835,-0.6536,0.8488
4485,1061,869,34.562,33.635,-0.0225,-0.0058,9.7226,0.2076,-0.4357,0.5821
4490,1058,867,34.603,33.543,0.0286,0.0157,9.8628,0.6485,-0.6308,-0.7182
4495,1050,862,34.626,33.498,-0.028,0.0492,9.7834,0.0955,0.2503,-0.5216
4500,1057,861,34.701,33.625,-0.0129,0.0221,9.844,0.2982,0.5037,-0.0397
4505,1042,865,34.571,33.607,-0.0945,-0.0362,9.774,0.0578,-0.8103,0.0162
4510,1036,860,34.603,33.56,0.048,0.0445,9.7564,-0.0369,-1.2207,0.5628
4515,1039,853,34.758,33.645,-0.0022,0.0314,9.7922,0.809,0.593,0.7407
4520,1027,855,34.594,33.619,-0.0105,0.061,9.851,-0.0098,0.4588,0.1122
4525,1023,852,34.599,33.645,0.1268,0.0379,9.8813,-0.3773,-0.5082,-0.0231
4530,1009,852,34.7,33.56,-0.0321,0.1074,9.8401,-0.3557,0.2737,-0.9845
4535,1016,857,34.666,33.565,-0.0566,0.067,9.7401,0.2251,-0.3904,-0.5774
4540,1001,851,34.561,33.657,-0.0049,-0.0426,9.7671,-0.5256,0.4335,-0.1446
4545,1003,851,34.611,33.57,0.0685,-0.044,9.8615,-0.197,-1.2187,-0.0251
4550,994,848,34.597,33.604,-0.0044,-0.0657,9.8722,0.2168,-0.2795,0.8899
4555,983,845,34.645,33.593,-0.0126,-0.0082,9.8215,-0.0237,-0.4637,0.0132
4560,968,855,34.697,33.578,-0.0081,0.0083,9.8612,-0.3601,-0.6062,0.112
4565,969,846,34.585,33.562,0.0399,-0.0263,9.7346,-0.3062,0.1922,-0.6276
4570,965,848,34.683,33.537,-0.0425,-0.0586,9.772,-0.1131,-0.0086,0.7478
4575,947,847,34.599,33.649,-0.019,-0.0126,9.807,0.5737,0.4634,0.3689
4580,955,842,34.595,33.65,-0.029,0.0123,9.7919,-0.2095,-0.0092,-0.1311
4585,934,844,34.667,33.607,0.0131,0.0051,9.7573,0.5628,0.0581,0.254
4590,935,837,34.538,33.592,0.0168,-0.057,9.896,-0.1252,-0.8937,-0.641
4595,926,834,34.633,33.566,-0.0,-0.0071,9.8049,-0.6097,0.4231,0.5743
4600,916,829,34.586,33.649,0.0375,0.0399,9.7967,0.6821,-0.0918,-0.4506
4605,904,833,34.65,33.595,0.0989,0.0267,9.7961,0.2757,-0.0983,-0.8878
4610,906,830,34.597,33.538,0.0446,-0.0334,9.7927,-0.0992,-1.6339,-0.2215
4615,878,831,34.643,33.564,0.0051,-0.0583,9.8943,0.2395,0.3359,-0.5371
4620,881,820,34.596,33.608,0.024,0.044,9.7481,-0.334,0.3839,-0.2695
4625,871,812,34.628,33.681,-0.0805,-0.0584,9.8225,0.3561,0.5989,0.2105
4630,850,816,34.532,33.626,0.0462,-0.0511,9.7438,0.5792,-0.474,0.5592
4635,855,810,34.559,33.589,0.0721,0.0131,9.7807,-1.0741,-0.3235,-0.1739
4640,847,808,34.639,33.565,0.0361,-0.1204,9.7902,0.6198,-0.7649,0.1959
4645,834,806,34.612,33.61,-0.0232,-0.0089,9.8682,-0.9499,-0.1977,0.5291
4650,828,797,34.619,33.567,-0.0547,-0.0148,9.7583,0.1482,-0.8519,0.4778
4655,816,804,34.649,33.549,-0.068,-0.0758,9.9115,-0.3777,-1.1004,0.2538
4660,807,793,34.582,33.526,0.0143,0.0106,9.8144,0.0184,1.4635,0.8007
4665,808,786,34.611,33.635,-0.037,-0.0648,9.7869,-0.849,-0.098,-0.1823
4670,802,784,34.615,33.6,0.0187,0.0021,9.7558,-0.2262,-0.3991,-0.3196
4675,794,774,34.649,33.674,-0.0322,-0.0186,9.7187,-0.1903,-1.1753,0.0283
4680,786,770,34.647,33.546,-0.0254,0.0179,9.88,0.7064,0.1715,0.3736
4685,778,771,34.572,33.629,0.109,-0.1038,9.809,-0.0416,0.2906,1.2884
4690,760,762,34.64,33.669,0.0068,0.077,9.8491,-0.0996,0.6722,-0.8354
4695,764,756,34.556,33.632,-0.0434,-0.0873,9.7521,-0.3236,0.8106,0.1002
4700,767,757,34.565,33.591,-0.0767,0.0157,9.8918,-0.5308,-0.8552,0.1812
4705,769,745,34.57,33.72,0.0206,-0.049,9.7756,0.6539,-0.0202,0.2432
4710,753,735,34.643,33.541,0.0348,0.0136,9.7327,0.7986,0.1541,0.6721
4715,758,737,34.597,33.677,0.0846,0.0378,9.8192,-0.1465,-0.5454,-0.6125
4720,755,727,34.647,33.668,0.0163,0.0742,9.7539,0.1805,0.3713,0.7974
4725,750,719,34.586,33.692,0.0127,-0.0445,9.771,-0.6502,0.6022,0.442
4730,748,718,34.595,33.566,0.0726,0.0022,9.7385,0.4896,0.3316,0.3212
4735,750,714,34.468,33.506,0.0191,0.0479,9.6455,0.2902,-0.1296,0.3328
4740,742,709,34.593,33.641,-0.0709,-0.1019,9.8267,-0.0064,-0.4566,0.1239
4745,743,699,34.576,33.657,-0.0167,0.0245,9.8474,0.0461,-0.2302,-0.9
4750,745,697,34.689,33.6,-0.0485,0.02,9.8408,-0.2249,-0.6196,-0.408
4755,750,686,34.532,33.616,0.0109,0.0145,9.7725,0.9752,0.1365,0.3869
4760,763,689,34.599,33.537,0.0159,0.0162,9.8237,0.6615,-0.0075,0.5201
4765,754,683,34.662,33.563,0.0147,-0.0242,9.8235,0.3441,-0.5184,0.3714
4770,758,682,34.658,33.575,-0.1041,0.0385,9.864,0.2357,-0.4701,-0.1408
4775,761,676,34.673,33.54,0.0025,0.0425,9.8444,-0.1006,0.2666,-0.8553
4780,768,672,34.585,33.61,0.0124,-0.1045,9.8343,0.2979,0.4654,0.1317
4785,774,669,34.609,33.67,-0.0541,-0.0167,9.8416,0.4724,-0.2201,-0.5256
4790,781,665,34.616,33.687,0.0129,0.0744,9.7842,-0.0814,0.0677,0.93
4795,785,663,34.683,33.673,0.0368,0.1184,9.7993,0.3418,-0.5461,-0.7068
4800,810,657,34.682,33.578,-0.042,-0.0504,9.7223,-0.5768,1.0523,-0.1546
4805,808,659,34.603,33.625,-0.0162,0.0339,9.8727,0.277,0.2508,-0.4632
4810,823,649,34.581,33.657,-0.09,0.0198,9.828,0.4825,0.062,-0.0999
4815,813,650,34.577,33.617,-0.0211,0.007,9.9014,-0.083,0.2099,0.9496
4820,840,646,34.618,33.637,0.0861,0.0655,9.7586,-0.5179,0.0325,-0.0144
4825,850,645,34.576,33.721,0.058,-0.0619,9.7549,0.7081,0.2891,-0.6726
4830,844,645,34.575,33.634,0.1141,-0.0022,9.8006,0.1815,-1.1207,-0.2389
4835,862,641,34.647,33.511,-0.1018,0.0462,9.7765,-0.137,-0.2092,-0.3641
4840,876,640,34.607,33.711,-0.0117,0.0283,9.9051,0.8448,0.4422,-0.2571
4845,879,644,34.595,33.655,0.0349,-0.072,9.8054,0.4047,-0.0901,0.0473
4850,891,646,34.655,33.604,-0.0014,0.0361,9.7444,0.5689,-0.0136,-0.0506
4855,907,648,34.631,33.634,0.0541,-0.0277,9.8157,0.6163,0.6038,0.1348
4860,911,637,34.586,33.687,-0.0456,-0.0397,9.7836,0.1026,-0.536,0.7772
4865,924,650,34.679,33.573,-0.0099,-0.0103,9.8384,-0.3848,0.214,0.2986
4870,947,648,34.641,33.601,0.0331,-0.0872,9.822,-0.0805,-0.1189,0.7698
4875,958,651,34.591,33.644,-0.0205,-0.0182,9.7682,-0.2322,-0.5207,-0.2321
4880,964,652,34.621,33.574,0.0306,-0.087,9.7974,-0.69,-1.1687,0.2778
4885,974,660,34.548,33.648,-0.0126,-0.0077,9.808,0.1486,-0.2742,-1.1449
4890,984,660,34.67,33.574,0.0183,-0.0514,9.7941,-0.1935,-0.6927,-0.228
4895,995,660,34.603,33.587,-0.01,-0.0037,9.8301,0.345,-0.029,0.6641
4900,1007,672,34.59,33.552,-0.0327,-0.0461,9.8031,-0.1433,0.1355,0.1302
4905,1016,673,34.654,33.663,0.0387,0.0699,9.9052,0.7745,-0.3633,-0.1951
4910,1035,677,34.559,33.681,0.0187,0.0154,9.7184,0.3104,-0.0025,-0.262
4915,1049,679,34.452,33.511,0.084,-0.1053,9.8357,-0.0511,-0.4354,0.8183
4920,1053,691,34.587,33.594,-0.0451,-0.0048,9.765,0.3215,-0.3789,-0.7802
4925,1068,692,34.555,33.606,-0.0549,-0.0571,9.7842,-0.3534,0.5896,-0.2695
4930,1071,699,34.61,33.606,0.0035,-0.0418,9.8922,0.2222,-0.3035,-0.0034
4935,1085,713,34.62,33.621,0.0525,0.0936,9.8443,0.0132,-0.2131,0.0817
4940,1098,709,34.623,33.593,0.0107,0.0039,9.8173,0.2134,-0.2575,-0.0879
4945,1108,719,34.722,33.582,-0.0212,-0.0889,9.9305,-0.2911,-0.0252,0.0062
4950,1111,727,34.57,33.631,0.0432,-0.0422,9.7963,0.5175,0.312,-0.2535
4955,1117,734,34.695,33.602,-0.0125,-0.023,9.7508,-0.5883,-0.0138,-0.4535
4960,1126,748,34.612,33.527,-0.0162,0.0639,9.7996,0.4029,-0.4811,0.0383
4965,1131,748,34.698,33.605,-0.0432,-0.025,9.828,-0.0624,-0.1687,0.2593
4970,1141,757,34.624,33.572,-0.068,-0.0211,9.8431,0.0152,-0.3545,-0.1557
4975,1149,763,34.563,33.572,-0.0387,-0.0717,9.7742,0.4105,0.7777,-0.6648
4980,1145,763,34.615,33.708,0.064,0.0348,9.7342,0.3876,0.3285,0.3385
4985,1150,774,34.699,33.603,0.019,0.0351,9.7358,0.5045,0.2357,-0.1285
4990,1169,783,34.645,33.611,0.0079,0.0704,9.8408,-0.2228,0.7297,-0.099
4995,1175,791,34.64,33.645,-0.0302,0.0251,9.7856,0.3014,-0.192,0.6458
5000,1166,796,34.684,33.68,-0.0695,0.0135,9.8177,-0.6807,0.0768,0.662
5005,1180,808,34.688,33.704,-0.0062,0.0413,9.8372,0.338,0.3801,0.4376
5010,1177,817,34.656,33.601,-0.1372,0.0359,9.8073,0.1399,0.3471,-0.7415
5015,1184,820,34.551,33.572,-0.0311,-0.0513,9.782,0.3909,0.6455,0.0001
5020,1179,826,34.619,33.61,-0.0807,-0.0472,9.788,0.063,0.2842,0.0893
5025,1186,835,34.641,33.531,-0.0185,0.0112,9.8638,-0.5748,0.2481,-0.3202
5030,1189,836,34.676,33.703,-0.0218,0.0715,9.8315,-0.5473,-0.8078,0.8094
5035,1190,851,34.61,33.603,-0.0475,0.0089,9.7892,0.4248,0.057,-0.2682
5040,1182,854,34.512,33.635,-0.0347,-0.0096,9.7896,-0.5761,-0.3256,-0.3199
5045,1177,853,34.609,33.598,0.094,0.0681,9.7982,-0.2018,0.1522,0.1343
5050,1185,862,34.665,33.62,-0.0636,-0.0901,9.8513,0.0209,-0.0411,-0.3264
5055,1189,864,34.712,33.592,-0.0409,-0.0427,9.7872,-0.2628,0.4424,-0.1809
5060,1184,871,34.654,33.577,-0.0426,0.064,9.8652,0.0388,0.2738,-0.7176
5065,1194,878,34.583,33.585,0.0198,-0.003,9.8428,-0.7751,0.6843,0.9438
5070,1185,884,34.513,33.646,0.0683,-0.0168,9.7623,0.0861,-0.9027,0.1017
5075,1185,892,34.572,33.587,0.0215,0.0648,9.7741,-0.4121,0.1933,-0.902
5080,1176,895,34.635,33.638,-0.0361,-0.0201,9.7778,-0.3475,0.5071,0.0384
5085,1180,895,34.615,33.613,-0.1045,0.1148,9.8326,0.3744,0.1979,-0.2136
5090,1173,895,34.608,33.59,-0.0349,0.0777,9.7213,-0.6546,-0.2975,-0.5411
5095,1175,900,34.587,33.636,0.0845,-0.0606,9.8344,-1.141,-0.2878,-0.2163
5100,1162,905,34.512,33.6,-0.0382,0.0229,9.7303,-0.0521,-0.6551,0.1477
5105,1155,905,34.681,33.52,-0.1092,-0.0748,9.7567,0.3461,-0.1416,0.1927
5110,1157,908,34.624,33.68,-0.0477,0.0342,9.8226,0.4791,0.8249,0.9861
5115,1149,909,34.537,33.679,-0.0098,0.0237,9.8027,-0.1927,0.1521,0.3277
5120,1153,913,34.579,33.62,-0.0712,-0.0101,9.7219,-0.1996,-0.2214,0.9412
5125,1161,912,34.621,33.553,-0.0302,0.0074,9.7415,-0.1386,-0.4655,-1.2366
5130,1151,912,34.588,33.67,0.0323,-0.0526,9.7825,-0.3302,0.9052,-0.0731
5135,1141,913,34.552,33.6,-0.0041,0.0454,9.8602,-1.0136,0.3567,0.6202
5140,1144,918,34.595,33.573,0.0118,-0.0133,9.7282,-0.664,0.4281,-0.5167
5145,1140,913,34.576,33.621,0.0455,-0.0205,9.8226,0.6223,-0.6997,0.2487
5150,1138,914,34.668,33.543,-0.0076,-0.0844,9.7261,0.3185,0.1507,-0.3892
5155,1130,916,34.764,33.644,-0.0027,-0.0647,9.8839,0.1425,-0.0847,0.8266
5160,1127,921,34.704,33.58,0.0618,0.0018,9.8223,-0.1058,-0.1524,0.0378
5165,1123,912,34.653,33.606,0.044,-0.0002,9.8485,0.2611,0.0353,-0.8354
5170,1131,914,34.709,33.591,0.0175,0.0481,9.7672,-0.2579,0.4937,-0.2765
5175,1122,917,34.64,33.652,-0.0396,0.0183,9.801,-0.9153,-0.4526,0.1232
5180,1114,914,34.584,33.607,0.0538,-0.0084,9.8765,-0.0049,-0.1909,-1.1221
5185,1109,908,34.611,33.668,-0.0587,0.0925,9.8052,0.059,0.0074,-0.5365
5190,1109,906,34.688,33.618,0.0725,-0.0191,9.7444,-0.4933,-0.024,-0.1902
5195,1111,910,34.575,33.634,0.0187,0.0004,9.7907,0.2174,-0.159,-1.8703
5200,1104,911,34.57,33.592,0.0346,-0.033,9.8589,-1.0878,0.1263,-0.4801
5205,1098,902,34.552,33.601,-0.0294,0.0449,9.8723,-0.4687,0.4665,-0.1684
5210,1104,902,34.563,33.612,0.0088,-0.0524,9.8297,0.1425,1.1313,0.4708
5215,1103,895,34.608,33.616,-0.0202,-0.0055,9.7855,-0.2494,1.1089,-0.3848
5220,1104,901,34.603,33.559,-0.0383,0.0521,9.7699,0.3533,-0.2238,0.3182
5225,1097,901,34.559,33.565,0.1403,0.0382,9.7313,-0.0506,-0.2802,0.7902
5230,1091,894,34.668,33.629,-0.0337,-0.0316,9.7639,-0.4827,-0.3102,0.3523
5235,1094,889,34.586,33.565,-0.0761,-0.0449,9.7768,0.6633,0.1822,0.4348
5240,1098,889,34.648,33.583,0.026,0.0832,9.7956,-0.5299,0.8139,-0.0454
5245,1090,890,34.625,33.67,-0.0299,0.0821,9.7707,1.0503,0.812,-0.4075
5250,1094,885,34.539,33.522,-0.0554,0.0299,9.8553,0.6504,0.6528,-0.0222
5255,1088,877,34.496,33.638,0.0009,0.0326,9.8249,-0.4877,-0.4002,0.2284
5260,1089,881,34.612,33.557,0.0356,-0.0076,9.8162,0.5092,-0.8573,-0.3222
5265,1084,874,34.492,33.613,0.0674,0.0188,9.7614,0.2232,0.9176,0.2258
5270,1074,877,34.678,33.68,0.0088,0.0551,9.839,-1.2495,0.0765,-0.127
5275,1070,879,34.7,33.701,0.1115,0.0012,9.8365,0.2234,-0.4101,-0.5316
5280,1083,877,34.658,33.628,0.0107,0.0074,9.8035,-0.2249,0.7773,-0.437
5285,1072,873,34.695,33.567,-0.0101,-0.0029,9.8128,1.2158,-0.1758,0.2294
5290,1072,872,34.59,33.706,-0.0103,0.1198,9.8364,-0.1795,-0.1132,0.3673
5295,1060,868,34.621,33.704,0.0162,-0.0422,9.8518,0.1307,-0.3377,0.1562
5300,1059,871,34.674,33.622,0.042,0.0162,9.7759,-0.7771,-0.1522,0.3232
5305,1053,863,34.718,33.659,0.0012,-0.0794,9.858,-0.1077,-0.3443,-0.44
5310,1049,866,34.519,33.669,0.0378,-0.0735,9.7709,-0.9601,-0.1976,0.4312
5315,1048,868,34.556,33.655,0.0496,0.0245,9.7731,0.3381,-0.6279,0.1641
5320,1038,866,34.575,33.624,-0.0787,-0.0051,9.8312,0.8041,0.5418,-0.0834
5325,1048,860,34.626,33.631,0.0143,-0.0577,9.8069,-0.175,-0.0078,-0.1382
5330,1047,864,34.705,33.609,0.0713,-0.0142,9.7636,-0.6369,0.6326,-0.3923
5335,1034,859,34.546,33.682,-0.0071,-0.0306,9.7344,-0.5216,0.0182,0.0699
5340,1024,856,34.629,33.611,0.0463,0.0558,9.8842,0.451,0.5332,0.8216
5345,1017,854,34.621,33.646,0.0617,-0.0984,9.7965,0.3577,0.5595,0.2075
5350,1020,857,34.528,33.497,-0.0862,0.0965,9.782,-0.5618,0.5756,0.2265
5355,1009,853,34.634,33.561,-0.0324,-0.0932,9.7964,0.4485,-0.821,0.2254
5360,998,852,34.606,33.573,0.0489,0.0374,9.8159,-0.1663,0.5472,-0.5172
5365,1000,852,34.611,33.601,-0.0048,-0.0095,9.844,-0.0131,-0.3844,-0.3059
5370,994,851,34.659,33.531,0.0272,-0.085,9.8785,-0.5169,-0.6314,-0.5079
5375,983,853,34.602,33.577,0.0292,-0.0656,9.7637,-0.9487,-0.3966,-0.5525
5380,983,847,34.566,33.603,0.0009,0.0005,9.7839,0.2348,0.7633,-0.5507
5385,971,845,34.626,33.636,-0.0225,0.0321,9.7577,-0.3814,-0.5824,-0.0736
5390,968,844,34.585,33.656,-0.0633,-0.0361,9.8564,0.3825,0.8937,0.0578
5395,954,841,34.667,33.593,0.0523,0.0622,9.7957,0.407,0.2972,0.1377
5400,936,840,34.601,33.707,-0.1026,-0.0265,9.8408,0.4689,-0.1896,-0.0862
5405,938,838,34.669,33.595,0.0144,0.0572,9.8009,-0.3255,-0.1582,0.7501
5410,930,839,34.64,33.717,-0.0038,-0.0122,9.7836,0.5626,0.7746,0.3242
5415,914,836,34.603,33.578,0.0022,0.0758,9.8212,0.3526,-0.2968,-0.0748
5420,909,830,34.717,33.673,0.0407,-0.0642,9.8618,0.5496,-0.4377,-0.2321
5425,898,824,34.61,33.676,-0.0402,-0.0383,9.7821,0.346,-0.2582,0.0762
5430,890,827,34.653,33.595,-0.0302,0.0195,9.7121,0.1997,-0.0137,0.0097
5435,881,823,34.57,33.593,0.0074,0.0177,9.7364,-0.3352,0.6736,0.9284
5440,878,818,34.602,33.74,-0.0361,0.0466,9.7541,-0.4047,-0.9667,0.3694
5445,866,816,34.578,33.586,-0.0438,-0.0533,9.7935,0.0845,-0.1453,1.1502
5450,859,808,34.702,33.588,-0.0086,0.1038,9.7666,-1.1785,-0.4719,0.2111
5455,852,813,34.584,33.629,-0.0197,-0.0593,9.7696,0.7305,0.2127,0.6973
5460,841,802,34.626,33.667,0.1121,-0.0025,9.7608,-0.1831,0.5843,0.3117
5465,833,805,34.556,33.699,0.0295,0.037,9.8896,0.5161,0.158,-0.2292
5470,827,795,34.634,33.643,0.0038,0.0367,9.8323,-0.4802,-1.0326,-0.1175
5475,812,794,34.625,33.678,0.0341,-0.0461,9.7939,-0.0951,0.3521,-0.6
5480,812,788,34.682,33.569,0.1198,0.0036,9.8052,-0.0155,-0.3056,0.6796
5485,798,784,34.603,33.569,-0.0197,-0.0679,9.7994,-0.2834,0.1415,-0.121
5490,794,782,34.618,33.61,-0.0042,-0.0658,9.7874,0.123,0.4118,0.011
5495,793,776,34.518,33.632,0.0009,-0.0496,9.777,-1.0425,0.1766,0.291
5500,771,767,34.653,33.655,-0.0541,0.0516,9.739,-0.9052,0.0568,-0.3152
5505,771,761,34.576,33.639,-0.0382,-0.0285,9.8533,-0.1249,0.0332,0.5132
5510,777,763,34.691,33.623,0.0289,-0.0647,9.8175,0.142,0.4268,-0.0205
5515,765,754,34.605,33.653,0.0366,0.0583,9.8017,0.0933,0.5601,0.0564
5520,768,755,34.642,33.595,0.0895,0.0415,9.8181,0.2451,0.1898,0.7247
5525,755,738,34.702,33.528,0.0675,-0.0289,9.7783,0.248,-0.0048,-0.1686
5530,751,743,34.574,33.59,-0.0191,-0.0567,9.764,0.5017,0.4492,0.7637
5535,748,736,34.668,33.643,-0.0259,0.021,9.8429,-0.7871,0.3169,-0.3749
5540,748,735,34.604,33.544,-0.014,-0.002,9.8893,0.2323,-0.5136,-0.1274
5545,752,720,34.603,33.62,0.0035,-0.0378,9.8246,1.1746,-0.3008,0.2492
5550,742,720,34.637,33.582,0.0754,-0.0123,9.8272,-0.2571,-0.2791,0.2021
5555,747,714,34.604,33.647,0.0304,0.0232,9.8271,0.6195,1.3096,0.0862
5560,754,709,34.639,33.622,0.0644,-0.093,9.7296,0.8287,-0.6798,-0.3062
5565,749,705,34.708,33.575,-0.0531,-0.0363,9.8811,-0.0574,0.128,0.6473
5570,746,697,34.703,33.628,0.0104,0.0044,9.7857,0.592,-0.5932,-0.1143
5575,756,694,34.631,33.575,0.0192,0.0396,9.859,0.892,0.6398,1.0822
5580,746,686,34.609,33.583,0.0208,0.0609,9.8532,-0.3109,-0.4574,0.3765
5585,759,686,34.618,33.579,0.0627,-0.066,9.8683,0.2001,0.0246,-0.5793
5590,755,675,34.599,33.603,-0.0167,-0.0636,9.8469,0.3652,-0.7307,0.1581
5595,774,679,34.601,33.632,-0.0594,-0.0158,9.8538,-0.5505,0.9784,0.0382
5600,781,672,34.634,33.656,-0.0299,0.0091,9.844,0.2288,0.038,0.4889
5605,786,666,34.71,33.732,-0.0156,0.0567,9.8922,-0.0126,-1.2417,-0.0585
5610,781,664,34.664,33.589,-0.0625,0.0649,9.7029,0.0119,-0.6762,-0.7971
5615,797,655,34.594,33.523,0.0377,-0.0782,9.8251,0.0466,-0.5523,-0.2092
5620,801,655,34.633,33.629,-0.0384,-0.037,9.7653,-0.416,-0.0204,-0.3656
5625,810,654,34.667,33.686,-0.0562,0.0487,9.8766,-0.0653,0.111,-0.6061
5630,812,653,34.586,33.521,-0.0057,0.0661,9.7657,-0.3441,-0.1109,1.4407
5635,815,643,34.647,33.57,0.0034,-0.0275,9.8872,-0.3523,-0.4265,-0.4601
5640,830,646,34.597,33.558,0.0389,-0.0016,9.9048,-1.0851,-0.924,0.8682
5645,853,648,34.602,33.62,0.007,0.0913,9.7779,-0.3953,0.4646,-0.4401
5650,857,643,34.541,33.647,-0.0304,0.0159,9.7565,-0.0772,-0.9421,0.4546
5655,859,643,34.651,33.628,-0.0165,-0.0358,9.7431,-0.6512,-0.7784,0.413
5660,878,650,34.658,33.56,0.002,0.0214,9.8136,0.8498,0.618,-0.7727
5665,897,639,34.652,33.639,0.0308,-0.1769,9.7301,-0.538,-1.2232,-0.0204
5670,886,643,34.682,33.536,-0.0095,0.0328,9.861,-0.4233,-0.7263,0.6543
5675,908,645,34.699,33.559,0.0466,-0.0508,9.7675,-1.2649,0.1891,0.0291
5680,915,647,34.595,33.593,0.0205,-0.0556,9.8024,-0.0295,0.1629,0.1527
5685,929,653,34.637,33.616,-0.0876,-0.0053,9.8017,-0.0792,0.1693,-0.0422
5690,946,651,34.643,33.689,-0.0009,0.0354,9.9021,-0.3665,0.199,-0.4054
5695,951,656,34.582,33.544,-0.0479,-0.0417,9.841,0.2713,-0.3161,-0.3649
5700,969,651,34.545,33.639,-0.032,0.0689,9.7953,0.2229,-0.2932,-0.0822
5705,986,657,34.63,33.531,0.0122,-0.1188,9.7893,-0.0546,-0.2662,0.0307
5710,989,658,34.573,33.69,-0.0265,-0.0188,9.7341,-0.857,-0.0817,-0.3406
5715,1003,669,34.629,33.613,-0.0543,0.0557,9.7681,0.2737,-0.019,-1.0021
5720,1016,668,34.571,33.489,0.0306,0.0278,9.7671,0.0435,-1.2087,-0.2907
5725,1028,676,34.686,33.608,-0.0077,-0.0496,9.8283,0.0611,-0.0294,-0.5006
5730,1035,684,34.563,33.637,-0.0155,-0.0368,9.8252,-0.0521,0.9194,-0.9177
5735,1046,689,34.652,33.631,0.0527,0.0264,9.9162,0.2315,-0.4724,0.9341
5740,1060,686,34.582,33.678,0.0301,0.0068,9.7491,0.3265,-0.7906,0.447
5745,1065,694,34.504,33.576,-0.0252,0.0651,9.7372,-0.7045,-1.1409,0.397
5750,1077,700,34.611,33.723,0.0106,0.0007,9.802,-0.2593,-0.1369,0.0209
5755,1080,705,34.63,33.617,-0.0019,-0.0576,9.8249,0.3474,0.5669,-0.2203
5760,1101,717,34.654,33.518,-0.0838,0.0557,9.843,0.1973,-0.5665,0.1739
5765,1112,722,34.61,33.579,0.0994,0.0558,9.834,-0.3303,0.7333,-0.0156
5770,1116,729,34.547,33.595,-0.0254,-0.0388,9.8083,-0.1205,0.3784,-0.4566
5775,1116,736,34.569,33.621,0.0301,0.0496,9.8356,0.2718,-0.1223,0.646
5780,1131,739,34.638,33.673,0.0073,0.0512,9.78,-0.4447,-0.2501,-0.3255
5785,1144,752,34.562,33.592,0.0324,0.0041,9.7389,0.4038,0.4744,0.3929
5790,1142,758,34.628,33.531,0.0942,0.0756,9.8113,-0.3662,-0.0421,-0.2457
5795,1144,768,34.63,33.621,0.058,0.053,9.8226,0.3677,-0.1362,0.6907
5800,1165,773,34.696,33.593,0.0134,0.042,9.8434,1.1289,0.4661,-0.4268
5805,1158,779,34.639,33.673,-0.0231,0.0202,9.811,-0.1972,-0.589,-1.0066
5810,1164,787,34.589,33.679,-0.0798,-0.0052,9.8284,0.2843,0.5692,0.3592
5815,1169,791,34.641,33.713,0.0672,-0.0347,9.8288,0.1988,0.1016,0.7921
5820,1171,801,34.584,33.689,-0.0119,0.0237,9.8502,-0.6328,-0.3083,-0.1061
5825,1183,810,34.661,33.671,-0.0583,-0.0142,9.8342,0.4887,-0.5529,-0.3118
5830,1177,817,34.585,33.655,0.1717,0.0045,9.6992,-0.4408,0.0765,0.5428
5835,1177,822,34.66,33.663,0.0187,-0.1357,9.8365,-0.1987,0.2016,0.6259
5840,1181,830,34.632,33.606,-0.0096,-0.0442,9.8374,0.4056,-1.0167,0.9814
5845,1185,832,34.655,33.592,0.0754,0.0316,9.7958,0.4172,-0.0558,1.6025
5850,1180,838,34.696,33.551,-0.0261,0.0093,9.8108,-0.0525,0.1667,0.5052
5855,1192,848,34.578,33.661,-0.0338,-0.009,9.8273,0.8031,-0.2477,-0.3808
5860,1192,855,34.713,33.589,0.0663,-0.0065,9.8165,0.3112,0.3513,-0.0641
5865,1178,860,34.645,33.716,-0.0859,0.0293,9.8167,0.6632,0.3984,-0.3117
5870,1192,866,34.632,33.595,0.0263,0.0226,9.8422,0.1318,-0.2507,-0.1739
5875,1180,874,34.66,33.609,-0.0601,-0.001,9.8124,1.1766,-0.3406,0.2012
5880,1182,876,34.529,33.659,-0.0356,0.0638,9.7004,-1.2104,-0.9525,0.6455
5885,1188,873,34.6,33.66,0.0277,-0.1023,9.8188,-0.3342,-0.4904,-0.9035
5890,1180,886,34.517,33.602,-0.0727,0.0442,9.7035,0.225,0.3067,-0.6736
5895,1177,891,34.525,33.567,0.022,-0.0383,9.8432,-0.7077,-0.345,-0.2044
5900,1177,890,34.533,33.643,-0.0122,0.1181,9.8513,1.3701,1.0989,0.0197
5905,1172,893,34.653,33.542,0.0091,0.0002,9.7137,0.3524,-0.6642,0.6504
5910,1172,894,34.582,33.662,0.0508,-0.0396,9.7164,-0.6437,0.5596,0.5346
5915,1175,904,34.603,33.521,0.03,0.0708,9.8254,-0.1959,0.7856,0.5768
5920,1162,902,34.695,33.578,-0.0305,0.0544,9.7662,-0.5769,0.6223,-0.4446
5925,1163,902,34.525,33.583,-0.0505,-0.0232,9.7602,0.6157,1.1907,0.0242
5930,1158,902,34.581,33.592,0.0472,-0.056,9.8539,0.3358,-0.0529,1.26
5935,1158,914,34.649,33.626,-0.0454,-0.0013,9.838,0.2406,-0.9844,0.1475
5940,1160,912,34.619,33.549,-0.0002,0.0242,9.8419,0.3554,0.3663,-0.2143
5945,1159,916,34.643,33.568,0.0543,0.0412,9.7038,0.2563,-1.1603,-0.2697
5950,1156,918,34.614,33.621,0.03,0.0404,9.8265,0.2243,0.5513,-0.3252
5955,1145,915,34.649,33.706,-0.0095,0.0447,9.7837,-0.6722,-0.5202,0.1377
5960,1142,916,34.603,33.729,0.0206,0.0529,9.8619,-0.0355,0.1429,0.2839
5965,1137,913,34.636,33.536,-0.0278,0.0515,9.821,-0.4855,-0.9556,0.2493
5970,1134,913,34.641,33.617,0.0578,0.0131,9.7345,0.2758,0.1771,1.2841
5975,1136,916,34.651,33.588,-0.0917,-0.0791,9.7135,0.3937,0.2474,0.7354
5980,1134,912,34.591,33.612,0.0168,-0.0205,9.7446,0.0203,-0.5938,-0.4333
5985,1122,921,34.554,33.557,-0.0508,-0.0321,9.7933,0.8776,-0.4102,-0.1826
5990,1117,912,34.633,33.637,-0.0541,0.015,9.7768,-1.0812,0.5283,-0.1396
5995,1113,916,34.64,33.599,0.0177,-0.0741,9.7296,-0.0457,0.9889,-0.2594
6000,1123,915,34.533,33.539,-0.0106,0.0075,9.8325,0.0657,0.5454,-0.2562
6005,1122,911,34.634,33.667,0.0444,0.0036,9.8462,-0.5828,-0.5572,-0.3062
6010,1108,914,34.62,33.602,0.0688,-0.0555,9.8367,0.8829,-0.4562,0.9883
6015,1120,907,34.651,33.598,0.0527,0.0433,9.7529,-0.5976,0.2728,1.1508
6020,1106,902,34.657,33.608,-0.0142,0.0243,9.7955,-0.049,0.3903,-0.1981
6025,1107,904,34.555,33.591,0.0355,0.0433,9.842,-0.2642,0.0138,-0.4949
6030,1101,904,34.608,33.621,0.0755,-0.0784,9.8261,0.0931,-0.4448,-0.0037
6035,1099,903,34.561,33.715,0.0405,-0.0611,9.9295,0.35,0.0525,1.1604
6040,1090,894,34.615,33.563,-0.023,0.0271,9.7461,-0.0664,-0.3759,1.0281
6045,1090,899,34.636,33.582,0.0024,0.0056,9.7595,0.2276,-0.7853,-0.2297
6050,1096,895,34.544,33.646,-0.0032,-0.0193,9.8137,0.433,-0.1998,-0.5862
6055,1088,890,34.604,33.615,-0.0352,-0.005,9.7937,1.0587,0.765,0.5864
6060,1093,888,34.681,33.563,0.021,0.0566,9.8642,-0.1039,-0.4431,-0.7181
6065,1090,887,34.641,33.629,0.052,-0.0357,9.7903,0.2614,-0.2947,-0.2226
6070,1085,886,34.679,33.707,0.022,0.0334,9.8169,-0.3771,0.3327,-0.441
6075,1081,882,34.679,33.604,-0.0525,0.0156,9.8288,-0.2746,-0.6796,-0.2271
6080,1085,881,34.657,33.719,-0.0391,0.0732,9.9106,-0.0129,-0.6177,0.3068
6085,1080,876,34.701,33.684,0.0824,0.0118,9.7773,-0.5924,0.0267,0.9717
6090,1082,878,34.614,33.575,-0.0547,0.0213,9.8438,0.1683,0.1809,0.267
6095,1068,877,34.618,33.626,-0.0646,0.0694,9.8237,0.3977,0.1707,0.2884
6100,1069,878,34.669,33.61,-0.0492,0.0055,9.7851,0.4164,0.3325,-0.2013
6105,1078,875,34.598,33.585,0.0577,-0.0563,9.8576,-0.7154,0.7732,-0.3037
6110,1072,868,34.606,33.664,-0.0372,-0.0497,9.7637,-0.411,-0.2113,0.6336
6115,1062,866,34.601,33.716,-0.0601,0.0124,9.8016,-0.0634,-0.0248,-0.2854
6120,1061,869,34.621,33.6,0.0053,0.0149,9.8497,-0.6334,-1.2062,-0.3184
6125,1062,868,34.712,33.614,-0.0571,0.0302,9.7699,-0.1583,0.5726,-0.4115
6130,1049,862,34.701,33.731,0.0638,0.0155,9.8792,-0.2234,0.3899,-0.7184
6135,1057,864,34.586,33.574,0.035,-0.0324,9.7771,-0.3396,-0.5989,0.3496
6140,1033,863,34.691,33.621,-0.0735,0.0249,9.8216,0.4603,0.4524,-0.5014
6145,1035,862,34.666,33.706,-0.0136,0.012,9.7857,1.3812,-0.7171,0.0362
6150,1031,862,34.622,33.564,0.1028,-0.0541,9.931,-0.0257,0.3176,0.6297
6155,1029,854,34.619,33.661,-0.0314,0.0447,9.9302,-0.3532,-0.7197,0.0059
6160,1027,860,34.548,33.669,-0.0242,-0.0022,9.8575,0.0873,-0.1086,0.045
6165,1016,852,34.643,33.575,-0.0399,-0.044,9.8469,0.4792,-0.8198,0.5361
6170,1011,855,34.596,33.528,-0.0172,-0.0654,9.8826,-0.4579,0.1936,0.3699
6175,1006,860,34.657,33.676,0.008,0.0052,9.8593,0.0443,0.0551,-0.8918
6180,1003,858,34.732,33.64,0.0251,-0.0538,9.834,-0.1311,-0.536,0.1489
6185,999,852,34.687,33.581,-0.0204,-0.0736,9.7221,-0.0948,-0.1058,0.7201
6190,995,846,34.724,33.606,-0.0983,0.0429,9.7457,0.5624,0.8686,-0.6632
6195,985,852,34.609,33.651,0.0255,-0.0217,9.9253,-0.6276,0.2281,0.1662
6200,973,847,34.662,33.55,0.0331,-0.0136,9.785,-0.436,-0.1855,-0.0454
6205,963,843,34.634,33.629,-0.0462,-0.0518,9.7617,0.6575,-0.0855,0.2296
6210,958,847,34.711,33.581,0.0137,-0.0175,9.6761,-0.4189,0.369,0.3326
6215,959,843,34.577,33.648,0.0142,0.0713,9.761,-0.0731,-0.1119,-0.1573
6220,951,834,34.602,33.647,-0.0547,-0.018,9.8306,-0.4889,0.4273,0.8135
6225,928,839,34.648,33.682,-0.0206,-0.0757,9.7936,0.1025,0.0924,0.1735
6230,921,835,34.638,33.687,-0.0161,0.0052,9.7837,-0.3489,-0.3433,0.7679
6235,915,837,34.638,33.676,0.0569,-0.0273,9.7784,0.6128,-1.101,0.1531
6240,907,825,34.655,33.571,-0.0554,-0.059,9.8515,0.5394,0.209,-0.0279
6245,898,828,34.674,33.549,0.0214,0.0705,9.8748,0.4772,-0.3056,0.3366
6250,895,822,34.781,33.652,-0.0277,0.0476,9.7137,-0.4289,0.1745,-0.5424
6255,881,826,34.595,33.554,0.0032,-0.0436,9.8253,0.3617,-0.6489,-0.4377
6260,871,820,34.649,33.644,0.1265,0.0468,9.7814,0.5427,-0.1534,0.1768
6265,867,817,34.722,33.616,-0.0118,0.0168,9.815,-0.7683,-0.0988,-1.0412
6270,853,814,34.632,33.628,-0.0128,0.0288,9.9036,-0.5326,-0.6526,0.0777
6275,845,812,34.579,33.748,-0.0626,0.0143,9.7178,0.3677,-0.12,-0.8334
6280,840,808,34.601,33.661,0.1312,0.0815,9.8139,-0.9367,0.0587,-0.544
6285,832,801,34.655,33.632,-0.0056,0.0352,9.7948,-0.5717,-0.0051,-0.709
6290,824,796,34.525,33.63,0.1674,0.0243,9.7321,-0.1817,-0.2094,-0.3098
6295,817,795,34.555,33.626,-0.0207,-0.0039,9.8636,0.0508,0.0395,0.1452
6300,811,788,34.581,33.673,0.0568,-0.0852,9.7005,0.2502,0.8177,-0.3623
6305,804,789,34.601,33.699,-0.0051,0.0387,9.7732,0.0868,0.0393,0.6474
6310,792,784,34.636,33.686,0.0717,0.0227,9.8471,-0.719,0.3721,-0.1859
6315,783,774,34.665,33.539,0.0479,0.0522,9.8838,0.5982,-0.2844,0.6886
6320,779,768,34.596,33.658,-0.0551,-0.0343,9.7425,-0.3325,-0.2269,-0.2529
6325,780,761,34.626,33.567,0.0898,-0.0226,9.7542,-0.5751,0.5849,-0.8747
6330,770,758,34.497,33.582,0.1111,0.0705,9.8275,0.1266,0.3197,-0.4937
6335,774,755,34.548,33.636,-0.042,0.0127,9.7943,-0.8095,-0.5721,0.8015
6340,764,749,34.495,33.631,0.0642,-0.0135,9.7477,-0.9897,1.1916,-0.0187
6345,760,741,34.684,33.581,-0.0168,-0.0694,9.8358,1.0841,0.6072,0.0144
6350,746,731,34.599,33.597,0.0079,-0.1125,9.7987,0.9842,0.6849,-0.1905
6355,751,733,34.639,33.578,0.0051,-0.0397,9.8856,-0.2481,-0.7628,0.0993
6360,748,726,34.613,33.614,0.0144,-0.0168,9.7806,-0.6294,0.59,0.9324
6365,744,724,34.665,33.605,0.0053,0.0128,9.773,0.5265,-0.3801,-0.935
6370,746,719,34.522,33.514,-0.0106,-0.0059,9.7875,-0.1129,-0.1197,0.0148
6375,745,707,34.662,33.534,-0.0088,-0.0646,9.8439,0.1158,0.3296,0.8317
6380,743,711,34.611,33.59,0.1165,-0.1152,9.8985,0.1449,-0.0899,-0.3711
6385,752,700,34.724,33.563,-0.0676,0.0167,9.8685,-0.6019,-0.4954,0.8554
6390,753,695,34.666,33.703,0.0027,-0.0285,9.8657,-0.4264,-0.5679,-0.0057
6395,742,690,34.626,33.651,0.0373,0.0086,9.8354,-0.4509,-0.0714,0.5635
6400,765,685,34.653,33.704,-0.0929,-0.1125,9.7667,0.7606,0.0413,0.0902
6405,759,686,34.58,33.612,-0.0399,0.0747,9.8559,-0.5974,-0.426,0.352
6410,757,681,34.603,33.727,-0.0989,-0.0042,9.783,0.6378,-0.6763,0.5063
6415,767,670,34.636,33.735,-0.0307,-0.0202,9.8803,1.1766,0.4636,0.739
6420,774,673,34.663,33.757,0.0412,0.0068,9.8716,-0.0333,0.5772,-0.0062
6425,775,666,34.57,33.669,-0.031,0.0489,9.834,0.4624,0.12,-0.2682
6430,779,660,34.596,33.566,0.0843,-0.0094,9.8677,-0.9568,-0.42,-1.0638
6435,801,665,34.61,33.614,0.0235,0.0287,9.7347,0.0469,0.2417,-0.0951
6440,804,656,34.576,33.655,0.0445,0.0534,9.7148,0.7404,0.7849,-1.0232
6445,809,650,34.656,33.633,-0.0528,-0.0429,9.8792,-0.1124,-0.3986,0.3712
6450,831,653,34.667,33.606,-0.0027,0.0358,9.8582,-0.9615,0.2456,0.6027
6455,824,645,34.639,33.706,-0.0689,-0.0722,9.8959,-0.0739,-0.8588,-0.1485
6460,834,649,34.63,33.593,0.0456,0.0879,9.7586,-0.24,0.3944,0.014
6465,843,647,34.675,33.582,-0.1009,-0.014,9.8637,-1.1852,0.1622,-0.3438
6470,858,643,34.6,33.604,-0.0734,0.0162,9.7818,-0.3426,0.0312,-0.0543
6475,869,644,34.615,33.632,-0.0298,0.0004,9.7769,-0.1525,0.1341,-0.1345
6480,874,641,34.683,33.657,-0.0862,-0.0001,9.8852,0.2292,0.0822,0.3411
6485,883,644,34.592,33.501,0.0243,0.0016,9.7651,0.0862,-0.3077,-0.1367
6490,906,641,34.669,33.642,-0.0385,0.0187,9.8634,-0.1301,-0.1205,0.1047
6495,914,646,34.639,33.636,-0.0519,0.0564,9.7843,-0.565,-0.2738,-0.7665
6500,918,644,34.64,33.66,-0.0234,0.0204,9.7536,-0.7025,0.9896,0.5571
6505,929,653,34.674,33.561,0.005,-0.0266,9.8201,-0.1062,-0.002,0.0938
6510,945,655,34.7,33.702,0.0409,-0.0472,9.7466,0.0592,-0.6649,-0.6927
6515,956,649,34.657,33.609,0.052,-0.0389,9.8838,-0.0116,0.2823,0.094
6520,972,657,34.61,33.712,-0.0172,0.0085,9.7596,0.419,-0.1601,0.4401
6525,979,656,34.709,33.536,0.0365,-0.0211,9.7773,0.1903,1.2078,-0.2944
6530,994,662,34.635,33.573,0.0438,0.0515,9.767,-0.1877,-0.2219,-0.3669
6535,1006,667,34.501,33.563,0.023,-0.082,9.7608,0.237,-0.1686,-0.3262
6540,1018,671,34.679,33.637,-0.0284,-0.0195,9.8009,-0.2802,-0.0246,0.0209
6545,1037,672,34.573,33.569,-0.0736,-0.0212,9.8308,-0.041,0.2413,-0.2781
6550,1042,684,34.553,33.649,0.0418,0.0011,9.8185,-0.1424,0.3659,0.3419
6555,1044,694,34.567,33.662,-0.024,0.091,9.7717,-0.5101,-0.8624,0.135
6560,1055,694,34.621,33.665,0.0102,0.0454,9.9266,0.3071,-0.7952,0.0403
6565,1061,694,34.625,33.671,0.0568,0.1014,9.7754,1.0907,-0.4336,0.3978
6570,1079,706,34.605,33.684,0.0245,0.0867,9.8447,-0.0813,0.527,-0.4188
6575,1087,710,34.628,33.614,0.0034,-0.0441,9.8799,0.6813,-0.0183,-0.0005
6580,1094,715,34.598,33.584,-0.0669,0.0524,9.8546,0.069,0.4008,0.1794
6585,1114,718,34.67,33.65,0.0385,0.047,9.8176,-0.0824,-0.46,0.6302
6590,1119,728,34.596,33.656,0.0576,0.0001,9.8665,0.5827,-0.8707,0.2358
6595,1123,735,34.573,33.535,-0.009,0.0973,9.7495,0.2382,0.525,0.2623
6600,1134,745,34.724,33.587,0.0263,-0.1237,9.799,0.1773,0.619,1.2867
6605,1132,745,34.601,33.659,0.0447,0.0271,9.6966,0.0408,-0.1618,-0.176
6610,1151,766,34.656,33.679,0.0375,0.0845,9.7867,-0.2187,0.0515,-0.5953
6615,1149,768,34.517,33.732,0.0746,0.0074,9.843,-0.0116,0.1389,0.3167
6620,1157,770,34.585,33.604,-0.0302,-0.0436,9.804,0.3089,-0.5839,0.4864
6625,1162,785,34.572,33.683,-0.0297,0.0195,9.7434,0.4354,-0.4767,-0.9163
6630,1168,786,34.683,33.614,-0.0076,-0.0083,9.6835,-0.5307,-0.47,0.3352
6635,1171,795,34.619,33.626,-0.0151,-0.0367,9.8271,0.34,0.605,1.2424
6640,1174,800,34.593,33.557,0.0379,0.025,9.8664,0.6949,-0.2282,0.0893
6645,1182,808,34.614,33.733,0.0148,0.0061,9.74,0.4214,-0.4522,0.2414
6650,1182,817,34.696,33.576,-0.0068,0.1003,9.7675,0.4647,-0.3852,0.2405
6655,1180,827,34.544,33.656,0.0853,0.0423,9.8632,0.1255,0.9965,0.0592
6660,1191,829,34.61,33.562,-0.0431,-0.0765,9.7945,-0.0487,0.9791,-0.2519
6665,1183,835,34.647,33.527,-0.0205,0.0098,9.936,-1.1369,-0.3242,0.7263
6670,1185,841,34.643,33.687,-0.0156,-0.0538,9.7884,-0.2858,0.3675,0.9233
6675,1196,848,34.615,33.635,0.0574,-0.0474,9.7892,0.5065,0.556,-0.3121
6680,1196,853,34.648,33.676,-0.0244,-0.0363,9.8287,0.2498,-0.9173,-0.4414
6685,1188,865,34.675,33.602,-0.0661,0.0443,9.7809,0.2575,0.7232,-0.0105
6690,1194,865,34.645,33.637,-0.0146,-0.0373,9.7644,-0.0354,-0.2873,0.2148
6695,1185,872,34.556,33.588,-0.1183,0.0258,9.7387,0.2095,-1.1148,0.1044
6700,1184,871,34.56,33.738,0.0207,0.0311,9.8601,0.0288,-0.0352,0.0816
6705,1169,880,34.639,33.665,0.0104,-0.0162,9.7848,-0.1758,0.3275,0.102
6710,1182,883,34.708,33.638,0.0219,0.0018,9.752,-0.8599,-0.2466,1.0176
6715,1173,894,34.688,33.633,-0.046,0.0064,9.7881,0.2088,-0.8644,-0.5313
6720,1184,891,34.656,33.658,-0.0307,0.0218,9.7891,-0.5617,0.828,-0.224
6725,1167,894,34.56,33.552,-0.0446,-0.0017,9.9386,-0.0733,0.2397,0.1302
6730,1177,899,34.57,33.581,0.1718,0.0523,9.8471,-0.2679,-0.0959,-0.7373
6735,1165,896,34.591,33.695,0.0301,0.01,9.8354,0.1268,-0.6556,0.0772
6740,1173,900,34.703,33.69,-0.0026,0.0566,9.8309,0.4723,-0.1829,0.5093
6745,1168,908,34.599,33.694,-0.0605,0.0233,9.8268,-0.5217,0.9208,0.0209
6750,1164,912,34.605,33.777,0.0421,-0.0174,9.9361,-0.214,-1.7864,0.6082
6755,1159,914,34.501,33.554,-0.0654,-0.1117,9.7873,-0.1796,-0.5493,-0.4016
6760,1155,916,34.55,33.66,0.0461,-0.0694,9.8617,-0.7444,0.2102,-0.4926
6765,1148,914,34.545,33.651,0.0435,0.0112,9.7909,0.2906,-0.1905,0.286
6770,1138,915,34.651,33.692,-0.0469,0.0207,9.8041,-0.3445,0.12,0.019
6775,1150,915,34.639,33.624,-0.0223,-0.0393,9.7417,-0.4218,-1.0939,0.2781
6780,1135,919,34.583,33.58,0.0368,0.0164,9.8216,-0.1464,0.3497,0.5683
6785,1142,917,34.568,33.532,0.0329,0.0425,9.7863,-0.5254,-0.1092,0.2498
6790,1139,915,34.674,33.582,-0.0213,-0.0041,9.7574,-0.6085,-0.4775,-0.8099
6795,1136,911,34.632,33.616,0.0134,0.041,9.8151,0.4183,-0.3208,0.3075
6800,1125,908,34.685,33.67,-0.0119,0.0716,9.8377,0.3704,0.042,-0.2118
6805,1135,920,34.682,33.636,-0.0034,-0.0247,9.8068,-0.4337,0.2894,-0.2497
6810,1122,908,34.661,33.66,-0.0343,-0.0727,9.8436,-0.0738,-0.3313,-0.0492
6815,1124,914,34.631,33.632,-0.0215,0.0512,9.7761,1.0414,0.1095,0.3782
6820,1117,913,34.661,33.688,0.0033,-0.0906,9.7841,-0.5373,0.8542,0.0541
6825,1117,915,34.593,33.526,0.0393,0.0167,9.8551,-0.2381,-0.5505,0.3535
6830,1114,914,34.614,33.574,0.003,-0.045,9.8176,0.7813,-0.4936,-0.4889
6835,1103,916,34.623,33.607,-0.0921,0.018,9.7872,-0.3022,0.7295,0.619
6840,1110,909,34.597,33.615,0.0747,-0.0171,9.8216,0.5206,0.2393,0.2426
6845,1108,906,34.703,33.622,0.0052,-0.0247,9.787,0.3217,0.078,0.585
6850,1109,903,34.719,33.612,0.0469,0.0335,9.8672,0.1123,-0.545,-0.5448
6855,1098,896,34.683,33.614,0.0564,-0.027,9.732,-0.6171,0.3767,-0.5226
6860,1099,896,34.634,33.639,0.0724,-0.0891,9.8513,-0.1717,-0.5718,-0.8282
6865,1104,894,34.693,33.609,0.0045,-0.0309,9.8322,0.6714,-0.344,0.8466
6870,1091,894,34.611,33.555,0.0538,-0.0242,9.8232,-0.1259,0.5037,0.5525
6875,1083,889,34.664,33.628,0.0277,0.1369,9.7418,-0.2023,-0.3513,0.5506
6880,1091,887,34.75,33.606,-0.0358,0.1196,9.8133,0.1302,-0.5639,-0.5285
6885,1083,889,34.662,33.714,0.0348,0.0651,9.7593,0.4214,-0.061,0.2156
6890,1086,884,34.597,33.618,-0.0496,0.0006,9.6685,0.1948,0.14,0.0891
6895,1094,880,34.685,33.622,-0.0444,-0.0338,9.7689,0.3222,0.5545,0.7228
6900,1084,884,34.678,33.578,-0.0053,-0.1233,9.8974,0.3309,0.1635,0.1934
6905,1080,886,34.635,33.632,0.0364,0.0188,9.7853,0.1634,0.1894,-0.0479
6910,1072,878,34.664,33.682,-0.0377,-0.0014,9.8614,-0.499,0.3492,0.1872
6915,1077,878,34.664,33.598,0.0663,0.0116,9.9079,0.3805,-0.264,-0.0126
6920,1074,869,34.579,33.629,-0.0191,0.0141,9.8006,0.2471,-0.1709,-0.3971
6925,1067,873,34.615,33.69,-0.0126,-0.0373,9.8219,-0.0409,-0.0518,-0.4282
6930,1069,865,34.492,33.674,0.0155,-0.0075,9.771,-0.6911,0.807,-0.3404
6935,1059,864,34.594,33.6,0.0842,0.0047,9.7681,-0.2433,-0.1173,1.0889
6940,1062,867,34.627,33.667,0.0303,-0.0275,9.8263,0.1925,-0.09,0.8915
6945,1046,866,34.595,33.669,0.0255,0.0048,9.851,0.1623,0.4056,0.5078
6950,1053,864,34.649,33.659,0.0713,0.0245,9.7368,0.5639,0.5069,-0.9272
6955,1048,865,34.595,33.566,0.0173,0.003,9.9037,0.1011,-0.3265,-0.2655
6960,1045,866,34.629,33.721,0.046,-0.0133,9.8574,0.5568,0.2608,-0.3732
6965,1042,859,34.629,33.633,-0.0454,0.018,9.854,0.0233,-0.4993,-0.5697
6970,1036,861,34.667,33.613,-0.0738,0.0119,9.8189,0.4786,-0.2824,-0.0369
6975,1023,862,34.682,33.641,0.0226,0.0196,9.8785,-0.8987,0.1326,-0.2547
6980,1016,862,34.52,33.668,-0.0413,-0.0203,9.8196,-0.0813,0.103,-0.0216
6985,1012,856,34.561,33.579,-0.063,-0.0497,9.8444,0.1345,-0.5886,-0.1393
6990,1000,850,34.659,33.609,-0.027,0.0443,9.7835,-0.8772,0.2402,-0.0171
6995,1004,852,34.628,33.64,0.0214,0.0271,9.7285,0.0359,-0.5916,0.5551
7000,998,854,34.618,33.585,0.0437,-0.0043,9.8569,0.336,-0.4529,0.3942
7005,994,851,34.579,33.664,-0.0668,0.0219,9.7864,0.6329,-0.8834,-0.0588
7010,991,850,34.673,33.783,0.0019,-0.0514,9.8721,-0.2406,0.6513,0.0974
7015,984,849,34.602,33.678,-0.0216,0.018,9.7966,0.6695,-0.7359,0.4266
7020,975,840,34.666,33.576,0.0192,0.0037,9.8949,-0.2394,-0.3482,0.0276
7025,963,840,34.737,33.717,-0.0018,0.0045,9.765,-0.7251,-0.061,-0.2203
7030,950,846,34.641,33.591,0.0364,-0.0115,9.8047,1.0975,-0.6164,0.0053
7035,950,844,34.654,33.69,-0.0686,-0.0654,9.7169,0.5201,-0.366,0.3507
7040,942,836,34.706,33.488,0.0442,0.0678,9.8581,0.5258,-0.2651,0.2241
7045,924,833,34.683,33.615,0.055,-0.0393,9.8398,-0.9682,0.1178,-0.1378
7050,920,835,34.672,33.657,-0.0783,-0.0587,9.7286,-0.7022,0.2298,-0.6222
7055,911,832,34.582,33.6,-0.0025,-0.0091,9.9203,-0.3416,0.6414,-0.1828
7060,910,831,34.561,33.695,0.0582,0.075,9.7724,-0.076,0.3401,-0.1445
7065,907,828,34.618,33.571,-0.079,0.0705,9.9121,-0.1636,-0.4924,0.338
7070,891,822,34.66,33.565,-0.0538,0.0272,9.8878,-0.5192,0.227,-0.071
7075,881,819,34.618,33.78,0.029,-0.0175,9.8469,0.5524,0.7278,0.1113
7080,867,817,34.612,33.697,-0.0503,-0.0137,9.7761,-0.669,-0.0441,0.2415
7085,866,812,34.623,33.631,0.0471,-0.0061,9.8104,0.3301,-0.4517,0.0658
7090,859,813,34.628,33.69,0.0558,-0.02,9.7401,0.5531,0.7584,0.2644
7095,843,809,34.66,33.683,0.0047,-0.0224,9.8082,-0.103,-0.0374,0.801
7100,847,808,34.583,33.654,-0.0292,-0.0576,9.7994,0.7147,0.3207,-0.6159
7105,827,801,34.52,33.62,0.0549,-0.0252,9.782,1.0886,0.9824,0.1447
7110,825,801,34.634,33.635,-0.0152,-0.0291,9.8237,0.0853,-0.1293,0.4316
7115,813,788,34.609,33.634,0.0645,0.0035,9.82,-0.0186,-1.2802,-0.2747
7120,807,786,34.73,33.603,-0.056,0.0637,9.7397,0.5948,0.098,-0.5721
7125,796,782,34.606,33.511,0.0014,0.0403,9.7865,-1.0505,-0.7084,-0.2051
7130,797,784,34.659,33.652,-0.0619,0.0414,9.7287,-0.18,0.3612,-0.6086
7135,789,775,34.588,33.601,0.0247,-0.0236,9.8971,-1.127,0.231,0.977
7140,783,769,34.685,33.743,-0.044,0.0428,9.8162,-0.2503,0.19,0.6003
7145,784,760,34.583,33.546,0.0745,0.0446,9.8176,-0.523,0.4302,0.377
7150,768,760,34.58,33.583,0.0316,0.04,9.7799,1.2081,0.1486,-0.2164
7155,757,757,34.507,33.612,-0.0566,-0.0893,9.8365,-0.9528,0.4719,0.0352
7160,755,750,34.652,33.627,0.1144,-0.0788,9.7514,0.2792,0.6456,-0.292
7165,759,735,34.673,33.661,-0.0558,-0.0196,9.7483,-0.5159,-0.6431,-0.5632
7170,757,737,34.532,33.63,-0.0075,-0.0737,9.856,0.252,-0.0725,1.2095
7175,755,730,34.658,33.626,0.0766,0.0214,9.8489,0.5418,-0.2595,-1.4225
7180,743,727,34.677,33.577,0.0206,-0.033,9.8232,-0.0006,-0.1256,0.5875
7185,742,727,34.631,33.698,0.1013,0.0075,9.7478,0.3657,-0.1105,-0.0377
7190,744,719,34.71,33.681,0.0112,-0.02,9.8399,-0.7686,0.1451,-0.7133
7195,748,709,34.611,33.558,0.0241,-0.0503,9.7843,0.0011,-0.0193,0.5111
7200,746,707,34.609,33.642,-0.0844,-0.0182,9.8589,-0.4398,0.6894,-0.7826
7205,746,707,34.647,33.543,0.0042,-0.0673,9.69,0.3514,-0.0648,-0.718
7210,758,699,34.61,33.614,-0.0376,0.0256,9.8123,0.1278,-0.4446,0.2364
7215,757,689,34.626,33.576,0.0339,0.0076,9.7715,-0.3344,-0.0007,-0.3548
7220,757,685,34.639,33.666,0.0046,0.0126,9.7934,-0.436,0.3899,0.9539
7225,764,684,34.553,33.667,-0.1412,-0.0969,9.8528,-0.5193,-0.041,0.4905
7230,762,671,34.649,33.563,-0.0112,-0.074,9.8495,0.7078,-1.0558,0.1887
7235,777,670,34.596,33.659,0.0543,-0.051,9.744,-0.7098,-0.2073,-0.6964
7240,781,672,34.696,33.653,0.0419,-0.0293,9.7771,0.4916,-0.2163,-0.0438
7245,779,662,34.612,33.598,-0.0097,0.0987,9.8545,0.1013,-0.5703,0.5043
7250,789,669,34.579,33.678,-0.0032,0.0017,9.8293,-0.2206,-0.32,-0.2062
7255,798,658,34.64,33.641,-0.0597,0.0114,9.9178,-0.2629,-0.3822,0.5644
7260,800,656,34.618,33.647,-0.0082,-0.0803,9.7054,1.5997,0.467,0.6084
7265,812,651,34.688,33.641,-0.0467,0.0066,9.8806,-0.6593,0.4017,-0.4075
7270,828,654,34.668,33.686,0.0819,0.1313,9.7855,-0.078,0.0089,-0.4065
7275,830,647,34.682,33.591,0.0486,-0.0093,9.744,0.1397,0.5085,0.419
7280,837,649,34.665,33.679,-0.0182,-0.0049,9.787,-0.5826,-0.4636,-0.0707
7285,852,649,34.595,33.538,0.021,-0.036,9.8271,0.8915,1.019,-0.4701
7290,858,648,34.648,33.577,0.0362,0.0505,9.7646,-0.2658,0.9658,0.1106
7295,866,641,34.675,33.667,-0.0017,-0.0517,9.7814,0.5621,0.3764,0.535
7300,885,642,34.675,33.668,0.0138,-0.0773,9.8063,0.4308,-0.6806,-0.2503
7305,888,646,34.696,33.704,-0.0478,-0.0054,9.7792,-0.3264,-0.2324,0.7322
7310,899,646,34.645,33.686,0.0547,-0.0019,9.7362,0.6843,-0.7792,0.4006
7315,914,646,34.625,33.758,0.0505,-0.0463,9.7849,-0.0905,-0.7402,1.2075
7320,930,638,34.544,33.642,-0.0887,0.0446,9.8084,-0.3374,0.2145,-0.1194
7325,939,655,34.611,33.599,0.0725,-0.0949,9.8692,0.8729,-0.0854,-0.1253
7330,952,655,34.582,33.555,-0.0251,-0.0675,9.8114,0.4853,-0.0784,0.0565
7335,957,660,34.583,33.663,-0.0422,0.0682,9.8509,-0.4203,-0.1287,-0.6124
7340,972,662,34.742,33.667,0.0429,-0.0197,9.8522,0.5764,-0.0053,-0.299
7345,988,654,34.619,33.562,0.0779,-0.0813,9.8005,0.2047,0.3473,-1.4642
7350,998,663,34.599,33.617,0.0012,-0.0098,9.8736,-0.0353,-0.5039,0.1728
7355,997,663,34.615,33.646,-0.0142,0.0332,9.8153,-0.2342,-0.3539,0.2174
7360,1023,674,34.636,33.63,0.047,0.045,9.7453,0.3263,-0.1474,-0.1463
7365,1019,678,34.589,33.561,-0.0117,0.0167,9.7756,0.4005,1.1271,-0.1846
7370,1042,682,34.58,33.705,0.0318,0.0555,9.7991,0.0276,-0.3631,-0.4003
7375,1040,688,34.563,33.61,0.0344,-0.0275,9.7689,1.4803,0.3595,-0.0981
7380,1063,693,34.617,33.703,-0.042,-0.0322,9.9294,0.0906,-0.5872,0.0211
7385,1075,703,34.705,33.639,0.0382,0.1213,9.7834,0.26,0.1928,0.744
7390,1084,703,34.678,33.62,-0.0066,0.0443,9.8195,-0.1075,0.8724,-0.8487
7395,1098,717,34.611,33.728,0.0246,0.0459,9.8214,0.2684,0.1556,-0.204
7400,1095,718,34.624,33.687,-0.0679,0.0052,9.9287,-0.6602,-0.6146,0.809
7405,1110,728,34.579,33.49,-0.0461,0.0823,9.7901,-0.1164,-0.6033,-0.1207
7410,1117,732,34.575,33.64,-0.0387,-0.0151,9.8815,-0.5815,-0.2042,0.4797
7415,1134,741,34.685,33.62,-0.0726,0.0228,9.837,-0.8206,-0.5664,0.0895
7420,1133,748,34.692,33.722,-0.0671,-0.1592,9.8556,0.6314,0.2843,1.2288
7425,1143,754,34.59,33.62,-0.001,0.0159,9.814,0.4133,-0.8361,0.4103
7430,1151,760,34.647,33.698,0.0644,0.0232,9.8122,-0.0818,0.2085,0.0595
7435,1160,766,34.642,33.522,0.0441,0.0155,9.8627,0.4161,-0.2579,0.0121
7440,1158,777,34.596,33.55,-0.0057,-0.0374,9.7771,-0.8136,0.01,0.4606
7445,1169,779,34.603,33.643,-0.0121,0.0059,9.8712,-0.2996,0.252,-0.0261
7450,1171,789,34.647,33.682,0.0968,0.1255,9.8217,-0.3802,-0.0095,0.4161
7455,1167,798,34.571,33.646,-0.0326,0.0428,9.8035,-0.3204,0.1851,-0.2286
7460,1179,801,34.672,33.576,0.066,-0.0282,9.8497,0.1225,-0.2504,0.4245
7465,1175,810,34.604,33.658,0.0577,-0.0948,9.817,0.8005,0.0963,-0.4187
7470,1189,816,34.672,33.628,0.0799,-0.0268,9.873,0.4087,-0.9564,0.132
7475,1184,830,34.578,33.623,-0.0161,-0.0296,9.8561,-0.0073,-1.2094,-0.29
7480,1190,830,34.581,33.621,-0.0011,0.1228,9.815,-0.482,-0.0507,0.4464
7485,1181,840,34.62,33.747,0.0329,0.1005,9.7909,0.658,0.4032,-0.0852
7490,1181,839,34.534,33.571,0.0121,0.0086,9.8045,0.0614,0.2108,0.9073
7495,1190,847,34.702,33.644,0.0408,0.0295,9.7607,-0.2763,-0.1685,-0.5543
7500,1185,858,34.637,33.724,-0.0767,0.084,9.866,-0.6286,-0.1274,0.0752
7505,1193,867,34.742,33.676,0.0627,-0.0158,9.7976,-0.0147,0.6365,0.1791
7510,1194,867,34.562,33.591,-0.0134,-0.0142,9.7647,-0.1635,0.9403,-0.5093
7515,1191,871,34.576,33.621,0.0798,-0.0432,9.8454,-0.1738,-0.2175,-0.0818
7520,1194,875,34.581,33.729,-0.0536,0.0158,9.762,-0.1106,0.4467,-0.2446
7525,1185,887,34.631,33.668,-0.0459,0.1086,9.8517,0.6144,-0.4633,0.6159
7530,1188,884,34.666,33.646,0.011,-0.0233,9.8667,1.553,-0.0071,-0.2995
7535,1180,890,34.649,33.644,-0.0722,0.0553,9.7717,-0.3069,0.773,-0.129
7540,1184,893,34.634,33.65,-0.0528,-0.0475,9.7953,0.0902,0.2083,-0.2831
7545,1168,896,34.553,33.652,0.0032,-0.0223,9.7953,0.7489,0.9995,-0.3942
7550,1181,899,34.67,33.755,0.0377,-0.071,9.7584,0.277,0.082,-0.341
7555,1175,901,34.598,33.627,0.0231,-0.0016,9.7898,-0.3604,-0.0459,0.0265
7560,1161,905,34.577,33.593,0.0719,0.0339,9.7746,0.2686,0.4193,0.514
7565,1165,912,34.675,33.647,-0.0301,-0.0654,9.8317,0.7644,0.0381,-0.3834
7570,1158,909,34.641,33.736,0.1001,0.0068,9.7798,0.2219,-0.8284,-0.595
7575,1151,915,34.593,33.665,0.0446,0.0476,9.7888,0.004,-0.7036,0.2181
7580,1142,917,34.641,33.698,0.0353,0.0452,9.7818,0.0113,0.0582,-0.3732
7585,1151,915,34.683,33.623,-0.0085,-0.0206,9.8109,-0.5005,-0.2396,-0.0444
7590,1149,913,34.622,33.636,-0.0288,0.003,9.8419,0.5671,-0.1954,0.2078
7595,1139,912,34.557,33.76,0.0313,0.0302,9.7803,0.7295,0.3122,-0.462
7600,1144,918,34.722,33.722,0.0285,0.0512,9.807,-0.0077,0.5704,0.6836
7605,1144,921,34.593,33.534,0.0249,-0.0545,9.8172,0.4707,0.1055,0.8309
7610,1143,915,34.703,33.561,-0.0561,0.0697,9.7687,0.4253,-0.8007,-0.2812
7615,1130,920,34.576,33.651,-0.0451,-0.0364,9.7276,0.5457,-0.0108,0.4037
7620,1129,915,34.62,33.678,-0.0216,-0.0843,9.8711,0.4755,-0.0824,-0.4287
7625,1123,916,34.653,33.689,-0.0601,-0.0093,9.7488,-0.6869,-0.6135,-0.4661
7630,1128,915,34.68,33.7,-0.0077,0.0303,9.7657,-0.005,-0.6916,0.2808
7635,1122,908,34.691,33.655,-0.0546,0.05,9.7341,0.5291,-0.8879,-0.1028
7640,1124,911,34.595,33.686,0.0661,0.0129,9.7431,0.6485,0.2834,0.3124
7645,1106,905,34.654,33.607,-0.0334,0.03,9.7702,-1.188,0.2161,1.6061
7650,1118,907,34.674,33.608,0.0469,0.038,9.7869,0.7469,0.1556,0.0362
7655,1111,904,34.581,33.71,-0.0937,-0.1131,9.7644,-0.7946,-0.6678,0.1265
7660,1116,903,34.686,33.592,0.0185,0.066,9.8304,-0.4249,-0.124,-0.31
7665,1106,901,34.556,33.773,-0.0479,0.0327,9.8071,-0.022,-0.189,-0.7772
7670,1099,903,34.686,33.657,0.0721,0.0398,9.777,-0.0111,-0.6211,-0.8517
7675,1094,899,34.631,33.672,-0.0288,0.054,9.8707,0.4458,0.3041,0.3619
7680,1106,894,34.594,33.661,0.071,-0.0564,9.9323,0.2056,-0.0495,-0.0631
7685,1100,891,34.546,33.674,0.0007,-0.0717,9.7863,-0.2589,0.5213,-0.6431
7690,1094,902,34.746,33.632,-0.0048,0.0158,9.8263,-0.1018,0.0623,1.067
7695,1084,891,34.668,33.722,0.0166,-0.0398,9.809,-0.6665,-0.8371,-0.1603
7700,1092,889,34.647,33.616,-0.0221,0.0778,9.8584,-0.2416,0.4537,1.1603
7705,1088,888,34.633,33.574,0.0284,-0.0717,9.8833,0.2172,0.0369,0.883
7710,1082,881,34.649,33.626,-0.0443,-0.0506,9.796,-1.447,-0.3744,-0.6023
7715,1087,880,34.551,33.586,-0.0854,-0.0403,9.7803,-0.0086,0.0612,0.8363
7720,1084,879,34.706,33.601,0.057,-0.0028,9.9009,0.198,0.5594,-0.3082
7725,1080,877,34.546,33.685,-0.0074,0.0656,9.8431,-0.0362,-0.8082,-0.1198
7730,1081,876,34.633,33.627,-0.0719,-0.0087,9.8359,0.7774,-0.5834,-0.4628
7735,1069,870,34.631,33.674,0.0654,0.053,9.9003,0.4816,-1.0406,0.5789
7740,1073,870,34.694,33.584,0.0109,-0.0469,9.7521,-1.0968,-0.1546,0.8075
7745,1060,870,34.536,33.655,0.0924,0.0324,9.801,0.547,0.0392,0.5275
7750,1071,874,34.572,33.663,0.0262,-0.051,9.7947,0.0075,-0.1069,1.1507
7755,1062,868,34.588,33.655,-0.0105,0.0449,9.831,-0.0252,0.0831,0.2561
7760,1064,864,34.73,33.65,-0.0173,0.1197,9.8335,0.2578,-0.5355,-0.1597
7765,1058,864,34.632,33.623,0.0584,-0.0904,9.8638,0.4952,0.2484,-0.2365
7770,1047,866,34.553,33.626,0.0472,-0.0188,9.7515,0.2036,0.0857,0.5545
7775,1046,860,34.62,33.653,-0.0041,0.0098,9.8328,-0.1731,-0.1533,-0.323
7780,1043,857,34.726,33.713,-0.0938,0.032,9.7387,0.2746,-0.784,0.1308
7785,1037,861,34.633,33.616,-0.0301,-0.0155,9.7428,0.5643,-0.0202,-0.4826
7790,1040,861,34.643,33.659,0.0455,0.0355,9.9106,-0.1876,0.0867,-0.16
7795,1029,861,34.665,33.617,0.0041,-0.0398,9.7071,0.7958,-0.5776,0.7291
7800,1025,851,34.625,33.684,-0.0197,0.0887,9.751,0.3133,-0.2023,0.1567
7805,1020,858,34.587,33.696,0.0434,0.1603,9.7939,-0.3476,-0.3727,0.3446
7810,1021,859,34.615,33.615,0.0041,0.031,9.8863,0.3166,-0.1279,-0.0546
7815,1010,851,34.616,33.635,0.0694,-0.0289,9.8712,-0.7056,-0.3383,-0.795
7820,992,853,34.674,33.733,-0.0036,0.0386,9.7953,0.4204,0.0753,0.3904
7825,996,849,34.52,33.659,0.0307,-0.0023,9.7772,0.4277,-0.2547,0.258
7830,977,845,34.637,33.692,0.0188,-0.0033,9.8627,0.0551,0.6794,0.9493
7835,976,848,34.721,33.709,-0.0173,0.0602,9.7305,0.5235,0.8795,0.119
7840,976,840,34.689,33.681,0.009,0.0538,9.8026,0.3392,-0.1494,0.1214
7845,962,848,34.604,33.65,0.054,0.007,9.8029,0.7599,0.524,-0.5468
7850,954,845,34.656,33.653,-0.0356,-0.0763,9.785,-0.3828,0.2433,0.622
7855,945,838,34.614,33.66,-0.0444,0.032,9.815,0.0364,0.0321,-0.1187
7860,943,842,34.616,33.605,0.0778,0.0076,9.7419,-0.1067,-0.4809,-0.2813
7865,928,838,34.601,33.609,-0.1081,-0.0636,9.8175,0.4777,0.3548,0.0825
7870,937,834,34.581,33.581,-0.0098,0.0793,9.8553,-0.1212,-0.1329,0.4807
7875,910,836,34.65,33.612,0.0348,-0.0018,9.857,-1.0738,0.1663,0.1925
7880,900,830,34.639,33.634,-0.036,0.0084,9.8266,-0.3764,0.1775,0.0
7885,897,826,34.655,33.616,-0.0868,0.0223,9.8078,0.4601,-1.2317,-0.4503
7890,891,824,34.639,33.679,-0.08,0.067,9.8422,0.8076,0.183,0.2669
7895,881,822,34.606,33.642,-0.0598,0.0144,9.851,-0.741,-0.0218,0.4424
7900,872,815,34.606,33.566,0.0055,0.0451,9.8904,-0.582,0.8782,0.494
7905,860,814,34.671,33.628,-0.0254,-0.0022,9.7728,0.146,0.686,0.3842
7910,859,812,34.606,33.667,-0.0476,-0.0093,9.8526,0.032,-0.0504,0.27
7915,854,805,34.634,33.647,0.0143,0.0793,9.798,-1.0922,0.7353,-0.3865
7920,834,803,34.601,33.581,-0.0323,0.0039,9.8422,-0.3975,0.2936,-0.0834
7925,831,800,34.63,33.681,0.0159,-0.0842,9.8795,-0.3251,0.9609,-0.5688
7930,815,796,34.658,33.688,0.0355,0.0535,9.7898,-0.0191,0.4661,0.0664
7935,811,794,34.592,33.665,0.0707,0.0601,9.8231,-0.5068,0.0685,0.4924
7940,805,789,34.712,33.658,0.0353,0.029,9.8149,-0.2676,-0.1948,-0.169
7945,797,787,34.584,33.71,0.0174,0.002,9.9264,-0.5647,-0.4154,0.4911
7950,789,780,34.554,33.675,0.0353,0.0199,9.8229,0.7517,-0.7476,-0.0437
7955,782,771,34.628,33.659,-0.0134,0.1134,9.8295,-0.3238,-0.2428,0.6534
7960,782,766,34.698,33.698,0.0169,0.0617,9.7387,-0.1189,-0.1101,0.4066
7965,777,766,34.662,33.587,0.0099,-0.0318,9.8437,0.4276,-0.8199,-0.2014
7970,772,758,34.725,33.623,0.0145,0.0057,9.866,-0.3317,-0.5602,0.0536
7975,769,756,34.54,33.559,0.0787,-0.0217,9.8674,0.6199,-0.6057,0.4678
7980,761,743,34.646,33.694,-0.0855,0.0073,9.8882,-0.0944,-0.2129,-0.9116
7985,756,745,34.635,33.623,0.0549,-0.0281,9.7186,-0.6466,0.1423,0.0605
7990,741,742,34.636,33.542,0.0755,-0.0152,9.8202,-0.0901,-0.8118,0.5508
7995,755,733,34.626,33.762,0.0064,0.088,9.7771,0.1779,0.0873,-0.1088
8000,762,732,34.676,33.616,0.0682,0.0706,9.8039,0.5098,-0.0364,0.6225
8005,753,714,34.732,33.554,0.0568,-0.0189,9.8135,0.5547,-0.7018,-0.1161
8010,746,717,34.576,33.613,0.0197,-0.0273,9.9149,-0.0412,-0.0983,0.1693
8015,741,711,34.616,33.701,0.0152,0.0419,9.8031,-0.2622,-0.0118,0.3248
8020,751,704,34.55,33.698,0.0593,-0.0039,9.8405,-0.0627,0.0453,0.5227
8025,745,699,34.575,33.577,0.0763,-0.0212,9.7624,-0.7244,0.0957,-0.0663
8029,750,701,34.563,33.665,0.0319,-0.0556,9.8507,-0.2602,0.0416,0.2163
8035,759,684,34.666,33.619,0.0657,-0.0414,9.7325,0.6206,-0.2869,0.281
8039,767,691,34.685,33.62,0.0274,0.0221,9.8292,-0.7151,0.7726,0.1162
8045,766,679,34.576,33.637,-0.0131,0.06,9.862,0.3181,0.119,0.7585
8050,762,676,34.603,33.665,0.0461,-0.0372,9.7623,-1.2806,-0.0912,0.1084
8055,774,676,34.675,33.683,0.0741,-0.0005,9.8014,0.2298,-0.5359,-0.6193
8060,768,668,34.627,33.731,0.0342,-0.0262,9.7824,0.6252,-1.0131,-0.4519
8064,785,661,34.739,33.677,0.0077,0.039,9.8212,0.5182,-0.5333,-0.0278
8070,788,663,34.604,33.607,-0.0272,0.0113,9.8104,0.3789,-0.0428,-0.3634
8074,796,659,34.669,33.661,-0.0716,0.0912,9.7755,0.3608,-0.7048,0.8064
8080,798,650,34.622,33.643,-0.057,0.0118,9.7616,0.2489,0.4221,-0.5944
8085,813,650,34.737,33.625,-0.0433,-0.0109,9.7023,-0.19,-0.5058,-0.8132
8090,819,649,34.587,33.618,-0.0336,0.049,9.8273,0.3438,-0.413,-0.0243
8095,837,649,34.556,33.63,-0.0629,-0.0808,9.865,-0.3971,-0.5048,-0.6263
8100,841,646,34.694,33.588,0.0248,-0.0097,9.7936,0.5784,-0.5379,0.5247
8105,853,634,34.612,33.637,0.0029,0.1055,9.8217,-0.0533,-0.803,-1.2138
8109,856,645,34.601,33.753,0.0146,-0.0737,9.8048,0.0974,0.1474,-0.3163
8115,863,647,34.641,33.581,-0.0942,-0.024,9.8244,-0.32,-0.8462,0.1837
8119,888,647,34.652,33.587,0.0134,0.0166,9.7,0.0726,0.2933,0.1219
8125,894,641,34.602,33.603,0.0274,-0.0473,9.7876,-0.2054,-0.1306,0.1238
8130,907,641,34.663,33.666,-0.0122,0.0434,9.867,0.0159,0.0783,-0.2921
8135,918,641,34.583,33.707,0.0009,-0.0124,9.8486,0.1058,-1.0044,-0.4473
8140,932,646,34.58,33.597,-0.0896,0.0161,9.8515,0.0269,-0.1221,0.5906
8145,942,651,34.603,33.612,0.0175,-0.0119,9.7782,0.8755,-0.1835,-0.3724
8150,954,648,34.593,33.662,-0.008,0.0224,9.8048,0.5593,-0.4696,0.4942
8154,964,656,34.672,33.598,-0.0448,-0.0032,9.8654,-0.1328,-0.4274,-0.1357
8160,974,656,34.655,33.642,0.0198,-0.0961,9.8213,-0.471,-0.8989,-0.8827
8164,987,663,34.624,33.58,-0.0417,0.0223,9.7803,-0.6635,0.04,0.7268
8170,1001,663,34.664,33.698,0.0977,-0.0267,9.7678,-0.182,-0.0491,0.5963
8175,1011,661,34.626,33.581,0.0229,0.0284,9.8246,-0.1949,0.4081,-0.8535
8180,1022,674,34.675,33.677,0.0743,0.0126,9.7169,-0.575,-0.0044,-0.3316
8185,1031,673,34.649,33.567,-0.0639,0.0256,9.7671,0.2851,-0.077,-0.258
8189,1037,682,34.666,33.672,-0.0164,0.0549,9.8219,0.847,0.2448,0.2912
8195,1047,690,34.608,33.652,-0.0162,-0.0063,9.7816,-0.6397,0.471,0.1148
8200,1066,690,34.625,33.675,0.0219,0.0674,9.8022,0.2024,0.7461,-0.0266
8205,1076,701,34.647,33.698,-0.005,0.0308,9.7522,0.7359,1.36,-0.0297
8210,1087,708,34.688,33.631,-0.0181,0.0173,9.7816,0.6248,0.93,0.1161
8215,1095,712,34.637,33.623,-0.0352,-0.0912,9.7488,0.6847,-0.1219,-0.3646
8220,1104,719,34.706,33.59,0.0253,-0.0299,9.751,-0.3352,0.6133,-0.0958
8225,1112,727,34.606,33.679,0.0032,0.0497,9.8666,-0.1891,-0.2868,-0.9129
8230,1115,731,34.688,33.614,-0.0022,-0.0326,9.7524,-0.1657,-0.958,-0.232
8235,1130,739,34.553,33.618,-0.0214,0.0066,9.7952,-0.0437,0.2702,-0.1759
8240,1138,744,34.6,33.648,0.0047,0.0232,9.8271,0.1759,-0.0258,0.1447
8245,1145,752,34.606,33.685,-0.0571,0.0894,9.804,-0.1111,-0.7517,0.6507
8250,1154,765,34.631,33.628,-0.0588,0.0582,9.7247,-0.5586,-0.745,0.0305
8255,1154,769,34.667,33.634,-0.021,0.0117,9.7994,0.3616,0.9219,0.216
8260,1170,772,34.706,33.622,-0.0621,-0.1001,9.8481,0.1087,-0.8596,-1.0477
8265,1175,787,34.627,33.626,0.0587,0.0427,9.8209,0.1889,0.528,-0.3222
8270,1172,787,34.589,33.634,0.0279,-0.0203,9.8339,0.4472,0.1346,0.7021
8275,1178,796,34.579,33.659,0.0449,0.0238,9.9091,-0.0796,-0.2974,0.7244
8280,1171,810,34.628,33.711,-0.0051,0.0539,9.8408,-0.0105,0.0384,1.2545
8285,1185,809,34.605,33.72,-0.0584,-0.004,9.7533,0.1418,0.982,0.2133
8290,1179,821,34.639,33.652,-0.0603,0.0261,9.7509,-0.6918,0.3543,0.0818
8295,1181,826,34.741,33.674,0.0582,0.1394,9.7472,0.4956,0.1371,-0.32
8300,1180,832,34.665,33.558,0.0059,0.0649,9.8494,0.2518,-0.023,0.0968
8305,1188,836,34.675,33.633,0.0298,0.032,9.8646,0.1836,0.0655,0.1788
8310,1189,846,34.634,33.652,0.0026,0.0288,9.7395,0.7659,0.3573,0.4142
8315,1183,853,34.631,33.661,0.0476,0.0321,9.7355,0.187,-0.2903,-0.592
8320,1177,861,34.633,33.731,-0.0132,-0.0917,9.8493,-0.1055,0.2266,-0.0141
8325,1187,861,34.7,33.606,0.0676,0.0942,9.8176,0.2451,-0.3304,0.2127
8330,1187,868,34.557,33.725,0.0724,0.0124,9.8632,0.4883,-0.0329,-0.619
8335,1189,868,34.686,33.722,-0.0101,-0.0686,9.7694,0.4373,-0.9823,-0.3121
8340,1178,879,34.617,33.653,-0.0093,-0.054,9.8837,-0.4894,-0.9301,-0.236
8345,1194,880,34.592,33.678,-0.0572,-0.0581,9.8063,0.5265,0.3558,0.7063
8350,1183,886,34.634,33.637,-0.0222,-0.0723,9.7802,-0.0703,0.0915,-0.5323
8355,1187,894,34.576,33.615,-0.0046,-0.0593,9.769,0.3738,-0.7105,-0.5714
8360,1179,894,34.565,33.632,0.0769,0.0383,9.7998,-0.2814,-0.0091,-0.1176
8365,1177,892,34.725,33.591,0.0112,-0.0098,9.8638,0.2191,-0.6301,-0.1345
8370,1171,893,34.617,33.76,-0.0324,0.0287,9.8069,-0.2091,-0.8499,0.1587
8375,1174,902,34.582,33.608,0.0515,-0.0432,9.7278,-0.5752,0.0777,-0.6208
8380,1159,907,34.627,33.581,0.1026,-0.0011,9.8339,-0.1499,0.1531,-0.8019
8385,1156,901,34.593,33.66,-0.0387,-0.0618,9.8794,0.0128,0.2181,0.3853
8390,1160,908,34.628,33.555,0.027,-0.0002,9.8567,-0.1719,-0.2329,-0.2863
8395,1154,909,34.595,33.619,-0.031,-0.084,9.8124,-0.4529,0.8772,0.2444
8400,1163,907,34.654,33.648,-0.0014,0.0412,9.789,0.7131,0.0027,0.4617
8405,1153,914,34.57,33.643,0.0286,0.0361,9.8366,-0.4987,-0.4654,0.1592
8410,1149,914,34.681,33.64,0.0066,-0.0384,9.837,0.2903,-1.0611,-0.8314
8415,1154,921,34.718,33.562,0.0493,0.039,9.8428,-0.2777,-0.4181,-0.8981
8420,1144,919,34.624,33.719,-0.0882,0.0094,9.8672,0.0613,-0.0445,-0.0183
8425,1152,915,34.608,33.731,-0.0275,-0.03,9.8799,-0.873,-0.2542,-0.4875
8430,1133,916,34.648,33.577,-0.0437,-0.0824,9.8889,0.3337,-0.5564,0.8616
8435,1133,914,34.74,33.639,0.0233,-0.0917,9.8043,-0.3876,0.5371,0.2553
