timestamp_ms,ir_finger,ir_toe,temp_finger,temp_toe,ax,ay,az,gx,gy,gz
0,1042,716,33.665,30.06,0.0308,0.0883,9.7697,-0.0288,-0.0642,0.6565
5,1051,713,33.669,30.074,0.0263,-0.0587,9.8851,0.2481,0.619,0.3325
10,1069,716,33.68,29.998,-0.0362,-0.0582,9.8719,0.4525,-0.055,0.2894
15,1081,708,33.546,30.081,-0.0208,-0.1112,9.7659,-1.0421,0.4656,0.4032
20,1081,702,33.633,30.065,0.0659,0.0053,9.8363,0.0822,-0.1845,0.1052
25,1105,700,33.585,30.077,-0.0118,0.0682,9.7216,-0.0127,-0.3063,-0.2164
30,1113,694,33.578,29.985,-0.0046,-0.0207,9.7871,0.2034,-0.0773,-0.2974
35,1110,698,33.594,29.954,-0.0001,-0.0004,9.8402,0.2778,0.4111,-0.5088
40,1125,703,33.589,30.093,0.1339,-0.0086,9.8426,-0.8951,-0.4338,0.1239
45,1134,696,33.68,30.108,0.0175,-0.0135,9.6915,0.097,0.6421,0.1342
50,1141,701,33.579,30.079,0.0214,-0.0001,9.7507,-0.8057,0.1993,0.254
55,1136,694,33.652,30.072,0.0472,-0.0431,9.8786,-0.3677,0.5439,0.2232
60,1154,699,33.591,30.118,0.0123,-0.0368,9.7662,0.31,1.1056,-0.2569
65,1159,699,33.595,30.047,0.0232,-0.0497,9.8216,-0.3543,0.7095,-0.7115
70,1157,699,33.531,30.033,-0.0748,-0.002,9.8872,0.6212,0.3186,-0.517
75,1166,698,33.673,30.087,0.0229,0.0406,9.8239,0.3576,0.2781,0.3572
80,1163,700,33.624,30.053,-0.006,-0.0779,9.768,0.3087,-0.049,0.0322
85,1170,699,33.723,30.031,0.0394,0.0674,9.8129,-0.5424,-0.1524,-0.2281
90,1181,701,33.651,29.983,0.0306,0.047,9.8371,-0.3185,-0.1096,-0.241
95,1183,703,33.489,30.027,0.0162,0.0697,9.8281,-0.1211,-0.4928,-0.2057
100,1192,701,33.611,30.141,0.0437,0.0513,9.8585,-0.0959,0.2996,-0.6388
105,1186,709,33.647,30.108,-0.0255,0.1197,9.7503,-0.3383,0.6909,0.2359
110,1194,708,33.605,30.05,-0.0137,-0.046,9.7432,-0.2633,0.1946,-0.4546
115,1203,708,33.619,30.117,0.0816,-0.0075,9.7462,-0.0937,0.2497,0.334
120,1196,712,33.689,30.049,0.0157,0.0004,9.7608,0.1119,-0.4823,0.3374
125,1190,717,33.552,30.039,0.0055,0.0795,9.8485,0.4396,-0.5868,0.3238
130,1187,725,33.523,30.105,-0.0408,0.0231,9.891,-0.3746,-0.3812,-0.2362
135,1193,726,33.599,30.013,-0.0748,-0.0149,9.8063,1.2541,-0.743,-0.2583
140,1176,731,33.599,30.049,-0.0788,-0.0462,9.8532,-0.6412,-1.0723,-0.5892
145,1176,738,33.571,29.996,-0.0258,0.0429,9.815,-0.0411,-0.0533,0.4652
150,1167,739,33.587,30.061,-0.0117,-0.0072,9.8765,-0.2096,-0.213,-0.3667
155,1173,746,33.49,30.031,0.0078,-0.0624,9.8168,0.213,0.5831,0.0932
160,1176,746,33.61,30.073,-0.0053,-0.0357,9.8769,0.0155,0.3866,0.2091
165,1166,753,33.608,30.013,0.0538,-0.0705,9.8806,0.8462,-0.3361,0.8507
170,1174,761,33.603,30.114,-0.0094,-0.0649,9.8949,-0.9822,-0.0851,0.3549
175,1171,762,33.669,30.072,0.0751,-0.0152,9.7108,-0.8135,0.2768,0.397
180,1155,770,33.563,29.98,-0.0095,-0.0078,9.8375,-0.1425,-0.3095,-0.3944
185,1149,769,33.568,30.035,0.0592,0.0143,9.8359,1.0428,0.6705,-0.5111
190,1155,781,33.605,30.08,0.0633,0.0356,9.8002,-0.6978,0.036,-0.1245
195,1153,779,33.554,30.034,-0.0122,-0.0151,9.7877,-0.5405,0.0855,-0.542
200,1152,795,33.701,30.063,0.0934,0.0122,9.8101,-0.5856,0.866,-0.2995
205,1151,797,33.523,30.014,-0.0094,-0.0214,9.7804,-0.7456,0.1796,-0.2055
210,1135,798,33.623,30.11,-0.0395,-0.0194,9.7504,-0.4864,0.4982,-0.0086
215,1145,807,33.625,29.993,-0.0081,-0.0187,9.8396,-0.3037,-0.3092,-0.1711
220,1142,808,33.635,30.107,-0.0683,-0.0322,9.8009,-0.3135,0.2052,-0.1652
225,1132,820,33.602,30.078,-0.0509,-0.0369,9.8579,0.0494,0.3811,0.2895
230,1129,825,33.67,30.079,0.0021,0.0206,9.9243,0.2588,-0.4118,-0.3194
235,1127,833,33.654,30.087,-0.0697,-0.0178,9.7263,0.1065,0.0531,-0.3298
240,1131,835,33.669,29.995,-0.011,0.0092,9.9254,-0.3997,0.3853,0.0037
245,1119,833,33.594,30.131,-0.122,0.009,9.8392,-0.5635,-0.013,0.0206
250,1114,842,33.621,30.077,-0.0161,-0.0002,9.8065,-0.4013,0.6928,0.012
255,1122,845,33.588,30.05,-0.0079,0.0696,9.8649,-0.3772,-0.4461,-0.1307
260,1113,852,33.554,30.076,-0.0617,-0.029,9.8687,0.7648,-0.4282,-0.2406
265,1100,849,33.72,30.029,0.0125,0.0553,9.8057,-0.3291,-0.4107,-0.6589
270,1105,849,33.639,30.077,0.0255,-0.0757,9.7614,-0.0582,0.545,-0.4101
275,1094,860,33.589,29.965,-0.0692,-0.0183,9.8179,-0.2831,0.531,-0.308
280,1098,856,33.527,30.071,-0.0577,-0.0678,9.7548,-0.4195,-0.9702,0.2167
285,1093,871,33.629,30.133,-0.0053,0.0063,9.7918,0.1495,0.3158,-0.7001
290,1088,868,33.681,30.089,-0.0021,0.0829,9.8198,-0.2211,0.5532,-0.6333
295,1093,866,33.562,30.074,0.004,-0.0355,9.9014,0.6249,-0.5725,-0.1147
300,1084,868,33.648,30.051,0.0322,-0.0233,9.8333,0.0239,-0.316,0.4303
305,1086,868,33.641,30.067,-0.1131,-0.0434,9.8021,0.0741,0.022,0.1203
310,1085,875,33.554,30.039,-0.0285,0.0067,9.7964,-0.2132,0.6296,-0.1624
315,1082,877,33.676,30.095,0.0781,-0.0151,9.7274,0.5409,1.2403,-0.4959
320,1079,876,33.556,30.013,-0.0427,-0.0365,9.7553,-0.3529,0.6798,0.039
325,1085,873,33.656,30.112,-0.0554,-0.0463,9.8744,-0.102,0.6542,-0.4458
330,1075,874,33.547,30.057,-0.0425,0.0375,9.8289,0.3581,0.0949,0.2294
335,1070,880,33.617,30.14,0.085,0.1271,9.7909,-0.2364,-0.2103,-0.0585
340,1071,877,33.659,30.033,-0.0206,-0.0392,9.8424,0.1994,-0.0088,0.1252
345,1072,886,33.635,29.999,-0.0359,-0.0195,9.7883,0.5543,-0.2252,-0.0738
350,1060,877,33.591,30.061,0.0033,-0.0477,9.8712,-0.5792,0.6278,0.0404
355,1061,875,33.671,30.028,0.0237,0.0018,9.7841,0.1913,-0.4789,0.2375
360,1057,879,33.663,29.964,-0.0024,-0.0065,9.7215,1.0867,0.5907,1.1854
365,1060,870,33.641,30.002,-0.0326,0.008,9.7538,0.4477,-0.1048,-0.5998
370,1046,881,33.633,30.017,0.0065,-0.0588,9.801,0.3576,-0.3446,-0.2706
375,1038,873,33.5,30.05,-0.0303,-0.0084,9.7961,0.1423,-0.7056,-0.087
380,1038,877,33.696,29.989,0.0612,-0.0733,9.7512,-0.1606,-0.4121,-0.4659
385,1034,873,33.577,30.032,-0.0376,0.0254,9.8448,-0.2251,0.512,-0.0157
390,1030,868,33.516,30.029,0.0286,-0.0823,9.7474,1.2727,-0.502,-0.5981
395,1025,870,33.65,30.149,0.0049,-0.0111,9.8604,0.3554,0.1978,-0.2832
400,1022,861,33.537,29.987,0.0442,-0.1282,9.748,0.5596,-0.4364,0.0358
405,1007,868,33.614,30.086,0.0036,-0.0703,9.7776,-0.2428,-0.2673,0.0307
410,1014,862,33.659,30.125,0.0834,0.0512,9.816,-0.0537,-0.3273,0.7582
415,995,862,33.558,30.065,-0.0323,0.0541,9.7745,-0.5828,-0.0638,0.0657
420,989,863,33.593,30.01,-0.0427,0.0093,9.872,-0.1431,0.6763,-0.3922
425,976,863,33.713,30.077,0.0226,-0.0378,9.7221,-0.2417,0.2339,0.2273
430,973,862,33.575,30.053,0.0273,-0.0389,9.7751,0.1433,0.0472,0.4734
435,971,855,33.743,30.082,-0.0172,0.0309,9.8777,0.0865,-0.1285,0.7553
440,961,852,33.635,30.078,-0.0143,-0.0537,9.8484,-0.3065,-0.3859,-0.1521
445,948,856,33.653,30.062,0.0569,-0.0301,9.8,-0.4612,-0.4427,-0.2357
450,935,852,33.713,30.074,0.0176,0.0011,9.837,0.1246,-0.1799,-0.1881
455,920,856,33.576,30.016,0.0326,0.0977,9.7921,0.7164,0.8854,0.1608
460,919,847,33.588,30.027,-0.0178,0.0383,9.7937,-0.3418,0.1814,0.1297
465,912,845,33.643,30.0,0.0535,0.0612,9.7844,0.2356,-0.2557,0.6902
470,907,852,33.629,29.977,-0.0042,-0.0653,9.8411,0.1928,0.3016,0.5258
475,889,850,33.596,30.102,-0.0567,-0.0324,9.814,-0.2105,-1.0105,0.2951
480,882,850,33.616,30.045,0.0489,0.0004,9.7972,1.1279,-0.045,-0.0574
485,872,846,33.664,30.044,-0.0508,0.1167,9.8224,-0.2011,-0.548,-0.4251
490,855,840,33.613,30.076,-0.0136,0.0599,9.8758,-0.4287,0.2927,-0.0046
495,853,846,33.569,30.102,-0.0213,-0.0887,9.7366,0.3914,-0.3999,-0.1335
500,836,842,33.576,30.048,0.019,-0.0364,9.8419,0.1959,0.0093,0.5237
505,836,838,33.685,30.084,-0.024,0.0149,9.844,-0.5949,-0.8785,-0.0843
510,828,841,33.6,30.015,-0.0407,0.0299,9.8363,-0.1592,0.2632,-0.4705
515,811,838,33.49,29.964,-0.0192,-0.0388,9.7782,0.624,0.2265,0.0843
520,796,841,33.568,30.085,0.0139,-0.0463,9.8128,-0.4843,0.2291,0.372
525,798,837,33.626,30.176,-0.0072,0.008,9.7243,0.1929,0.2888,-0.3226
530,798,839,33.575,30.13,-0.0839,0.0278,9.8334,0.0243,-0.4403,-0.4602
535,776,842,33.586,30.189,0.0942,0.0327,9.7939,-0.1564,1.4427,-0.5593
540,785,831,33.649,30.074,-0.0614,-0.0045,9.7858,-0.4261,0.4956,0.0633
545,776,831,33.636,30.054,-0.0158,-0.0355,9.8381,0.9402,-0.0897,0.7701
550,767,832,33.592,30.198,-0.0311,0.0643,9.7984,-0.2672,-0.2828,1.4375
555,757,830,33.581,30.039,0.0027,-0.0561,9.8354,0.1455,0.0939,-0.3869
560,754,834,33.621,30.102,-0.003,0.0151,9.7718,-0.3686,-0.2394,0.1426
565,750,828,33.617,29.941,0.0331,-0.0346,9.7848,-0.5884,0.9061,-0.2741
570,755,829,33.672,30.034,-0.0639,0.0327,9.7456,0.2032,-0.5104,-0.3892
575,746,829,33.627,30.026,0.0422,-0.0006,9.7819,-0.9503,-0.229,-0.1039
580,746,827,33.698,30.0,0.0072,0.0249,9.8882,0.4123,-0.1604,-1.0261
585,746,821,33.645,29.97,0.047,0.0038,9.8055,0.6184,0.1822,-0.5858
590,745,823,33.623,30.139,0.0105,-0.0985,9.7965,-0.4622,0.6352,-0.0741
595,748,822,33.695,30.091,0.0685,-0.0006,9.7881,0.8938,1.1967,0.8297
600,746,816,33.621,30.028,0.0052,0.0565,9.8756,-0.5489,0.2737,0.472
605,741,816,33.66,30.088,0.0076,0.0677,9.8335,0.1933,0.0426,0.012
610,743,817,33.652,30.054,-0.0368,-0.0031,9.8534,0.2667,1.1321,-0.0744
615,750,814,33.577,30.117,-0.0161,-0.0151,9.7496,-1.0462,0.5469,0.1508
620,753,812,33.573,30.007,0.0815,-0.04,9.8225,-0.4201,0.3471,-0.5399
625,760,813,33.58,30.088,-0.0315,-0.0399,9.7296,0.0393,0.1482,-0.7592
630,774,804,33.708,30.058,-0.0138,0.0459,9.9381,0.2214,-0.7361,-0.7159
635,776,802,33.663,30.156,0.0236,-0.0776,9.7921,0.3779,0.3976,0.1438
640,783,797,33.612,30.125,-0.0142,0.0106,9.766,0.1585,0.1481,0.1038
645,797,792,33.655,30.106,-0.0263,0.0193,9.8497,-0.0255,-0.259,0.255
650,800,790,33.612,30.022,-0.0062,0.0105,9.7204,-0.188,0.5262,0.3833
655,815,786,33.541,30.034,0.0786,-0.015,9.8114,-0.3968,0.3616,-0.6776
660,811,786,33.651,30.073,-0.0154,0.1009,9.8515,-0.2355,0.5697,-0.5678
665,829,781,33.589,30.106,0.0914,-0.0746,9.7824,0.2999,0.1169,-1.1302
670,847,781,33.674,30.053,-0.0351,0.0192,9.8214,-0.5978,-0.1952,0.0864
675,857,768,33.616,30.113,-0.0055,-0.0206,9.7455,-0.3985,-0.0779,-0.7151
680,859,769,33.724,29.994,-0.0811,-0.0109,9.8046,0.2622,0.2583,0.4357
685,881,767,33.585,30.024,0.0969,0.0088,9.7725,-0.704,-0.6147,0.484
690,878,763,33.654,29.991,-0.0309,0.0143,9.8789,0.2312,-0.0317,0.7119
695,906,758,33.607,30.061,-0.0071,0.0113,9.9167,0.4049,-0.4884,0.2215
700,911,756,33.627,30.082,-0.0462,0.0138,9.8201,0.5122,-0.5004,-0.2619
705,920,751,33.65,30.139,0.0719,0.0691,9.7536,0.5026,-0.1837,1.3122
710,943,742,33.624,30.065,-0.0345,-0.015,9.76,0.0695,-0.6085,-0.1435
715,951,747,33.667,30.044,-0.0668,-0.0631,9.8245,-0.0874,-1.1424,-0.3717
720,953,738,33.592,30.122,0.0643,0.0089,9.8452,0.0683,0.1391,-0.6336
725,982,737,33.696,30.058,0.0719,0.0329,9.8297,1.2208,0.6634,-0.5442
730,1000,731,33.581,30.073,0.0389,-0.0016,9.8272,-0.8058,0.264,0.0662
735,1005,732,33.619,30.17,0.084,-0.0224,9.8351,-0.5749,-0.7313,0.4797
740,1007,722,33.556,30.02,-0.0962,0.0023,9.8079,-0.493,-1.3006,-0.4852
745,1031,719,33.763,30.143,0.0296,0.0714,9.8195,-0.1391,-0.2764,0.4241
750,1037,721,33.601,30.113,0.073,0.0678,9.9112,-0.0018,0.1794,-0.8229
755,1057,717,33.631,30.038,-0.1078,-0.036,9.881,-0.3809,-0.476,0.1365
760,1062,717,33.644,29.99,-0.04,0.0272,9.8835,0.8643,0.5305,-0.7237
765,1083,710,33.594,30.046,0.0067,-0.0617,9.8383,-0.3825,0.4396,-0.1023
770,1084,706,33.575,30.081,-0.0607,0.0014,9.8066,-0.394,-0.4844,0.0683
775,1098,705,33.601,29.996,-0.0218,-0.0778,9.8066,0.4114,-0.0132,-0.4087
780,1109,703,33.618,30.049,0.0084,0.0185,9.7891,-0.2091,-1.2496,0.1108
785,1110,699,33.627,30.01,-0.0051,-0.0441,9.795,0.3975,1.3552,0.0724
790,1126,691,33.692,30.115,-0.0002,-0.0063,9.7486,-0.0373,0.2101,0.0935
795,1129,699,33.702,30.003,-0.0062,-0.0671,9.8635,-0.5347,-0.4845,-0.6474
800,1133,697,33.631,30.094,0.009,0.0134,9.8397,0.1464,0.0023,-0.0936
805,1140,691,33.634,30.121,0.0394,0.095,9.7764,0.0707,-0.2349,0.8559
810,1150,700,33.672,30.129,-0.0509,-0.029,9.7976,0.6649,0.2296,-0.4486
815,1163,694,33.545,29.971,0.0552,0.0686,9.7279,-0.1968,0.0656,-0.0986
820,1166,701,33.621,30.074,0.0094,-0.0301,9.7519,-0.355,0.3749,0.1251
825,1177,697,33.579,30.039,0.0296,-0.1123,9.8064,0.1176,0.6546,-0.449
830,1174,696,33.59,30.07,-0.0376,0.0603,9.8051,-0.1479,-0.3742,1.2625
835,1182,703,33.659,30.045,0.0581,0.0491,9.8093,-0.1841,-0.9918,-0.7158
840,1187,697,33.641,30.033,-0.0154,0.001,9.7779,0.2245,0.243,0.0304
845,1184,701,33.694,29.993,0.09,-0.0698,9.8845,-0.0971,0.4956,-0.0162
850,1192,705,33.56,30.052,0.0812,-0.0361,9.8516,0.4992,0.2758,0.1548
855,1183,704,33.609,30.016,-0.0774,-0.0187,9.8181,0.7229,-0.6063,-0.527
860,1186,704,33.621,30.088,0.1087,0.0261,9.824,-0.8476,0.6488,0.8481
865,1189,715,33.657,30.134,-0.0147,0.0084,9.798,-0.7968,0.1636,-0.6186
870,1187,714,33.562,30.16,0.053,-0.0355,9.8466,0.2399,-0.0319,-0.6497
875,1192,723,33.628,29.994,-0.0411,0.0053,9.8748,0.2207,-0.5894,-0.2692
880,1190,722,33.676,30.064,-0.0417,0.0349,9.7968,-0.1723,-0.0886,-0.244
885,1186,725,33.675,30.134,-0.0041,-0.0607,9.7513,-0.5655,-0.845,0.8318
890,1182,727,33.719,30.08,-0.0111,-0.034,9.868,0.2823,1.0339,0.0109
895,1184,742,33.585,30.099,0.0682,0.0523,9.7668,-0.3048,1.0206,-0.8828
900,1182,734,33.573,30.054,-0.0234,0.0035,9.9029,-0.7642,-0.4208,0.7444
905,1171,741,33.548,30.076,-0.0039,-0.0583,9.8722,0.2127,0.3561,0.1166
910,1180,751,33.71,30.175,-0.013,-0.0255,9.7394,-0.0351,0.8062,-0.7318
915,1173,751,33.644,30.073,-0.0497,-0.081,9.8199,0.2752,0.5263,0.6972
920,1161,761,33.669,30.068,0.043,0.023,9.8458,0.7919,-0.67,0.4402
925,1162,761,33.616,30.084,0.0282,-0.0624,9.7859,-0.909,-0.101,0.4071
930,1155,764,33.654,30.087,0.0655,0.0223,9.843,-0.2364,0.1574,-0.0797
935,1156,768,33.765,30.073,0.0505,-0.0564,9.7769,-0.9714,-0.221,0.5031
940,1156,777,33.607,30.109,-0.0809,0.0825,9.7933,0.3085,-0.0466,-0.0813
945,1154,788,33.518,30.125,0.0808,-0.0368,9.7953,-0.0373,-0.1533,0.4274
950,1150,792,33.618,30.082,-0.0186,-0.0426,9.8644,-0.1272,-0.0445,0.2848
955,1150,793,33.634,30.051,0.0246,0.0604,9.7707,-0.2173,-0.3611,-0.2164
960,1144,798,33.68,30.017,0.0467,0.0168,9.839,0.7831,0.0142,0.0142
965,1138,804,33.52,30.121,-0.0274,0.0659,9.8438,0.3485,-0.0273,1.0521
970,1137,809,33.595,30.076,0.0245,0.0674,9.8012,-0.1981,-0.3602,-0.0814
975,1135,816,33.587,30.013,0.034,0.0256,9.8772,0.1363,-0.3325,0.2831
980,1125,819,33.592,30.096,-0.0779,-0.0387,9.8195,0.3758,0.166,-0.1504
985,1125,828,33.618,29.999,0.0384,-0.0478,9.7822,0.0882,0.3468,-0.2245
990,1123,825,33.568,30.01,0.0051,-0.011,9.7398,-0.0043,-0.6227,0.2727
995,1120,830,33.61,30.02,-0.0974,-0.0001,9.8452,0.6013,0.2669,-0.1011
1000,1113,839,33.679,30.006,-0.0456,-0.0396,9.8519,-0.4889,-0.1766,0.0851
1004,1108,843,33.641,29.999,0.0752,-0.0054,9.7189,0.4361,-0.6622,0.2185
1010,1111,846,33.615,30.043,-0.0129,0.0183,9.8023,0.0408,0.4047,0.6288
1014,1117,848,33.557,30.037,-0.1074,-0.0796,9.7525,-0.3311,0.0562,-0.8122
1020,1104,852,33.664,30.056,0.0549,0.0468,9.8698,-0.0266,0.4201,-0.5739
1025,1108,852,33.634,30.094,-0.0017,-0.0282,9.8315,0.2335,-0.0794,0.4191
1030,1099,855,33.601,30.057,0.05,-0.0184,9.916,0.2577,0.3938,0.4979
1035,1092,860,33.617,30.137,-0.0255,0.013,9.7321,-0.4828,0.1778,-1.0642
1040,1095,871,33.669,29.972,0.0191,0.0372,9.8842,0.3039,-0.3211,-0.3332
1045,1100,864,33.653,30.007,0.0237,0.046,9.8511,-0.2235,-0.6247,-0.7346
1050,1093,861,33.685,29.952,0.0307,0.0137,9.7811,-0.5657,-0.6206,-0.7461
1055,1088,871,33.629,30.066,0.0366,-0.0316,9.8036,-0.4498,-0.3416,-0.3644
1060,1084,872,33.567,30.038,-0.0327,-0.0518,9.8838,-0.7977,-0.6054,0.3283
1065,1088,878,33.687,30.02,0.0148,-0.005,9.8536,-0.4611,-0.031,0.6976
1070,1073,877,33.527,30.103,-0.0114,0.0463,9.6929,0.7062,0.428,0.0548
1075,1069,879,33.663,30.041,-0.015,-0.0316,9.7946,0.0055,-0.7313,-0.0514
1080,1083,880,33.698,30.03,-0.0425,0.0787,9.8313,-0.3746,0.7241,0.0623
1085,1074,873,33.614,30.011,-0.0478,-0.0651,9.8588,0.3319,-0.414,0.4739
1090,1070,877,33.601,30.033,0.0265,0.0058,9.8233,-0.0243,-0.6059,0.3872
1095,1064,881,33.653,30.108,0.0458,-0.0238,9.8667,-0.1108,-0.5929,0.5689
1100,1063,874,33.699,30.101,-0.0469,-0.0247,9.8358,-1.2631,0.3683,0.2817
1105,1058,872,33.578,30.034,-0.0215,0.0061,9.8514,-0.528,0.3192,0.3886
1110,1056,877,33.599,30.07,-0.0571,0.1369,9.8427,-0.0585,0.1436,-1.0006
1115,1052,871,33.655,30.067,-0.0091,-0.0019,9.8467,0.2293,-0.3729,0.1192
1120,1050,879,33.564,30.024,0.0453,-0.023,9.6842,-0.1851,0.0386,-0.213
1125,1047,876,33.601,30.038,0.0327,-0.0864,9.8076,0.3188,-0.1256,0.1092
1130,1037,874,33.685,30.118,-0.0501,-0.0763,9.7993,0.277,-0.2966,-0.0094
1135,1031,872,33.6,30.049,-0.0097,-0.0803,9.807,0.1421,0.6374,0.1278
1140,1030,873,33.562,30.03,0.0336,-0.0358,9.8776,1.0704,-0.2943,-0.1919
1145,1017,871,33.622,30.03,0.0257,-0.0527,9.7778,0.1625,-0.789,-0.3073
1150,1026,867,33.691,30.042,-0.0029,-0.0311,9.7909,0.4408,0.5107,1.035
1155,1006,867,33.595,30.057,-0.0209,-0.0231,9.7569,0.5758,-0.1311,-0.141
1160,997,871,33.597,29.96,-0.0257,0.0164,9.8235,-1.3144,-0.2974,0.969
1165,988,861,33.549,30.015,0.0404,0.0422,9.808,-0.1842,0.8395,0.7917
1170,991,862,33.641,30.073,0.0628,-0.0204,9.7032,-0.5155,0.6233,-0.2146
1175,985,865,33.601,29.968,0.0582,-0.0298,9.8036,0.7766,1.3213,0.0572
1180,979,861,33.617,30.031,0.0274,-0.004,9.83,-0.2711,-0.2605,-0.142
1185,962,855,33.65,30.029,0.0283,0.0009,9.8199,-0.4658,-0.1267,-0.4531
1190,959,858,33.579,30.064,-0.0267,0.0376,9.8484,0.116,0.7404,1.0824
1195,950,862,33.578,30.114,-0.0306,0.0067,9.7427,0.4458,0.8491,0.2997
1200,942,852,33.55,30.021,0.0987,-0.0011,9.8107,-0.5985,0.3079,0.0368
1205,927,846,33.704,30.054,-0.0307,0.0775,9.8219,0.6028,0.352,0.3461
1210,920,849,33.652,30.094,0.0415,-0.0972,9.8618,0.0439,0.1883,-0.5819
1215,909,851,33.657,30.084,-0.1308,0.0,9.7658,0.3591,-0.1573,-0.75
1220,902,845,33.576,30.077,0.0202,-0.0189,9.8578,0.6604,-0.9539,-0.9162
1225,887,844,33.544,29.981,0.0184,-0.019,9.9079,-0.6663,0.2189,-0.1592
1230,886,840,33.54,30.02,-0.0384,0.0051,9.7798,0.434,-0.3985,0.7527
1235,873,844,33.566,30.09,0.0389,0.0052,9.8534,0.2008,0.0962,0.2554
1240,861,843,33.632,30.039,0.0248,0.0383,9.7705,-0.7992,0.4967,0.0225
1245,858,842,33.601,30.132,0.0047,-0.0793,9.7556,-0.6199,0.3943,0.0615
1250,834,842,33.582,30.028,-0.0122,0.0023,9.7777,0.3331,-0.2567,0.5294
1255,832,844,33.69,30.114,-0.044,-0.0254,9.8779,0.5252,0.8016,0.0517
1260,816,843,33.532,30.112,0.0157,-0.1382,9.7979,0.4174,-0.3502,-0.3896
1265,818,839,33.618,30.036,0.0109,-0.021,9.832,0.1268,0.0646,0.329
1270,806,839,33.627,30.027,-0.0252,-0.0572,9.8761,0.6236,-0.0376,-0.1264
1275,795,835,33.677,30.071,0.0795,0.0815,9.8182,-0.2211,-0.0482,0.2841
1280,792,839,33.63,30.057,-0.0394,-0.0103,9.8262,-0.5749,-0.1994,-0.0518
1285,795,841,33.656,30.157,-0.0397,-0.0108,9.7978,-0.1156,0.6412,-0.0608
1290,782,834,33.732,30.024,0.0246,-0.0317,9.8406,0.1207,0.3589,1.0121
1295,770,835,33.654,30.04,-0.0493,-0.0247,9.9325,0.5642,-0.8044,-1.1468
1300,768,838,33.715,30.155,-0.0217,-0.0644,9.726,0.8177,-0.3395,0.0162
1305,758,832,33.568,30.053,0.0154,-0.0133,9.7609,0.311,0.85,-0.1353
1310,767,826,33.574,30.12,0.0241,0.0894,9.8326,-0.0475,0.1458,0.3156
1315,754,833,33.692,30.022,-0.0612,0.0894,9.7598,0.0161,0.0685,-0.5691
1320,743,828,33.679,30.073,-0.0568,-0.0622,9.8177,-0.17,-0.1396,-0.2026
1325,752,829,33.661,30.09,0.0294,-0.0216,9.778,-0.0857,0.3727,-0.8551
1330,751,824,33.611,30.091,0.0582,0.0193,9.8336,0.5427,0.2453,0.5612
1335,747,820,33.62,30.065,0.0637,0.068,9.8552,0.2181,0.6352,-0.6029
1340,734,820,33.628,29.989,-0.0735,0.0071,9.8293,0.4329,0.2548,-0.294
1345,743,823,33.649,29.955,-0.0209,-0.0019,9.8088,0.5214,-0.0646,-0.4484
1350,752,818,33.693,30.079,-0.0448,-0.0124,9.7582,-0.3549,0.2537,-0.3665
1355,755,817,33.635,30.13,0.0398,-0.103,9.7613,0.0825,0.2443,0.3985
1360,754,810,33.658,29.98,0.0391,0.0288,9.9035,-0.0533,0.6333,0.2499
1365,761,802,33.662,30.042,0.0302,-0.0264,9.8215,-0.3081,-0.2771,-1.1365
1370,761,806,33.574,30.001,-0.0563,-0.0297,9.7705,0.7056,0.5003,0.7537
1375,773,810,33.551,30.025,0.0477,-0.0188,9.7804,0.0062,-0.4169,-0.1638
1380,759,802,33.653,30.07,0.0323,0.0026,9.7722,-0.7176,0.2875,0.4138
1385,779,807,33.695,30.127,0.0086,-0.0488,9.8035,-0.159,0.236,-0.14
1390,793,801,33.748,30.028,-0.0556,0.0828,9.8257,0.0844,-0.4936,0.3716
1395,790,792,33.625,30.09,-0.0532,0.04,9.7241,-0.4799,-0.7402,0.3517
1400,797,793,33.663,30.151,0.0196,0.0039,9.8673,-0.1752,-0.0579,-0.0767
1405,809,787,33.598,30.055,-0.0798,-0.0239,9.7877,-0.011,-0.1339,0.3384
1410,816,787,33.637,30.073,0.028,0.036,9.8676,-0.8484,-0.4955,0.4458
1415,833,781,33.664,30.155,0.0259,0.0699,9.8053,-0.853,0.2934,-0.8538
1420,844,777,33.6,30.055,0.1138,-0.0064,9.8202,0.0618,0.1096,0.3447
1425,851,776,33.597,30.061,0.0631,-0.0817,9.8205,0.3154,0.3549,-0.2635
1430,865,773,33.619,30.052,-0.0021,0.0514,9.8244,-0.2184,-0.0557,0.1423
1435,877,770,33.612,30.158,-0.0523,-0.0015,9.8137,-0.0019,0.2438,0.1007
1440,884,763,33.611,30.1,0.0228,-0.0308,9.8035,0.8264,0.0556,0.0694
1445,906,759,33.662,30.085,-0.0109,0.0078,9.7829,-0.0486,0.104,0.7941
1450,918,760,33.666,30.049,-0.0286,0.0114,9.822,-0.1315,0.1299,-0.2428
1455,925,751,33.707,30.207,-0.1414,0.0256,9.7442,-1.1254,0.4575,-0.3205
1460,937,744,33.607,30.098,0.0573,-0.0613,9.844,0.4748,0.2204,-0.9545
1465,954,737,33.687,30.052,0.1171,0.0405,9.8366,0.1075,-0.6611,-0.4652
1470,966,741,33.637,30.075,0.024,0.0278,9.8489,-0.5608,1.095,-0.1515
1475,973,735,33.701,30.091,0.0047,-0.0341,9.8308,-0.7348,0.2961,0.506
1480,993,730,33.581,30.065,-0.0041,-0.0214,9.8232,-0.4707,0.4973,-0.7312
1485,1004,728,33.582,30.138,-0.0154,-0.0303,9.8288,0.5004,0.24,-0.3331
1490,1005,732,33.638,30.052,-0.0314,0.0236,9.7939,0.4765,0.7107,-1.3439
1495,1025,721,33.544,30.127,-0.0062,0.0676,9.8352,0.6098,-0.4515,-0.2796
1500,1040,723,33.578,30.141,-0.0397,-0.1209,9.7469,-0.3106,0.1497,-0.4459
1505,1052,713,33.583,30.061,-0.0501,0.0147,9.7546,0.61,0.3654,-0.9144
1510,1058,710,33.627,30.086,0.041,-0.0068,9.8588,0.3914,-0.1048,0.3912
1515,1073,711,33.669,30.123,-0.0597,-0.0092,9.8246,0.7842,-0.1466,0.7288
1520,1089,708,33.676,30.047,-0.0317,-0.0684,9.8793,-0.0757,0.3133,0.2856
1525,1093,704,33.659,30.102,-0.0254,-0.0164,9.7776,-0.4272,0.4166,0.1294
1530,1099,706,33.608,30.045,0.1156,0.0182,9.8452,-0.7314,-1.4519,0.0968
1535,1105,706,33.513,30.044,0.0752,0.0299,9.7917,0.368,0.4372,-0.7005
1540,1123,690,33.669,29.998,-0.0007,0.0114,9.8435,0.0393,-0.1674,-0.2017
1545,1131,694,33.681,30.072,-0.0026,-0.0004,9.8556,1.2722,-0.5351,-0.1573
1550,1135,698,33.734,30.1,-0.021,0.0057,9.793,-0.925,-0.4632,-0.4767
1555,1149,694,33.586,30.073,-0.0072,0.0449,9.7871,0.2187,-0.5334,0.0753
1560,1149,700,33.671,30.094,-0.0636,-0.0094,9.7535,0.7333,0.3219,0.3045
1565,1167,694,33.581,30.03,-0.0146,-0.0685,9.911,-1.1822,0.5085,-0.4543
1570,1164,694,33.623,30.009,-0.0853,-0.0143,9.8404,0.9995,0.1963,0.5924
1575,1169,697,33.599,30.008,-0.0963,-0.0049,9.8157,-0.2981,0.4074,-0.1873
1580,1176,701,33.562,30.083,0.0379,-0.0069,9.8028,0.3635,-0.7222,0.5882
1585,1176,697,33.6,30.002,-0.0334,-0.0321,9.7383,-0.4439,-0.5796,0.5292
1590,1199,697,33.616,30.041,-0.011,-0.0354,9.8671,0.3262,-0.8889,-0.3079
1595,1180,697,33.618,30.132,-0.0107,0.0491,9.8339,-0.0681,0.2442,-0.2106
1600,1178,700,33.694,29.986,0.0567,0.0778,9.8119,-0.2634,-0.9324,0.2433
1605,1185,704,33.676,30.121,0.0229,-0.0084,9.8326,-0.0176,0.3015,0.652
1610,1188,703,33.66,30.196,0.0717,-0.0026,9.8418,-0.8015,0.2971,-0.2503
1615,1193,716,33.68,30.017,-0.0135,0.0435,9.7785,1.199,0.7969,0.1435
1620,1190,712,33.658,29.981,-0.0673,-0.0086,9.7258,0.8885,-0.3756,0.3279
1625,1175,721,33.675,30.016,0.0158,0.0045,9.865,0.2489,-0.5306,-0.1272
1630,1187,722,33.62,30.115,-0.0795,0.0242,9.8506,0.1313,-0.1251,0.9033
1635,1190,719,33.627,30.04,-0.0903,0.0316,9.8172,-0.3652,0.4303,-0.3836
1640,1183,727,33.628,30.126,-0.0495,-0.0393,9.7951,0.2697,-0.448,0.5972
1645,1183,734,33.593,30.014,-0.0014,-0.1678,9.8243,0.778,-0.6788,0.4124
1650,1180,736,33.63,30.032,0.0104,0.0133,9.8199,0.4672,0.2873,-0.057
1655,1185,745,33.65,30.076,-0.0067,0.0147,9.7607,0.5276,-0.2321,-0.7018
1660,1172,745,33.663,30.092,-0.0804,-0.1009,9.7932,-0.6177,0.048,0.0302
1665,1175,751,33.582,30.175,0.0537,0.0205,9.7677,-0.9224,-0.4876,0.1767
1670,1175,755,33.555,29.951,-0.0286,0.0485,9.7711,-0.2236,-0.1538,0.9937
1675,1159,759,33.615,30.049,-0.0174,-0.0729,9.7015,-0.8701,-0.0167,0.2172
1680,1157,764,33.607,30.121,-0.0104,0.0176,9.7799,-0.071,0.6356,0.0367
1685,1157,771,33.693,29.961,-0.0151,0.0644,9.7377,-0.0357,0.1911,-0.2947
1690,1156,776,33.61,30.139,0.0846,0.0013,9.7875,-0.8131,0.5342,-0.5619
1695,1155,783,33.596,30.041,-0.0016,-0.0852,9.9278,-0.0925,-0.3096,0.0215
1700,1144,790,33.637,29.989,-0.0733,-0.0372,9.8314,0.4152,-0.3568,1.094
1705,1151,791,33.61,30.135,0.0624,0.0692,9.8114,0.1893,1.2571,-0.5002
1710,1144,801,33.701,30.054,-0.0413,-0.0193,9.8303,0.829,-0.6406,-0.4994
1715,1135,805,33.638,30.082,-0.0898,-0.073,9.8229,-0.1647,-0.1994,0.2102
1720,1123,810,33.538,30.067,0.0158,0.0139,9.827,0.1504,0.6132,-0.4945
1725,1138,814,33.57,30.019,-0.036,-0.0371,9.8296,-0.2545,-0.2187,-0.2268
1730,1134,823,33.607,30.045,0.0598,-0.0371,9.8578,-0.3591,-1.0415,0.5633
1735,1122,827,33.611,30.013,0.0223,0.0385,9.8037,0.6442,0.4749,0.0892
1740,1114,830,33.659,30.111,-0.0293,-0.1051,9.8014,-0.5516,-0.6887,-1.0951
1745,1129,828,33.655,30.004,-0.0488,0.0177,9.7615,-0.7744,0.1372,-0.6964
1750,1112,841,33.646,30.092,-0.0651,-0.0075,9.8281,0.4105,-0.57,0.6309
1755,1111,842,33.721,30.072,0.0215,0.0141,9.792,0.6772,0.7613,-0.0418
1760,1119,848,33.63,30.085,0.0131,0.0198,9.7284,1.2156,0.6864,0.581
1765,1120,849,33.565,30.002,0.0469,-0.0356,9.8414,0.3699,-0.9964,0.4155
1770,1108,854,33.66,30.086,0.0588,-0.012,9.8362,-0.2702,0.1884,0.5512
1775,1112,855,33.591,30.12,0.0803,0.092,9.7507,0.432,0.382,-0.2991
1780,1103,858,33.755,30.141,0.0278,-0.0017,9.8331,-0.348,-0.157,0.1105
1785,1107,867,33.662,30.083,0.0946,0.0313,9.803,-0.0763,-0.3643,-0.0553
1790,1103,860,33.693,30.051,0.0789,-0.0164,9.8159,0.2932,0.2217,0.3006
1795,1092,865,33.687,30.184,-0.1149,-0.0634,9.8362,0.1,-0.5938,0.4592
1800,1088,869,33.559,30.063,-0.0564,-0.0086,9.8096,-0.1757,0.6244,0.1504
1805,1091,867,33.61,29.986,0.0231,-0.0422,9.8298,0.0092,-0.1234,0.1918
1810,1077,871,33.666,30.173,0.0275,-0.0105,9.9095,0.4298,-0.5058,-0.7558
1815,1088,869,33.712,30.082,0.0165,0.1263,9.7945,-0.2982,0.0266,0.2425
1820,1077,873,33.686,30.039,-0.0504,-0.0497,9.8213,0.1009,-0.2781,0.7249
1825,1084,874,33.671,30.128,0.0565,-0.0733,9.8275,0.7297,-0.02,-0.55
1830,1075,877,33.706,30.017,0.02,0.0062,9.736,-0.2631,-0.2555,0.278
1835,1074,880,33.652,30.058,-0.0476,-0.0634,9.6816,-0.2604,0.284,-0.4533
1840,1074,877,33.635,30.037,-0.0385,-0.0217,9.8317,1.006,0.7869,0.1724
1845,1069,874,33.653,30.078,-0.007,-0.0126,9.8219,0.175,0.8851,0.3032
1850,1065,876,33.668,30.122,0.0801,-0.0156,9.823,-0.663,-0.2701,0.018
1855,1058,876,33.593,30.062,0.0404,-0.0611,9.7935,-0.3026,0.4641,0.7284
1860,1060,879,33.569,30.151,-0.0645,0.0809,9.8084,-0.2149,0.4359,-0.2754
1865,1042,878,33.623,30.056,0.057,-0.0355,9.7404,-0.233,-0.4673,1.3241
1870,1049,876,33.663,30.042,0.0186,-0.0824,9.8166,0.1694,-0.2571,-0.7998
1875,1048,872,33.577,30.131,-0.1183,0.0175,9.9188,0.5523,0.5129,-0.4501
1880,1033,874,33.626,30.126,0.013,-0.0072,9.8025,-0.4261,0.4104,0.4356
1885,1041,876,33.626,30.058,0.0519,-0.0303,9.8343,-0.1254,-1.5562,-0.4575
1890,1031,869,33.717,30.069,0.0181,0.0029,9.7701,-0.1121,-0.3041,0.3934
1895,1011,870,33.652,30.135,-0.0028,0.0363,9.7226,0.2968,-0.283,-0.6863
1900,1014,866,33.662,30.023,-0.0163,0.0425,9.8479,-0.345,-0.1945,-0.017
1905,1008,865,33.574,30.011,0.0193,0.0972,9.8481,-0.7895,0.3473,-0.2296
1910,1011,867,33.669,30.05,-0.032,0.0138,9.8161,0.5374,0.5454,-0.0202
1915,995,865,33.609,30.13,-0.0163,-0.0021,9.8321,0.6794,0.1011,0.2334
1920,995,861,33.607,30.07,0.0409,-0.0558,9.819,0.5868,1.0866,0.0985
1925,986,857,33.647,30.057,-0.0129,-0.1288,9.7671,0.2998,0.1624,0.2863
1930,982,863,33.598,30.081,-0.0413,-0.0434,9.797,0.3764,0.335,-0.5943
1935,968,860,33.692,30.054,-0.0069,0.0222,9.7903,-0.1631,-0.4186,0.5926
1940,958,860,33.632,30.066,-0.0581,0.0544,9.7116,-0.3214,-0.2476,0.6617
1945,953,855,33.635,30.097,-0.0002,0.0812,9.7897,0.2524,-0.3485,-0.4141
1950,943,853,33.578,30.055,-0.0199,0.0651,9.7975,0.1795,-0.3492,-0.0676
1955,928,850,33.677,30.127,-0.0593,0.0386,9.7048,-0.0158,0.7232,-1.1754
1960,916,850,33.612,30.102,0.0682,-0.0431,9.7968,-1.0119,-0.7752,0.4963
1965,917,849,33.653,30.108,0.0226,0.0152,9.832,-0.5113,-0.1314,-0.1899
1970,903,840,33.562,30.099,-0.0936,0.0814,9.8368,-0.4766,0.1242,0.0283
1975,891,851,33.621,30.144,-0.0389,0.0144,9.7912,-1.3858,0.6194,0.2029
1980,884,847,33.584,30.059,-0.0726,0.002,9.8244,0.2426,-0.1739,0.3326
1985,872,851,33.656,30.047,0.037,-0.046,9.8966,-0.8139,-0.2877,0.1827
1990,867,846,33.702,30.077,0.023,0.1037,9.8196,0.2169,-0.0489,-0.0502
1995,857,840,33.652,30.112,-0.075,0.0854,9.781,1.4264,-0.2649,-0.184
2000,847,841,33.708,30.12,-0.04,-0.0008,9.7744,0.3279,0.4276,-0.1112
2005,827,845,33.726,30.024,0.0962,0.094,9.8662,0.0638,0.077,0.2227
2009,822,842,33.649,30.167,0.0894,-0.0917,9.7848,0.1274,0.1272,-0.4065
2015,817,842,33.658,30.129,0.0398,0.0939,9.8131,-0.5792,-0.0421,0.0741
2020,809,840,33.606,30.036,0.0638,0.0024,9.7394,0.7873,0.5232,0.335
2025,797,841,33.538,30.091,0.0344,-0.0563,9.8027,-0.8324,-0.5169,0.0045
2029,799,838,33.669,30.08,0.0645,-0.0665,9.8744,0.9075,0.027,-0.2848
2035,780,834,33.629,30.015,-0.0048,-0.0169,9.8883,-0.4978,1.5566,-0.6041
2040,783,839,33.668,30.006,0.0337,-0.008,9.8455,-0.2625,0.5959,-0.1728
2045,772,839,33.601,30.052,-0.0068,0.0306,9.8252,0.0361,0.3681,-0.2917
2050,774,837,33.648,30.07,0.0106,-0.0141,9.8502,0.4554,-0.2127,0.2613
2055,758,830,33.689,30.142,-0.0054,-0.0495,9.8345,0.7135,-0.3753,-0.1168
2060,757,836,33.545,30.038,0.0633,-0.0064,9.8852,0.5128,0.0177,0.2151
2065,751,826,33.679,30.181,-0.002,0.0629,9.8258,-0.2823,0.2843,-0.3114
2070,759,822,33.596,30.079,0.0573,-0.0522,9.7734,0.506,0.0267,-0.8641
2075,751,832,33.646,30.071,-0.0772,0.0781,9.7669,-0.5078,-0.6053,0.4216
2080,756,819,33.726,30.085,-0.0308,0.0248,9.8086,0.9346,0.2011,-0.0572
2085,745,824,33.682,30.202,-0.0543,0.001,9.7405,-0.6912,0.0994,0.049
2090,757,822,33.59,30.118,0.0426,-0.0022,9.7782,-0.1153,0.5046,0.6681
2095,742,818,33.615,29.976,0.0164,0.0406,9.8704,0.0427,-1.1166,-0.7142
2100,750,822,33.644,30.078,0.0066,0.0159,9.764,-0.5719,-1.131,0.7708
2105,750,815,33.638,30.046,-0.0171,-0.036,9.8189,-0.021,-0.1623,0.3891
2110,752,812,33.642,30.055,0.0184,-0.0292,9.7937,0.0197,-1.2779,0.3199
2115,759,811,33.634,30.022,-0.0755,0.0276,9.7925,0.1904,0.6782,0.9363
2120,759,809,33.654,30.032,0.0384,-0.021,9.8147,0.4236,0.4217,-0.2461
2125,769,806,33.609,30.104,0.0656,-0.0588,9.8221,0.2693,-0.2893,0.7585
2130,771,810,33.644,30.098,0.0169,-0.0562,9.8147,0.8375,0.7162,0.1244
2135,777,807,33.662,30.091,-0.0071,0.0844,9.7649,0.2999,0.6295,0.6799
2140,780,796,33.574,30.117,-0.0696,0.0712,9.8715,0.3039,0.053,0.2205
2145,782,795,33.617,29.992,-0.0202,0.0734,9.8425,-0.0593,-0.8676,-0.1124
2150,803,795,33.616,30.061,0.0373,0.0083,9.784,0.4219,-0.1096,-0.2181
2155,802,791,33.608,30.14,0.0445,-0.0343,9.8911,-0.2448,0.9385,0.4109
2160,805,789,33.541,30.066,-0.086,-0.0038,9.7892,0.0592,-0.8792,-0.4279
2165,827,786,33.605,30.103,0.066,-0.1044,9.8493,-0.7453,-1.0369,-0.1555
2170,840,779,33.602,30.13,0.0453,0.0132,9.8765,-0.2533,-0.8154,0.4865
2175,849,779,33.598,30.084,0.0378,-0.0342,9.7769,-0.6453,-0.142,0.1749
2180,863,773,33.64,30.047,-0.0319,0.0894,9.7129,0.1917,0.8656,-0.7146
2185,868,765,33.653,30.028,0.0686,-0.084,9.7574,-0.2376,-0.8045,-0.7763
2190,882,764,33.726,30.157,0.0527,-0.0498,9.7122,-0.4456,-0.4452,-0.2521
2195,902,762,33.598,30.172,-0.0279,0.0076,9.8959,0.8949,-0.0208,0.2238
2200,910,756,33.68,30.086,-0.0251,0.0237,9.7746,-0.2896,0.6003,-0.3838
2205,922,751,33.634,30.073,0.0391,0.0804,9.7923,-0.2721,-0.0681,-0.3583
2210,937,754,33.644,30.026,-0.0111,0.1153,9.8475,-0.139,0.688,-1.0213
2215,935,751,33.622,30.089,0.0681,-0.0155,9.8897,0.207,-0.2202,0.0174
2220,958,741,33.568,30.077,-0.096,-0.0011,9.7338,0.2822,0.4174,0.1031
2225,970,730,33.6,30.03,0.0751,0.0481,9.8306,0.0945,-0.6645,-0.6948
2230,992,738,33.589,30.152,0.0368,0.0211,9.8,-0.1336,-0.0443,-0.4763
2235,998,729,33.586,30.058,-0.0231,-0.0466,9.8014,-0.6098,0.0442,0.1938
2240,1008,724,33.774,30.016,-0.1075,-0.015,9.7944,0.0086,0.4128,-0.5299
2245,1020,720,33.601,30.071,0.0306,-0.0332,9.8242,-0.1795,-0.1848,-0.0876
2250,1029,717,33.506,30.074,-0.0198,0.0123,9.8986,-0.1144,-0.0492,0.5527
2255,1045,715,33.612,30.09,0.0304,0.0857,9.7615,-0.3927,-0.9841,-0.785
2260,1052,711,33.577,30.073,0.0039,-0.0238,9.8173,1.0099,-0.7065,-0.4013
2265,1070,708,33.676,30.18,-0.0416,-0.0474,9.8409,0.0409,0.4558,0.4673
2270,1082,709,33.64,30.102,0.0433,0.0519,9.7773,-0.6821,-0.1206,0.2023
2275,1090,705,33.648,30.086,-0.0515,-0.1318,9.7782,-0.6775,-0.0987,0.1296
2280,1102,702,33.567,30.172,0.0106,-0.0378,9.7837,-0.0688,0.2662,-0.2587
2285,1108,704,33.674,30.055,-0.0602,-0.0349,9.7751,0.2347,-0.5129,0.7574
2290,1121,699,33.595,30.013,-0.0479,0.0033,9.8735,-0.0626,-0.5655,0.2226
2295,1121,700,33.603,30.112,-0.0611,0.0395,9.8988,-0.6258,-0.3279,-0.7057
2300,1137,700,33.603,30.102,-0.0535,-0.0034,9.8664,-0.163,0.5264,-0.1991
2305,1139,700,33.663,30.013,-0.0108,-0.0178,9.8188,0.5108,0.9623,-0.4955
2310,1151,699,33.598,30.083,0.0156,-0.0828,9.8129,-0.0923,0.6754,-0.2404
2315,1159,692,33.601,30.112,-0.0046,0.061,9.7555,-0.6713,-0.6243,-0.0155
2320,1162,700,33.617,30.232,-0.0588,-0.0808,9.7859,-0.6737,0.425,-0.136
2325,1165,696,33.694,30.106,-0.0379,-0.0287,9.807,-0.0387,0.1081,-0.4234
2330,1168,697,33.714,30.062,0.0769,-0.0831,9.756,-0.2612,0.0124,0.0866
2335,1167,699,33.666,30.01,-0.0625,-0.0261,9.8443,0.1034,0.1709,0.1772
2340,1181,698,33.686,30.066,-0.0148,0.0333,9.7331,0.4331,-0.4391,0.4928
2345,1189,700,33.705,30.137,-0.0589,-0.02,9.7912,0.7992,-0.2248,-0.8428
2350,1188,702,33.716,30.041,0.0571,-0.0015,9.7467,0.5125,0.6235,0.0766
2355,1188,704,33.589,30.052,0.0079,-0.0146,9.7411,-0.2826,0.0921,-1.3194
2360,1192,704,33.61,30.074,0.0433,0.0714,9.7883,0.4365,0.1745,-0.0942
2365,1185,711,33.653,30.003,-0.0332,0.0156,9.7714,-0.1531,1.1093,0.2959
2370,1191,716,33.69,30.028,-0.042,-0.0538,9.8309,0.4903,0.7924,0.2153
2375,1190,715,33.652,30.032,0.0372,0.0348,9.7481,0.6056,0.5536,0.0046
2380,1189,718,33.597,30.016,-0.0508,0.0526,9.7376,0.3379,-0.2024,0.3295
2385,1188,728,33.619,30.048,-0.029,0.1148,9.8422,-1.1828,-0.1788,-0.0599
2390,1178,730,33.571,30.066,-0.0247,-0.1,9.8048,-0.1436,-1.122,0.5148
2395,1188,729,33.659,30.088,0.0411,0.0139,9.9,-0.4496,-0.7362,-0.3005
2400,1180,740,33.593,30.053,0.0721,-0.0033,9.8881,0.106,-0.0077,-0.3014
2405,1185,735,33.654,30.044,-0.0093,-0.0368,9.8052,0.2131,-0.0247,-1.128
2410,1173,750,33.63,30.056,-0.0573,0.022,9.7899,0.039,-0.1012,-0.3954
2415,1171,753,33.714,30.02,-0.0365,0.042,9.8018,-0.9529,-0.8189,0.3647
2420,1173,755,33.607,30.006,0.043,-0.0334,9.7515,-0.2224,-0.7991,-0.0479
2425,1171,759,33.711,29.993,0.0008,0.0788,9.7731,0.0777,0.0682,1.0218
2430,1176,761,33.646,30.149,-0.1013,0.0169,9.8183,0.2868,0.698,0.1597
2435,1160,773,33.609,30.023,0.0043,-0.0277,9.8582,-0.3678,-0.0632,0.5817
2440,1161,778,33.67,30.083,-0.0238,0.0495,9.8183,-0.6874,0.379,-0.0539
2445,1161,782,33.687,30.164,0.1067,0.0211,9.7454,-0.0738,1.3581,-0.1037
2450,1157,789,33.575,30.003,-0.0357,-0.0182,9.7872,0.0376,0.1588,-0.1104
2455,1148,796,33.663,30.124,-0.0657,0.0319,9.792,-1.0225,0.7954,-1.3793
2460,1142,799,33.669,30.034,0.0422,-0.0467,9.7982,-0.5948,0.3138,0.0911
2465,1146,802,33.665,30.079,-0.0355,-0.0285,9.8141,0.2033,-0.4355,0.0874
2470,1143,808,33.577,30.101,0.013,-0.0318,9.813,-0.7802,-0.5034,0.6843
2475,1129,815,33.711,30.001,-0.0266,0.0642,9.8504,-0.5404,0.1636,-0.3403
2480,1133,822,33.719,30.105,-0.0668,-0.0345,9.9082,0.1292,-0.4137,-0.7937
2485,1124,823,33.702,30.191,-0.0487,-0.0488,9.8271,-1.2042,-0.3993,-0.2297
2490,1122,828,33.627,30.006,0.0426,0.0798,9.7942,-0.954,-0.1478,0.6333
2495,1118,832,33.632,30.106,-0.009,0.062,9.7611,-0.2149,0.3664,-0.332
2500,1109,835,33.616,30.037,-0.0211,-0.0077,9.8619,-0.1886,-0.6138,-0.4305
2505,1117,842,33.646,30.102,0.0846,-0.0198,9.8329,-0.0243,-0.9486,0.0932
2510,1116,839,33.703,30.107,-0.0208,-0.0308,9.7812,-0.2041,-0.334,-0.7885
2515,1109,843,33.667,30.114,-0.034,-0.0182,9.8124,-0.262,-0.7563,0.2504
2520,1106,849,33.594,30.017,0.0633,-0.0015,9.7943,0.1873,0.2378,-0.332
2525,1097,852,33.56,30.109,0.0533,0.003,9.8618,-0.0842,0.7456,0.4668
2530,1104,858,33.661,30.032,0.1116,-0.0832,9.8359,-0.7245,0.7165,-0.97
2535,1096,866,33.674,30.003,-0.0061,0.0313,9.7978,-0.3105,-0.0272,0.1445
2540,1089,867,33.671,30.13,0.0196,-0.0056,9.8562,0.3168,0.4178,-0.4373
2545,1101,867,33.664,30.075,-0.0426,-0.0271,9.8382,-0.7883,-0.4072,-0.1915
2550,1096,870,33.675,30.096,0.0296,-0.0537,9.9103,-0.1853,-0.4154,-0.9385
2555,1086,871,33.612,30.125,-0.0227,-0.1315,9.7618,0.0067,0.0686,0.5059
2560,1082,872,33.624,30.06,-0.018,0.0639,9.8724,0.9611,-0.4743,0.3823
2565,1077,873,33.565,30.026,0.0562,-0.033,9.8651,0.7072,-0.0937,-0.7928
2570,1079,877,33.547,30.085,0.0817,0.0716,9.7396,-0.4464,-0.3027,0.2085
2575,1081,875,33.647,30.092,0.0422,-0.0193,9.8003,0.4361,-0.6062,0.7318
2580,1080,881,33.632,30.149,0.0129,-0.0272,9.7889,-0.468,-0.0737,-0.0972
2585,1083,875,33.668,30.069,0.003,-0.0356,9.8056,-0.4202,-0.0521,-0.2738
2590,1063,874,33.68,30.066,0.038,0.0059,9.8276,-0.7826,0.3313,-0.27
2595,1069,875,33.694,30.058,0.0584,0.1071,9.6899,0.5022,0.1923,-0.2683
2600,1072,874,33.661,30.118,-0.0954,0.0104,9.8549,-0.3053,-0.1049,-0.1347
2605,1059,878,33.611,30.101,0.0467,-0.0314,9.8392,-0.1634,0.5253,0.3785
2610,1057,879,33.693,30.086,-0.0038,-0.0051,9.7402,-0.1993,-0.4496,-0.1109
2615,1060,879,33.618,30.098,-0.0186,-0.0116,9.8487,0.2116,-0.3811,0.5229
2620,1051,870,33.706,30.117,-0.0861,0.0222,9.72,-0.6052,-0.7629,-0.4034
2625,1046,876,33.569,30.054,0.0181,-0.0345,9.8259,0.4285,-0.6389,0.4435
2630,1045,875,33.529,30.151,-0.0345,0.1599,9.8379,0.1004,0.0632,0.7893
2635,1045,877,33.718,30.122,-0.0113,-0.0945,9.8976,0.307,0.4001,0.1811
2640,1027,867,33.617,30.114,0.0113,0.0134,9.7323,0.3392,-0.1792,-0.2928
2645,1032,873,33.592,30.042,0.0645,-0.0448,9.8849,0.1631,1.4212,-0.1128
2650,1021,872,33.57,30.11,-0.0637,0.1366,9.8683,0.2566,0.0861,1.0082
2655,1013,865,33.636,30.198,0.0431,0.0747,9.8419,-0.009,-0.0789,-0.213
2660,998,862,33.723,30.082,-0.0688,-0.0437,9.879,0.3608,0.5618,0.4296
2665,996,861,33.639,30.16,0.0741,0.023,9.8118,-0.8624,-0.2102,-0.0601
2670,988,863,33.633,30.089,0.0298,-0.0153,9.9022,-0.4564,0.96,-0.0763
2675,988,858,33.578,30.098,-0.0134,0.0201,9.8677,-0.1142,0.9083,-0.3492
2680,976,864,33.65,30.014,-0.0226,-0.0369,9.8181,-0.1672,-0.7015,-0.2204
2685,966,860,33.693,30.008,-0.0907,0.0235,9.7472,0.5711,-0.5922,0.3329
2690,965,861,33.662,30.109,0.0187,-0.0391,9.8046,-0.018,-0.5546,0.703
2695,952,859,33.517,29.993,-0.0243,-0.0409,9.7773,-0.1171,0.5187,0.1368
2700,947,857,33.678,30.096,-0.0496,0.0098,9.7665,0.0922,0.3166,0.6297
2705,926,850,33.671,30.049,-0.0017,0.049,9.8537,-0.116,-0.3139,0.663
2710,921,849,33.595,30.13,0.027,-0.0066,9.8237,-0.3794,-0.2808,-0.5367
2715,918,856,33.645,30.055,0.0219,-0.1048,9.8043,-0.0681,0.3579,0.5476
2720,900,852,33.636,30.061,0.0323,0.0221,9.8442,-0.3489,-0.5137,-0.5471
2725,901,845,33.632,30.108,-0.0016,-0.0362,9.7132,-0.0166,0.0159,-0.139
2730,886,848,33.636,30.113,-0.0065,-0.0523,9.7457,0.2565,-0.0749,-0.1832
2735,874,846,33.603,30.103,0.0449,0.0494,9.8969,-0.0488,0.1242,0.145
2740,863,848,33.651,30.089,-0.0013,-0.0586,9.8442,-0.1259,-0.4185,0.4145
2745,864,842,33.585,30.066,0.0165,-0.0435,9.7999,0.0319,-0.2616,0.2182
2750,841,841,33.709,30.117,0.1006,0.0187,9.8659,0.2775,-0.3647,-0.111
2755,844,838,33.598,30.027,-0.0065,0.0392,9.8093,-0.3592,-0.9204,0.1608
2760,837,845,33.651,30.111,-0.1286,-0.0166,9.7805,-0.5657,0.5685,0.3726
2765,815,846,33.605,29.985,-0.0602,0.0094,9.7282,-0.1925,0.0206,0.4759
2770,814,840,33.614,30.146,-0.0143,-0.0016,9.8215,-0.0574,0.5591,0.8024
2775,816,836,33.68,30.13,0.0512,0.0495,9.8145,0.2126,0.7474,-0.6776
2780,785,841,33.659,30.135,-0.0351,-0.0053,9.9078,-0.7695,0.4032,0.0946
2785,789,833,33.683,30.075,-0.0061,0.0505,9.7319,-0.8873,-0.4331,0.2615
2790,780,835,33.665,30.177,0.119,-0.047,9.7963,0.0692,0.1686,-0.0523
2795,768,834,33.606,30.05,-0.0865,-0.0601,9.7667,-0.2299,0.303,-0.0464
2800,776,839,33.565,30.061,-0.0027,-0.0031,9.8291,0.0633,-0.0885,-0.1608
2805,763,831,33.627,30.104,-0.0772,-0.0998,9.7851,0.2532,-1.2384,0.2321
2810,755,832,33.65,30.131,-0.0619,-0.0178,9.8273,0.3857,0.2439,0.02
2815,764,830,33.718,30.066,-0.0638,0.0279,9.8935,0.5441,0.5054,0.7057
2820,753,828,33.656,30.174,-0.0138,-0.022,9.8223,-0.6485,-0.0417,0.4946
2825,755,826,33.661,30.151,-0.0142,0.0023,9.7592,-0.2307,-0.2178,-1.168
2830,749,825,33.782,30.128,-0.0843,-0.0786,9.8164,-0.0127,-0.526,0.3478
2835,755,825,33.619,30.057,-0.0183,0.0071,9.8301,0.2644,-0.218,0.2716
2840,745,820,33.71,30.06,-0.0166,0.0753,9.83,-0.0756,-0.7992,0.5232
2845,751,819,33.642,30.05,0.0126,-0.055,9.7117,1.1527,-0.2782,0.013
2850,751,821,33.683,30.121,-0.0287,-0.0608,9.8322,-0.1491,0.831,-0.3452
2855,751,816,33.663,30.007,-0.0188,-0.0006,9.8282,1.0145,0.1236,-0.0711
2860,758,815,33.704,30.116,-0.0321,0.0382,9.8156,-0.6081,-0.5825,-0.7866
2865,755,818,33.696,30.009,0.0346,0.0429,9.7696,0.08,-0.2579,0.1898
2870,758,810,33.581,30.023,0.0444,-0.0327,9.7702,0.4263,-0.3781,-1.1035
2875,761,807,33.762,30.029,0.0367,0.0307,9.8623,0.6953,-0.6766,-0.3576
2880,761,804,33.653,29.994,0.0001,-0.0095,9.8005,0.1712,0.7115,0.1429
2885,772,807,33.633,30.096,-0.064,0.017,9.8435,-0.0468,0.4517,-0.5487
2890,784,797,33.7,30.002,0.0082,0.0407,9.7683,0.6192,0.1801,0.3886
2895,796,797,33.573,30.297,-0.034,-0.0441,9.7761,0.2468,-0.0687,-0.5812
2900,797,795,33.536,30.146,0.0217,-0.0463,9.7535,-0.023,0.2138,0.2344
2905,798,792,33.642,30.048,-0.0025,0.0081,9.7608,0.2594,-0.5896,-0.402
2910,818,790,33.621,29.995,0.0401,-0.04,9.7893,-0.4238,-1.076,0.6113
2915,836,785,33.625,30.059,0.0705,0.0875,9.7944,0.346,0.009,-0.4872
2920,835,778,33.607,30.003,-0.0063,-0.0076,9.7652,0.4249,0.0916,-0.2503
2925,847,778,33.743,30.094,0.0057,-0.0243,9.781,-0.3765,0.4153,0.7379
2930,854,775,33.525,30.072,-0.0242,0.0448,9.7183,-1.2763,0.9552,0.1432
2935,861,771,33.654,30.128,-0.0479,-0.049,9.8467,-0.7341,0.417,0.1723
2940,879,770,33.552,30.12,-0.0621,0.1203,9.7827,0.6697,-0.153,0.2871
2945,895,758,33.701,30.116,0.0217,0.0613,9.8088,-0.4558,-0.4653,-0.5405
2950,914,761,33.688,30.059,-0.0749,0.0201,9.8663,0.5677,0.3927,-0.0843
2955,920,754,33.588,30.029,-0.0224,-0.0082,9.801,0.9053,0.5631,-0.0216
2960,917,749,33.707,30.082,-0.149,-0.0421,9.7899,0.5023,0.4378,-0.2417
2965,947,741,33.681,30.014,-0.0239,0.0902,9.7671,0.2364,0.1317,-0.1674
2970,959,745,33.69,30.045,-0.0485,0.0302,9.8032,0.3896,-0.4989,0.3746
2975,972,735,33.699,30.045,-0.0453,0.0483,9.8498,0.5541,0.1439,0.5409
2980,992,736,33.622,30.168,0.0219,0.0163,9.8142,-0.8638,-0.0113,0.0037
2985,992,732,33.601,30.167,-0.0422,0.0078,9.7997,-0.2806,0.1372,-0.5902
2990,996,730,33.63,30.075,-0.0687,-0.0415,9.8546,-0.6389,-0.3085,-0.4625
2995,1018,720,33.62,30.1,-0.0553,0.0029,9.7578,-0.8295,0.4547,-0.4745
3000,1023,723,33.615,30.096,-0.025,0.0115,9.8017,0.0582,-0.9517,0.4976
3005,1052,713,33.654,30.052,-0.0938,-0.035,9.7869,0.0803,0.6579,-0.8702
3010,1055,718,33.68,30.04,-0.0266,0.0428,9.848,0.2005,0.0821,0.0511
3015,1061,711,33.632,30.06,-0.0317,0.0241,9.7681,-0.9064,-0.2539,-0.661
3020,1075,707,33.635,30.093,-0.0666,-0.0303,9.784,0.1984,-0.8521,-0.0166
3025,1092,703,33.648,30.066,-0.019,-0.0141,9.6931,0.4335,-0.054,0.2289
3030,1099,706,33.555,30.102,0.0472,-0.0086,9.8994,0.085,0.4087,-0.9054
3035,1109,704,33.587,30.129,-0.0238,-0.0086,9.776,-0.2178,-0.371,0.4722
3040,1127,698,33.611,30.107,-0.0423,-0.0527,9.8705,0.0923,-0.6444,-0.0738
3045,1121,700,33.703,30.096,0.0305,-0.0408,9.7805,-0.4641,0.1273,0.4043
3050,1134,701,33.714,30.052,-0.0387,-0.0293,9.809,1.0077,-0.3695,-0.5751
3055,1141,698,33.631,30.024,0.0837,0.0019,9.8237,-0.726,-0.1761,0.3683
3060,1150,693,33.633,30.054,0.0816,0.0046,9.7625,-0.5728,-0.4459,-0.3335
3065,1149,692,33.676,30.146,0.0401,0.1153,9.7884,-1.0863,-0.3072,1.2891
3070,1159,694,33.669,30.108,0.039,0.0387,9.8552,-0.4079,0.004,0.5523
3075,1172,690,33.65,30.099,-0.0447,0.006,9.9267,-0.2002,0.1322,-0.636
3080,1168,698,33.634,30.106,-0.004,-0.0186,9.8834,0.0612,-0.0489,-0.6494
3085,1183,699,33.627,30.055,-0.0752,0.0466,9.7883,-0.0664,0.392,-0.0559
3090,1182,696,33.743,30.071,-0.0191,-0.0526,9.8391,0.4096,-0.7273,0.1207
3095,1182,700,33.655,30.003,-0.0501,0.0277,9.7692,-0.5151,0.5942,1.168
3100,1182,703,33.673,29.997,-0.002,0.051,9.8242,0.4235,-0.1618,0.261
3105,1186,703,33.705,30.035,-0.0826,0.0188,9.8256,-0.9212,-0.1092,0.6761
3110,1185,710,33.585,30.165,0.0219,0.058,9.74,0.3867,-0.454,0.1469
3115,1190,709,33.683,30.167,-0.0713,-0.0255,9.837,0.4473,-0.4908,0.5805
3120,1192,708,33.63,30.091,-0.0136,0.1254,9.8258,-0.539,0.4539,0.1176
3125,1185,718,33.663,30.142,0.0618,0.0203,9.8549,-0.087,0.5384,-0.4796
3130,1193,717,33.627,30.081,-0.0367,-0.0528,9.7493,0.0787,0.1042,-0.1219
3135,1184,720,33.646,30.105,0.0293,0.0397,9.7776,0.4537,-1.2675,-0.8927
3140,1186,728,33.697,30.128,0.0622,0.0259,9.8703,0.1265,-0.0005,-0.077
3145,1192,730,33.693,30.076,0.0118,0.0099,9.8822,-0.7879,0.7979,0.3843
3150,1173,738,33.601,30.074,-0.0121,0.1062,9.8382,0.0937,0.5038,-0.1685
3155,1179,735,33.63,30.024,-0.0059,-0.0356,9.7138,-0.6255,0.5489,-0.244
3160,1179,739,33.589,30.055,0.04,-0.03,9.7312,0.3981,-0.1096,0.2013
3165,1174,748,33.562,30.028,0.0918,-0.0238,9.7674,-0.3327,-0.2134,-0.2642
3170,1170,752,33.593,30.047,-0.0433,-0.0272,9.7933,-0.4072,-1.0833,0.933
3175,1166,757,33.689,30.09,0.0521,0.0086,9.8565,0.5537,-0.4733,0.1436
3180,1157,761,33.626,30.143,-0.0285,-0.0571,9.7808,-0.4342,0.6936,0.209
3185,1164,769,33.66,30.033,0.0281,-0.0038,9.8694,0.252,-0.3758,-0.9941
3190,1158,770,33.642,30.082,-0.0045,-0.0774,9.7968,-0.0883,0.6172,-0.2466
3195,1156,781,33.643,30.075,0.0421,-0.027,9.7323,-0.9546,0.2965,0.2955
3200,1151,784,33.647,30.119,-0.0159,0.0563,9.785,-0.2317,-0.5197,-0.1137
3205,1145,790,33.685,29.962,0.0227,-0.0067,9.7265,-1.4536,-0.3674,0.192
3210,1146,799,33.642,30.08,-0.029,-0.0608,9.8414,0.051,-0.1506,0.0291
3215,1143,802,33.648,30.012,-0.0808,-0.0388,9.8495,-0.8739,0.7956,0.3646
3220,1137,805,33.562,30.119,0.0299,-0.0064,9.844,-0.0044,0.4138,0.4093
3225,1135,811,33.639,30.1,0.0279,0.005,9.7818,-0.39,-0.1837,0.7059
3230,1141,816,33.599,30.126,-0.0145,-0.0359,9.7791,0.6264,-0.0529,0.2171
3235,1128,824,33.724,30.091,-0.0221,0.0509,9.8009,-0.6198,0.6417,0.497
3240,1123,823,33.619,30.025,0.0047,-0.0755,9.8589,-0.0982,-0.4516,0.167
3245,1120,833,33.661,30.044,-0.0612,-0.0025,9.8627,0.1638,0.0841,0.3907
3250,1112,835,33.621,30.059,0.0594,0.0478,9.7823,0.4911,1.1593,0.2734
3255,1115,843,33.603,30.05,0.0543,-0.0064,9.7811,-0.06,-0.8307,0.5644
3260,1113,846,33.701,30.084,0.0839,0.0012,9.7804,-0.7234,-0.3355,0.3779
3265,1109,844,33.56,30.064,-0.0193,-0.0505,9.8541,-0.1508,-1.0422,0.7063
3270,1112,853,33.638,30.056,0.0372,0.0198,9.7788,0.6009,-0.1717,0.4226
3275,1100,853,33.681,30.091,0.0516,-0.031,9.7518,0.2175,1.3471,1.0262
3280,1107,863,33.717,30.172,-0.0832,0.093,9.7499,0.0202,0.3321,0.2859
3285,1098,861,33.594,30.113,0.1012,-0.0257,9.7367,-0.2766,-0.6086,0.3345
3290,1106,868,33.573,30.063,0.0382,-0.1625,9.8181,-1.1588,0.2834,-0.0471
3295,1089,867,33.671,30.002,0.0279,0.0136,9.8852,0.6495,-0.5758,-0.8139
3300,1090,874,33.661,30.116,-0.0758,-0.0375,9.7807,-0.2208,0.1393,0.1579
3305,1079,873,33.662,30.094,-0.0214,0.0108,9.7616,0.0578,-0.7136,-0.3413
3310,1083,870,33.696,30.07,0.0727,0.0575,9.8075,0.2091,0.289,-0.1807
3315,1089,877,33.777,30.006,-0.0105,0.0215,9.8534,-0.7904,-0.5685,0.4629
3320,1079,877,33.704,30.084,-0.0224,-0.1656,9.8385,-0.2149,-0.5145,0.2215
3325,1084,872,33.668,30.069,-0.0504,-0.0744,9.9341,0.3379,-0.0003,0.2437
3330,1081,878,33.685,30.07,-0.025,-0.0365,9.7761,-0.2129,0.4986,0.7797
3335,1083,874,33.639,29.999,-0.0842,0.0585,9.8561,-0.3658,0.2235,-0.838
3340,1070,879,33.639,30.092,-0.0836,-0.0699,9.8701,-0.5536,-0.8605,0.0939
3345,1073,878,33.741,30.065,-0.0191,0.0893,9.8134,0.5678,0.3068,-0.12
3350,1059,875,33.616,30.127,-0.0663,0.0682,9.7882,-0.1274,-0.3781,0.3997
3355,1068,878,33.64,30.083,0.0322,0.0242,9.8325,-0.2002,0.1942,-0.2803
3360,1064,879,33.589,30.121,-0.0051,0.1266,9.7952,0.5359,-0.286,-0.8055
3365,1058,879,33.671,30.102,0.0258,-0.057,9.8016,0.5086,0.1081,-1.14
3370,1053,873,33.651,30.118,0.0237,0.0408,9.7773,0.2371,0.2598,-0.0523
3375,1045,868,33.756,30.084,-0.0375,0.0293,9.8202,-0.6506,0.6513,-0.0702
3380,1044,879,33.573,30.072,0.0729,0.0294,9.818,0.675,-0.4269,-1.1595
3385,1035,868,33.675,30.03,-0.0107,0.0751,9.8462,-0.6729,0.411,-0.0796
3390,1040,870,33.66,30.022,-0.0032,-0.0604,9.8432,-0.6274,0.4616,0.048
3395,1032,868,33.672,30.13,0.0155,-0.0569,9.7383,0.0282,-0.3955,0.3232
3400,1022,871,33.701,30.068,-0.0836,0.0832,9.9381,0.3414,-0.0171,-0.0328
3405,1011,867,33.599,30.042,-0.0067,0.1112,9.8602,-0.6787,0.3324,0.4809
3410,1013,872,33.654,30.035,-0.0886,0.0452,9.8016,0.4556,0.6391,-0.3833
3415,999,856,33.564,30.097,-0.1445,0.0247,9.7771,-0.1911,0.2075,-0.6446
3420,987,865,33.703,30.142,-0.0966,-0.0301,9.8613,-0.0975,0.5342,-0.4582
3425,978,862,33.656,30.117,0.0376,0.0478,9.892,0.2627,-1.3026,-0.2656
3430,977,859,33.622,30.154,-0.0338,-0.0232,9.8903,-0.2791,0.3624,-0.112
3435,966,859,33.752,30.073,0.0516,0.0342,9.9373,0.7331,-0.4682,1.1213
3440,960,860,33.715,30.114,0.0047,0.0323,9.7583,0.3066,-0.0812,-0.5146
3445,962,859,33.563,30.059,0.0447,-0.0596,9.8319,0.4796,0.0659,0.4439
3450,946,851,33.615,30.052,0.0175,0.0597,9.7906,-0.4959,0.971,0.0881
3455,933,851,33.652,30.018,0.0053,0.0743,9.8419,0.9637,-1.0793,-0.2055
3460,912,852,33.646,30.069,0.1131,0.0546,9.8075,0.7579,0.4024,0.5127
3465,918,846,33.65,30.087,0.0146,0.1188,9.7806,-0.1685,0.0017,0.1694
3470,901,853,33.709,30.081,0.0555,-0.0233,9.8064,0.1934,-0.2764,1.2861
3475,900,848,33.657,30.056,0.0302,0.0135,9.7677,-0.4229,0.2213,-0.6836
3480,892,844,33.641,30.125,-0.0102,0.0255,9.8203,0.2083,-0.7274,0.7175
3485,883,843,33.699,29.981,-0.0136,0.0543,9.757,-0.6878,-1.4508,-0.8622
3490,871,849,33.68,30.128,-0.0033,-0.0062,9.7628,0.4487,-0.3466,0.5451
3495,858,843,33.602,29.978,0.0069,-0.0826,9.7308,-0.2784,0.2826,0.072
3500,850,843,33.714,30.092,-0.1243,-0.0031,9.7906,-0.4539,0.6418,0.6207
3505,846,840,33.684,30.102,0.1012,-0.0341,9.7848,-1.2948,-0.2612,0.4569
3510,840,847,33.612,30.121,0.0375,-0.0147,9.7846,-0.5733,-0.0729,0.6057
3515,829,837,33.588,30.054,-0.078,-0.1071,9.8215,0.0039,-0.4438,-0.2746
3520,824,838,33.628,30.066,-0.0303,-0.0105,9.8575,0.1581,-0.1675,-0.0519
3525,801,835,33.611,30.074,-0.0107,-0.0022,9.7322,-0.7497,-0.4215,-0.3391
3530,802,837,33.665,30.089,0.0896,0.0091,9.7703,0.8502,1.1923,-0.2648
3535,786,840,33.635,30.135,-0.0032,-0.016,9.8189,-0.2055,0.8446,0.1295
3540,791,836,33.651,30.038,0.0778,0.041,9.7791,0.3237,-0.9594,-0.5845
3545,781,834,33.632,30.051,-0.0207,-0.0555,9.8022,-0.5292,0.0782,0.0871
3550,769,833,33.727,30.07,0.0227,0.0243,9.8275,0.2645,-0.0216,0.1059
3555,769,830,33.592,30.096,-0.0689,0.0548,9.6993,1.0718,-0.8102,0.3867
3560,761,838,33.733,30.078,-0.0066,0.0512,9.7858,0.5813,0.9322,0.3061
3565,756,828,33.625,30.105,-0.0076,-0.0565,9.7871,-0.8075,-0.286,0.0543
3570,754,828,33.589,29.91,-0.0231,0.0976,9.8083,-0.8535,0.0312,-0.1983
3575,760,827,33.68,30.102,-0.0012,-0.0598,9.8158,-0.2558,-0.3784,0.349
3580,765,827,33.615,30.024,-0.1435,-0.013,9.7996,-0.0147,-0.2493,0.3701
3585,742,824,33.752,30.029,0.0211,-0.09,9.8139,-0.2016,-0.081,-0.0958
3590,746,819,33.659,30.1,0.0324,-0.0013,9.7956,0.0267,0.2881,0.4685
3595,753,824,33.68,30.049,-0.0018,-0.1339,9.7417,-0.1703,-0.6392,0.3135
3600,746,822,33.708,30.07,-0.0265,0.0167,9.8693,0.3298,0.6212,-0.0786
3605,750,815,33.739,30.037,0.0765,-0.0089,9.8692,0.1039,-1.1692,0.4046
3610,742,814,33.609,30.061,-0.1092,0.016,9.856,0.0009,0.0025,0.537
3615,751,814,33.707,30.158,0.0291,-0.0448,9.7492,0.1696,-0.9109,-0.4639
3620,755,813,33.637,30.107,-0.0387,0.0239,9.8073,-0.4406,-0.673,0.6161
3625,771,811,33.697,30.112,-0.0878,-0.0437,9.8158,-0.9216,0.3256,0.2982
3630,770,805,33.668,30.068,0.0564,-0.1201,9.7617,0.1562,-0.6635,0.084
3635,773,807,33.63,30.074,-0.1119,0.0157,9.88,-0.0727,-0.4591,0.9564
3640,780,802,33.653,30.038,0.0153,-0.0345,9.9235,0.1493,1.0621,-0.0308
3645,787,798,33.699,30.112,-0.0656,0.0434,9.8136,-0.5429,0.4744,-0.906
3650,791,801,33.732,30.075,-0.0193,0.0211,9.7369,-0.0382,0.5079,0.2403
3655,806,792,33.688,30.131,-0.0215,0.0919,9.6996,-0.0148,-0.1872,-0.2611
3660,814,788,33.683,30.052,-0.1044,-0.0612,9.8449,0.1403,1.0884,0.2798
3665,826,781,33.593,30.052,0.029,0.0036,9.767,-0.1573,-0.9685,-0.2405
3670,833,783,33.633,30.071,0.0016,0.0119,9.764,0.1208,0.9333,0.5012
3675,840,779,33.719,30.052,-0.1114,-0.0009,9.8134,0.0757,0.373,0.9016
3680,857,774,33.663,30.08,-0.007,0.0489,9.8145,-0.5838,-0.665,0.4349
3685,869,769,33.649,30.166,-0.049,-0.0932,9.7637,0.2383,0.0165,0.4031
3690,881,770,33.67,30.145,-0.003,-0.0585,9.7345,-0.2295,0.3374,0.2491
3695,894,760,33.581,30.08,0.0269,0.0548,9.7912,0.3045,0.3874,-0.1554
3700,907,756,33.75,30.106,0.0197,-0.0076,9.8515,0.2902,-0.0344,0.2121
3705,911,751,33.655,30.269,0.0412,-0.0618,9.8311,-0.2448,-1.2389,-0.4111
3710,923,744,33.619,30.063,0.0611,0.0073,9.8619,1.3986,0.3525,-0.2061
3715,938,736,33.638,30.015,-0.0241,-0.0786,9.7942,0.3918,0.3619,-0.0892
3720,945,739,33.636,30.049,0.0359,0.083,9.8025,-0.9379,0.2512,-0.4199
3725,963,744,33.658,30.058,-0.002,-0.0242,9.7297,0.7315,0.1289,0.4912
3730,984,737,33.675,30.147,-0.0389,0.019,9.7604,0.1561,0.5381,0.1786
3735,988,734,33.507,30.107,-0.0381,0.0528,9.7961,-0.0779,0.4225,0.3412
3740,1004,730,33.711,30.106,0.1316,-0.0829,9.8029,1.0023,0.2015,-0.6651
3745,1017,731,33.741,30.032,0.0923,0.0988,9.7456,-0.327,-0.7497,-0.0753
3750,1026,719,33.688,30.022,0.0195,0.043,9.821,0.6715,-0.1141,-0.2511
3755,1038,717,33.643,30.149,-0.0761,-0.0086,9.7592,-0.6324,0.7769,-0.07
3760,1049,721,33.588,30.071,0.0587,0.0712,9.7515,-1.0735,0.6488,0.0169
3765,1058,713,33.598,30.185,0.0777,0.0181,9.7617,0.2551,-1.2247,0.0214
3770,1081,715,33.644,30.09,-0.1127,0.0393,9.9017,-0.4147,0.0155,-0.2854
3775,1083,705,33.641,30.045,-0.0668,0.0191,9.7777,0.4895,-0.4128,-0.5008
3780,1106,704,33.591,30.134,0.0643,-0.0307,9.791,0.5736,-0.3987,0.5634
3785,1110,704,33.628,30.061,-0.0296,0.0261,9.8621,0.4377,-0.0255,-0.2294
3790,1121,701,33.675,30.035,0.0788,-0.0417,9.8555,-0.715,-0.5631,-0.2149
3795,1128,696,33.65,30.12,-0.0323,0.1125,9.8126,-0.3276,-0.5747,-0.3107
3800,1130,693,33.672,30.104,0.0397,-0.0268,9.8288,0.4122,-0.1055,-0.4945
3805,1140,697,33.599,30.079,-0.007,-0.0002,9.8536,-0.5942,-0.7131,-0.3155
3810,1156,695,33.6,30.069,-0.0492,0.0921,9.7866,0.4514,-0.4445,0.3906
3815,1151,701,33.663,30.027,0.0221,-0.0188,9.7559,0.4998,0.1234,0.2382
3820,1156,694,33.658,30.069,0.0387,-0.0329,9.7773,-0.0674,-0.2977,0.1241
3825,1172,699,33.584,30.116,0.0297,0.0399,9.843,0.0925,0.3109,0.3532
3830,1164,699,33.579,30.096,0.0308,0.0402,9.6855,-0.4643,-0.5046,0.2596
3835,1176,693,33.693,30.095,0.0231,-0.0211,9.8387,-0.5999,0.0966,0.0569
3840,1175,689,33.665,30.187,-0.0066,0.0078,9.7851,-0.105,-0.2999,-0.526
3845,1186,699,33.601,30.182,-0.0458,0.0305,9.7759,-0.1009,0.6781,-0.1437
3850,1180,700,33.733,30.201,0.0011,0.0003,9.7806,0.7007,-0.4999,-1.0273
3855,1186,704,33.579,30.173,-0.0085,0.1202,9.7844,0.5811,-0.1149,-0.0872
3860,1188,709,33.704,30.085,0.0476,0.0278,9.7822,-0.5759,-0.0247,0.5861
3865,1187,710,33.615,30.179,-0.0405,-0.0194,9.8157,0.2845,0.3084,0.4888
3870,1199,710,33.697,30.136,0.0284,0.0899,9.7859,0.3298,-0.6489,1.2969
3875,1186,716,33.718,30.061,0.0505,-0.0712,9.7872,0.4682,0.0095,0.2823
3880,1189,718,33.688,30.111,-0.0147,0.0387,9.8089,-0.6578,-0.1813,0.9411
3885,1170,721,33.579,30.059,-0.0136,-0.0353,9.7477,-0.3505,0.2895,0.3148
3890,1194,724,33.621,30.104,0.0735,-0.0592,9.9436,0.7239,0.4733,-0.6322
3895,1177,730,33.747,30.067,-0.0978,-0.0201,9.7674,0.3614,0.0919,-0.0223
3900,1177,733,33.674,30.027,0.018,0.0107,9.8248,0.2771,-0.1036,-0.1014
3905,1175,741,33.68,30.13,-0.0317,0.0548,9.8504,-0.2854,0.6155,-0.4489
3910,1179,740,33.715,30.064,-0.0035,0.0362,9.7977,-0.115,0.4333,0.0833
3915,1174,754,33.658,30.099,-0.0869,0.1161,9.7505,-0.4929,0.44,0.4447
3920,1168,752,33.579,30.064,-0.0061,0.0188,9.72,-0.1109,1.1556,0.6935
3925,1168,756,33.687,30.122,-0.0,0.0158,9.8097,-0.283,-0.1734,-0.2156
3930,1162,759,33.647,30.125,0.067,0.087,9.8425,-0.5308,0.1614,-0.9889
3935,1161,768,33.615,30.159,-0.0636,-0.0413,9.8125,0.3715,-0.0246,0.3284
3940,1154,772,33.622,30.13,0.0412,-0.0331,9.8545,-0.3591,0.0798,0.1915
3945,1152,778,33.743,30.143,0.074,-0.016,9.7987,0.5806,0.4293,-0.3159
3950,1157,786,33.675,30.185,-0.0514,-0.0165,9.7883,0.3697,-0.3462,-0.1337
3955,1148,792,33.656,30.066,0.0299,0.045,9.8495,-0.3252,0.1574,-0.264
3960,1145,800,33.703,30.057,0.0115,-0.0232,9.9175,-0.5343,0.6532,-0.3434
3965,1141,805,33.594,30.105,-0.0163,-0.0007,9.773,-0.1196,0.9185,0.1457
3970,1137,804,33.624,30.068,-0.1163,-0.1377,9.85,0.2545,-1.0647,0.0698
3975,1131,811,33.592,30.025,-0.0325,-0.0037,9.7648,-0.4665,0.2994,-0.9805
3980,1133,818,33.645,30.115,-0.0275,-0.0164,9.7927,-0.291,0.732,-1.5954
3985,1132,818,33.607,30.042,0.0368,-0.0365,9.7996,0.5857,0.1379,0.0389
3990,1124,831,33.666,30.103,0.0568,-0.0452,9.9131,-0.4359,-0.2411,-0.573
3995,1127,830,33.615,30.075,-0.0485,0.0416,9.8533,0.7733,0.2219,0.0728
4000,1116,830,33.731,30.108,0.0151,0.1266,9.7706,-0.2307,-1.1944,-0.1926
4005,1120,839,33.614,30.11,-0.0727,-0.0234,9.8404,-0.033,-0.6164,0.1823
4010,1115,845,33.69,30.027,0.0592,-0.0645,9.8527,0.2238,-0.2593,0.004
4014,1110,851,33.577,30.165,0.032,-0.0116,9.8043,-0.3471,-0.2171,-0.5097
4019,1101,849,33.607,30.059,-0.0196,0.0659,9.7849,0.7044,-0.5126,0.3486
4025,1108,851,33.649,30.075,0.0806,0.0375,9.785,0.5101,-0.4688,-0.3821
4030,1096,854,33.669,30.138,0.005,0.017,9.8472,-0.1225,0.9736,0.0331
4035,1099,858,33.583,30.039,-0.0448,-0.0197,9.7269,-0.3576,0.5698,-0.0092
4040,1101,866,33.572,30.172,0.0571,-0.0744,9.8405,-0.2818,0.1239,0.174
4045,1096,865,33.609,30.078,-0.0145,-0.0575,9.7538,0.2544,-0.2048,0.4107
4050,1086,870,33.735,30.091,0.0351,0.022,9.8036,0.1674,-0.402,-0.0332
4054,1089,872,33.61,30.206,0.1202,-0.0118,9.8199,-0.7114,-0.4673,0.4712
4059,1087,873,33.656,29.999,0.0205,-0.0645,9.8605,0.8983,1.0168,-0.2008
4065,1094,872,33.67,30.103,0.0119,-0.0972,9.752,-0.2362,-0.6116,0.3666
4070,1083,875,33.637,30.08,0.0072,-0.0272,9.7799,0.0327,0.5811,0.4443
4075,1081,874,33.669,30.067,-0.007,0.0016,9.8198,-0.1185,0.6233,0.2137
4080,1077,874,33.59,30.069,0.0032,-0.0209,9.7895,-0.2355,-0.2259,-0.0911
4085,1079,876,33.673,30.01,-0.0768,-0.02,9.8474,-0.4747,-0.2757,0.3368
4090,1077,882,33.695,30.112,-0.0326,-0.0038,9.8005,-0.5294,-0.6912,-0.6246
4094,1070,875,33.702,30.25,0.0187,-0.0771,9.8734,-0.8037,0.5028,-0.2449
4100,1063,878,33.653,30.077,0.0384,-0.014,9.8913,-0.2434,0.1516,0.4661
4105,1056,875,33.79,30.153,-0.0314,-0.0155,9.7844,-0.464,-0.5226,0.9198
4110,1073,874,33.745,30.06,-0.0293,0.012,9.8051,-0.2843,0.2033,-0.0383
4115,1060,876,33.663,30.11,0.0853,0.0513,9.7935,0.4094,-0.4909,0.2886
4120,1056,874,33.706,30.074,0.0564,0.0165,9.8297,0.1384,-0.1836,-0.3371
4125,1045,870,33.615,29.985,0.0177,0.1055,9.7715,0.1282,-0.545,-0.3323
4130,1045,876,33.725,30.062,0.0082,-0.0278,9.8412,0.4655,-0.0134,0.4277
4135,1040,877,33.623,30.067,-0.0582,-0.0057,9.8752,0.5157,-0.1021,0.0807
4140,1019,872,33.7,30.144,-0.0156,0.0069,9.8544,-0.5864,0.1698,0.6649
4145,1026,869,33.636,30.124,0.0194,-0.0781,9.739,0.4068,0.0101,-0.0609
4150,1021,869,33.664,30.101,-0.0087,-0.0383,9.83,-0.1269,0.6302,-0.4392
4155,1013,863,33.661,30.163,0.0261,0.0025,9.8011,-0.0043,0.2559,0.1305
4160,1014,867,33.708,30.055,-0.0149,0.043,9.8408,0.5026,0.625,-0.249
4165,1000,864,33.673,30.02,-0.0318,0.0114,9.8099,-0.3515,-0.7397,-0.6467
4170,992,868,33.683,30.112,0.0022,-0.0513,9.821,-0.5007,0.4392,-0.2467
4175,985,863,33.644,30.036,0.0722,0.0148,9.7638,-0.8053,0.0218,-0.2233
4180,976,862,33.634,30.069,-0.0418,-0.0147,9.8018,0.3423,-0.0119,-0.4834
4185,978,856,33.651,30.073,0.0285,-0.0184,9.8632,-0.1782,0.1788,0.2787
4190,962,859,33.68,30.116,0.0653,0.0464,9.8027,0.3072,-0.2351,0.7664
4195,955,854,33.793,30.158,-0.0379,0.0096,9.7156,0.1501,0.4618,-0.8875
4200,956,859,33.649,30.118,-0.0567,0.069,9.8351,-0.1103,0.1446,0.1936
4205,935,855,33.674,30.042,0.014,0.0648,9.8224,-0.7321,0.0531,0.0666
4210,928,853,33.731,30.075,0.0133,0.036,9.8287,0.4395,-0.6474,0.6079
4215,919,852,33.679,30.119,0.0624,-0.0066,9.7956,0.087,0.154,0.0933
4220,909,851,33.636,30.132,0.001,-0.0445,9.6805,0.5974,-1.172,-0.0968
4225,905,853,33.605,30.136,-0.0216,0.0795,9.8222,-0.5129,0.5663,-0.1516
4230,889,849,33.732,30.083,-0.1081,-0.0217,9.7749,-0.4973,-0.1818,-0.0631
4235,884,846,33.629,30.154,0.1259,-0.0239,9.7408,-0.571,-0.2591,1.6175
4240,869,850,33.661,30.109,-0.0117,0.0363,9.8185,-0.369,0.3345,-0.1727
4245,858,843,33.578,30.094,0.0235,-0.0289,9.7912,0.6527,-0.3175,0.3105
4250,850,846,33.719,30.059,-0.0002,-0.0799,9.8083,-0.4943,0.3482,-0.1837
4255,838,846,33.662,30.059,-0.0056,-0.0288,9.8692,-0.0221,-0.5178,0.4872
4260,828,844,33.656,30.023,-0.078,-0.0271,9.7986,0.3519,0.6502,-0.3445
4265,822,836,33.709,30.085,-0.0062,0.0151,9.8011,-0.1945,0.4295,0.1047
4270,816,841,33.694,30.008,-0.0495,-0.0128,9.8198,0.3296,0.1907,-0.1541
4275,813,836,33.6,30.127,0.0608,-0.0378,9.794,0.3306,-0.6263,0.1211
4280,802,838,33.697,30.111,0.0111,-0.0065,9.7116,0.2912,-1.1228,0.3239
4285,793,837,33.631,30.107,0.0617,0.091,9.7956,0.0659,0.3557,-0.3769
4290,789,835,33.653,30.018,0.0285,-0.0555,9.8338,0.7027,0.69,-0.4074
4295,778,834,33.72,30.048,-0.0195,-0.0296,9.9056,0.6243,0.1406,0.8914
4300,761,841,33.598,30.066,-0.0095,0.089,9.8442,-0.5108,0.6802,0.3679
4305,770,829,33.698,30.106,0.0723,-0.0261,9.8466,-0.3084,-0.6043,-0.6778
4310,760,832,33.64,29.965,-0.0979,0.0107,9.8776,-0.4776,0.2298,0.5305
4315,764,829,33.645,30.109,-0.0046,0.0162,9.903,0.4307,-0.5849,0.4931
4320,749,830,33.604,30.057,0.0266,0.0391,9.8027,0.31,0.2336,0.1581
4325,751,826,33.58,30.106,-0.0358,0.087,9.7246,0.736,-0.1778,0.041
4330,752,830,33.67,30.103,0.0325,-0.018,9.847,-0.105,0.1816,0.2457
4335,748,822,33.645,30.075,0.0453,-0.0057,9.8386,-0.019,-0.0031,-0.0385
4340,751,827,33.679,30.059,-0.0625,-0.0525,9.8396,0.1932,-0.8476,-0.8752
4345,753,824,33.687,30.143,0.0211,-0.0346,9.8549,-0.0042,-0.4828,0.7266
4350,750,824,33.603,30.064,0.0124,0.0687,9.7705,-0.8846,0.0168,0.3678
4355,749,814,33.69,30.05,-0.1038,-0.0578,9.8299,-0.7241,0.6794,0.1264
4360,745,815,33.586,30.103,-0.0479,0.009,9.8259,-1.4216,0.2272,0.323
4365,760,815,33.653,30.177,0.0317,-0.0164,9.7659,0.4252,-1.3925,0.1206
4370,752,811,33.622,30.065,0.0241,-0.0371,9.8435,-0.2482,-0.3381,1.0855
4375,765,809,33.662,30.073,-0.0218,0.0589,9.7647,0.2432,-0.0159,0.2711
4380,772,807,33.691,30.096,-0.0565,0.0413,9.7832,0.239,0.1519,0.0304
4385,770,803,33.611,30.119,0.0079,-0.0095,9.71,0.4907,-1.0793,0.7495
4390,788,802,33.661,30.156,0.0461,0.0349,9.7983,0.4058,-0.0835,0.3962
4395,787,800,33.726,30.069,0.0441,0.0825,9.8194,0.2797,-1.3217,0.0583
4400,791,793,33.591,30.207,-0.1039,0.0014,9.8019,-0.6937,-0.0843,-0.1991
4405,804,785,33.702,30.13,-0.0269,0.0126,9.8413,0.654,-0.9715,-0.0167
4410,813,786,33.609,30.142,0.0118,0.0097,9.8211,0.4041,-0.1393,-0.5544
4415,819,785,33.673,30.11,0.0215,-0.0088,9.7966,-0.0463,-0.8824,1.3935
4420,826,782,33.681,30.099,-0.0339,0.0157,9.7791,0.3063,0.9648,0.1345
4425,843,776,33.704,30.085,0.033,0.0516,9.7961,0.3034,0.0419,-0.812
4430,859,771,33.615,30.105,-0.0349,-0.0883,9.7754,0.3431,-0.4837,0.5722
4435,855,770,33.632,30.048,0.0316,-0.0178,9.8539,0.7674,0.232,-0.4861
4440,878,768,33.652,30.105,-0.0339,0.0341,9.7704,0.0889,-0.0925,0.0479
4445,883,765,33.645,30.126,0.0706,0.0936,9.8609,-0.0331,-0.472,0.1963
4450,903,760,33.683,30.115,-0.0111,-0.1088,9.8567,-0.4903,0.3299,-0.0917
4455,909,757,33.681,30.164,-0.0208,-0.0037,9.8758,0.2957,-0.1127,0.3933
4460,924,751,33.668,30.021,0.0834,-0.0409,9.7934,0.1737,-0.4091,-0.9103
4465,937,752,33.598,30.195,0.0154,-0.0101,9.8428,-0.2018,-0.9608,0.671
4470,953,744,33.771,30.153,-0.0248,0.0218,9.8048,0.3963,0.2077,-0.0314
4475,967,741,33.644,30.098,0.115,0.0623,9.7415,-0.8382,0.034,0.1169
4480,975,729,33.741,30.044,-0.0287,0.024,9.7803,-0.0544,0.5569,0.6102
4485,984,730,33.684,30.099,0.0609,-0.0208,9.8142,-0.1328,-0.3872,0.1255
4490,1011,725,33.614,30.015,0.081,0.0078,9.8958,0.3421,0.7364,-0.4879
4495,1008,726,33.716,30.092,-0.0186,-0.022,9.7423,-0.3455,0.4778,-0.8411
4500,1020,724,33.671,30.148,-0.0158,0.0101,9.6846,-0.3252,0.3032,0.1586
4505,1037,719,33.694,30.118,-0.1004,0.0532,9.8337,0.5716,-0.8069,0.8885
4510,1054,714,33.614,30.077,-0.033,-0.0212,9.822,0.2153,-0.1312,0.0604
4515,1062,712,33.632,30.152,0.0125,0.0146,9.8191,0.4075,-0.6234,0.3939
4520,1069,711,33.742,30.133,-0.0655,0.0157,9.7761,0.3408,0.7104,-0.7576
4525,1090,706,33.623,30.091,-0.1313,0.0882,9.8936,-0.4264,-0.1209,0.1558
4530,1099,707,33.657,30.109,-0.0123,-0.0037,9.7961,-0.419,-0.344,0.2776
4535,1110,702,33.635,30.044,-0.0145,0.0664,9.7996,0.7266,-0.2834,-0.6527
4540,1109,705,33.666,30.133,-0.0335,0.0529,9.7422,0.6453,-0.1691,0.8789
4545,1117,704,33.639,30.058,-0.0262,0.0228,9.8958,-0.1691,0.0085,-0.8136
4550,1129,701,33.593,30.113,0.008,0.0041,9.9179,0.3631,-0.0537,0.4885
4555,1144,698,33.725,30.069,-0.005,0.0234,9.8245,0.0202,-0.3714,0.0125
4560,1147,701,33.699,30.145,0.0421,0.0819,9.7809,0.1508,1.1173,0.8267
4565,1149,697,33.682,30.089,-0.0932,0.0122,9.8222,-0.5002,-0.0364,-0.2424
4570,1159,697,33.644,30.17,0.0434,-0.0137,9.8677,0.2525,0.1867,0.2822
4575,1167,700,33.633,30.003,0.0328,0.0265,9.7408,1.2346,0.7444,-0.0456
4580,1172,699,33.673,30.097,0.0732,-0.0531,9.7963,-0.7618,0.3419,-0.1986
4585,1175,702,33.645,30.16,-0.0185,-0.0148,9.8297,-0.0578,-0.3905,-0.0126
4590,1178,700,33.643,30.115,0.0255,0.0286,9.8452,0.3761,0.2375,0.4288
4595,1186,704,33.658,30.174,-0.0018,0.0428,9.7932,-0.1094,-0.2003,-0.5192
4600,1180,699,33.635,30.089,0.013,0.025,9.6852,-0.1476,0.0372,0.1649
4605,1180,709,33.633,30.196,0.0463,0.0628,9.7425,-0.1015,0.3419,-0.6002
4610,1184,706,33.752,30.127,-0.0081,-0.0167,9.7851,0.3234,0.3003,-0.0788
4615,1183,707,33.671,30.123,-0.0007,0.0633,9.786,-1.0859,0.0706,-0.3297
4620,1180,705,33.633,29.987,-0.0986,-0.0423,9.8165,0.1183,1.03,0.964
4625,1195,712,33.718,30.104,-0.0414,-0.0396,9.8992,-0.4348,-0.353,-0.2765
4630,1193,723,33.751,30.041,-0.0274,0.0211,9.8087,0.6577,0.414,0.038
4635,1184,721,33.709,30.087,-0.0284,0.0291,9.7993,-0.271,-0.3398,-0.8838
4640,1180,729,33.62,30.132,-0.0504,-0.0109,9.777,0.3828,-0.1664,-0.0991
4645,1187,728,33.655,30.089,-0.0102,-0.0485,9.7343,0.0679,0.5032,-0.0657
4650,1189,736,33.726,30.05,0.0527,-0.0251,9.7449,-0.3194,-0.1416,-0.0085
4655,1180,738,33.561,29.992,-0.0507,-0.0518,9.79,-0.4717,0.3563,0.5956
4660,1181,738,33.612,30.145,0.1214,0.0198,9.8002,-0.4474,0.7852,0.868
4665,1171,750,33.69,30.091,0.0867,0.0464,9.797,-0.708,-0.0795,1.0339
4670,1169,754,33.639,30.116,-0.022,-0.0588,9.7838,-0.1403,-0.2246,0.074
4675,1175,757,33.643,30.085,-0.0113,0.0037,9.8309,-0.726,-0.2372,-0.926
4680,1169,765,33.623,30.028,-0.0126,-0.0513,9.8618,-0.3254,-0.3229,0.6712
4685,1150,766,33.675,30.083,0.018,-0.0101,9.821,0.7994,0.2663,-0.213
4690,1160,774,33.611,30.067,-0.0629,-0.0325,9.8236,-0.6324,-0.4604,0.6256
4695,1157,775,33.687,30.095,-0.0204,0.0642,9.8751,-0.7418,0.0337,0.1555
4700,1149,778,33.748,30.068,-0.0554,0.0278,9.8343,-0.9773,-0.529,0.0493
4705,1150,792,33.767,30.125,0.0198,-0.0506,9.8572,-0.2389,-0.7904,0.3249
4710,1141,796,33.751,30.012,-0.0363,0.0021,9.8256,0.7074,-0.0164,-0.1539
4715,1142,798,33.67,30.084,-0.0263,-0.0147,9.8189,-0.3118,-1.019,-0.1542
4720,1133,808,33.664,30.017,0.0252,0.0802,9.8734,-0.0891,-0.6342,-0.2311
4725,1136,813,33.64,30.088,0.1154,0.0094,9.8625,0.4331,0.1645,0.2584
4730,1137,815,33.612,30.048,0.0219,0.0745,9.8346,-0.3814,-0.0583,-0.8991
4735,1129,821,33.733,30.178,-0.0018,0.0568,9.7945,-0.1658,0.6243,0.5935
4740,1127,825,33.643,30.072,0.0214,-0.0895,9.7637,1.4737,-0.2367,0.2306
4745,1122,834,33.619,30.075,-0.1284,-0.0009,9.868,0.0824,-0.2725,0.053
4750,1118,833,33.681,30.126,0.0529,-0.0699,9.8203,0.4454,0.1347,0.1187
4755,1108,837,33.718,30.105,0.0434,0.0028,9.7283,0.0101,0.3347,0.597
4760,1105,840,33.662,30.156,0.0324,-0.0321,9.7639,0.7373,-0.023,-0.3129
4765,1100,848,33.664,30.015,0.0555,-0.0023,9.7667,0.0484,0.4687,-0.2112
4770,1109,850,33.625,30.079,-0.0607,0.0593,9.833,0.1175,0.1177,-0.4008
4775,1114,851,33.667,30.14,-0.0078,0.0385,9.8421,-0.0518,-0.2695,-0.7833
4780,1104,855,33.671,30.051,0.0024,-0.0459,9.7754,-0.0654,0.1734,0.3865
4785,1097,861,33.602,30.096,-0.0757,-0.0252,9.8638,0.2213,-0.2878,0.733
4790,1093,861,33.706,30.114,-0.0186,0.0916,9.938,0.3183,-0.1267,-0.9856
4795,1099,862,33.648,30.148,0.0176,-0.0046,9.8015,-0.2919,0.0905,-0.3621
4800,1096,866,33.682,30.001,-0.0313,-0.0589,9.7781,0.0955,0.478,-0.584
4805,1099,873,33.655,30.056,-0.0089,-0.0106,9.7269,-0.1411,-0.2753,-0.7656
4810,1092,879,33.706,30.098,-0.0666,-0.0025,9.8744,0.3527,0.4795,0.3812
4815,1088,877,33.658,30.087,0.0751,-0.0703,9.85,-0.2372,0.2207,0.3201
4820,1073,871,33.646,30.138,0.0494,0.0659,9.8298,-0.9581,-0.1665,-0.3834
4825,1080,873,33.635,30.036,0.0127,-0.0454,9.8188,-0.4107,-0.2102,-0.2413
4830,1084,877,33.717,29.991,-0.0268,0.0517,9.8302,0.1783,-0.3044,0.6607
4835,1087,881,33.692,30.107,0.0294,-0.0716,9.7602,0.2675,-0.3477,1.117
4840,1073,873,33.685,30.036,-0.0117,0.0661,9.8698,0.0411,0.3466,-0.3856
4845,1064,880,33.653,30.086,0.0008,-0.0162,9.777,0.3498,0.4471,-0.0039
4850,1071,880,33.624,30.091,0.0259,-0.0026,9.8217,0.2911,0.0683,0.1366
4855,1064,881,33.621,30.123,-0.0082,-0.0089,9.8098,-1.5407,-0.5815,0.0087
4860,1065,880,33.638,30.075,-0.0209,0.0647,9.7739,-0.8485,-0.1564,-0.2982
4865,1057,876,33.628,30.032,-0.0401,0.0611,9.8201,-0.1506,-0.4149,0.0989
4870,1049,876,33.653,30.104,0.0186,0.0437,9.7708,0.2218,0.1379,-0.1064
4875,1050,877,33.694,30.149,0.0571,0.0267,9.8269,-0.5262,0.3631,0.1414
4880,1047,875,33.613,30.034,-0.0028,0.0701,9.8482,-0.767,-0.3099,-0.3675
4885,1042,870,33.603,30.104,0.035,0.0444,9.7458,-0.3523,0.2579,-0.1393
4890,1041,869,33.671,30.136,-0.0574,-0.077,9.85,0.0689,-0.333,0.5424
4895,1029,873,33.687,30.031,-0.0173,0.0204,9.8411,-0.2294,-0.1745,-1.1806
4900,1022,869,33.612,30.205,0.0249,0.0319,9.8093,0.0077,1.0872,-1.0428
4905,1021,866,33.66,30.101,0.0301,-0.0153,9.8212,0.8962,-0.1636,-0.2817
4910,1013,867,33.638,30.156,0.0052,0.0358,9.8802,0.0461,0.2472,0.7214
4915,1009,865,33.624,30.101,-0.043,0.0503,9.7862,0.1069,0.1715,0.9614
4920,999,861,33.635,30.126,0.0243,0.0132,9.7916,-0.2605,0.5076,0.0074
4925,980,863,33.582,30.055,0.078,-0.0586,9.8465,0.7211,0.0672,-0.336
4930,985,861,33.69,30.1,-0.0451,-0.0272,9.7378,0.5864,-0.4041,0.8065
4935,970,861,33.663,30.009,-0.0363,-0.0701,9.7929,-0.1408,-0.2402,-0.4346
4940,962,862,33.6,30.157,0.0414,0.1023,9.814,-0.6869,-0.9467,-0.1501
4945,946,853,33.675,30.134,0.015,0.079,9.7244,-0.5778,-0.2558,-0.4969
4950,947,857,33.53,30.077,-0.0114,0.0257,9.8467,0.1393,-0.4117,0.0207
4955,938,854,33.666,30.151,0.0112,-0.0172,9.7906,-0.0746,0.3303,-0.2671
4960,933,856,33.565,29.945,0.0714,0.0637,9.7722,0.2931,-0.3179,-0.6209
4965,924,847,33.556,30.155,-0.0144,-0.023,9.8072,-0.5296,0.1846,0.7588
4970,917,849,33.733,30.061,-0.0066,-0.042,9.7314,-0.8236,0.3657,0.4814
4975,902,854,33.642,30.057,0.0036,-0.058,9.8916,0.4527,0.1283,0.7585
4980,902,847,33.654,30.123,-0.0038,-0.005,9.8517,-0.5182,0.2597,0.3737
4985,882,849,33.663,30.078,-0.0075,-0.0113,9.8009,0.2588,0.2185,0.239
4990,868,840,33.677,30.023,-0.0027,0.1054,9.872,-0.4273,-1.1846,0.8292
4995,863,843,33.679,30.158,0.0243,-0.0511,9.847,-0.2673,0.26,0.8516
5000,857,842,33.57,30.058,-0.0544,-0.0651,9.9307,-0.8602,0.7321,-0.6982
5005,849,845,33.656,30.108,0.0635,-0.0369,9.7254,0.3929,0.0161,-0.2715
5010,828,842,33.744,30.112,0.0319,-0.0846,9.778,0.3912,0.4764,0.5929
5015,818,838,33.651,30.052,0.0115,0.0626,9.8024,0.6713,0.2482,0.3897
5020,835,840,33.688,30.06,-0.0175,0.0605,9.8476,-0.0823,0.6919,0.6269
5025,816,842,33.746,30.128,-0.009,-0.0228,9.7818,0.1181,0.0736,-0.6952
5030,802,839,33.676,30.146,0.0256,0.0247,9.7727,-0.2082,-0.488,-0.4415
5035,794,836,33.719,30.043,0.0899,0.0407,9.8223,0.716,-0.1915,-0.5863
5040,791,835,33.607,30.108,-0.0229,0.0655,9.7624,-0.0886,0.179,0.1672
5045,784,833,33.768,30.204,-0.0488,-0.0852,9.8006,0.1441,-0.6731,0.1578
5050,776,838,33.661,30.09,0.0905,-0.0518,9.807,0.1157,0.4321,-0.0174
5055,772,834,33.552,30.099,0.0072,0.0153,9.8378,-0.273,-0.0186,-0.1093
5060,764,831,33.663,30.069,-0.0178,0.0262,9.8056,0.0244,0.1926,-0.3437
5065,761,833,33.686,30.097,-0.0552,-0.0434,9.8932,1.163,-0.4039,0.4114
5070,753,829,33.695,30.07,-0.0855,0.0475,9.7913,0.2898,-0.3917,-0.5503
5075,749,832,33.723,30.054,-0.0349,0.0337,9.8369,-0.4877,0.5907,-0.1171
5080,746,826,33.793,30.007,0.0305,0.0251,9.8038,0.5432,-0.6634,-0.2282
5085,755,824,33.702,30.07,0.0587,-0.0274,9.8277,-0.5441,0.5152,-0.6575
5090,753,822,33.675,30.061,0.0171,-0.0247,9.7477,0.4316,0.7007,0.4684
5095,744,825,33.696,30.115,0.0767,-0.0411,9.8471,0.1168,-0.3893,0.3065
5100,747,816,33.577,30.149,0.0615,0.0075,9.8335,-0.1611,0.384,-0.0051
5105,757,816,33.683,30.095,0.0672,0.025,9.8594,0.5214,-0.1615,0.488
5110,749,815,33.726,30.055,0.0052,-0.0047,9.8333,0.3017,-0.4395,0.2966
5115,753,821,33.692,30.133,-0.0277,-0.0377,9.881,-0.0583,0.3672,0.7911
5120,764,815,33.636,30.146,-0.0746,-0.1023,9.8403,0.4805,0.5809,-0.292
5125,764,810,33.639,30.158,-0.0034,-0.039,9.9328,-1.5564,0.1538,-0.8657
5130,769,807,33.667,30.181,0.0153,0.013,9.8558,0.3725,0.6972,-0.3093
5135,771,806,33.613,30.088,0.0552,0.0253,9.7429,-0.6194,0.8696,-0.0443
5140,776,803,33.698,30.111,0.0061,0.0646,9.822,0.6663,-0.0972,-0.3178
5145,778,800,33.687,29.976,0.0429,-0.0553,9.7732,-0.2685,-0.6311,-0.089
5150,794,798,33.716,30.094,0.0121,-0.0511,9.8884,-0.2467,-0.2828,-0.0072
5155,800,797,33.591,30.029,-0.0542,-0.0362,9.7812,-0.1981,-0.1863,-0.1165
5160,803,790,33.632,30.11,-0.0496,-0.0133,9.7418,0.3688,0.0001,0.0106
5165,816,782,33.653,30.102,-0.0143,-0.0295,9.8215,-0.3403,-0.594,0.6428
5170,832,782,33.611,30.041,-0.0949,0.0265,9.7704,-0.089,-0.003,-0.122
5175,834,774,33.659,30.111,0.0415,0.0363,9.872,-0.8193,0.335,0.5164
5180,838,779,33.751,30.085,-0.0196,0.0346,9.8758,-0.509,-0.3407,-0.1203
5185,855,770,33.594,30.142,-0.016,0.0156,9.699,-0.1385,-0.697,0.7209
5190,873,768,33.68,30.104,0.0579,-0.0519,9.7653,0.0324,-0.0493,0.6603
5195,882,765,33.731,30.123,-0.0908,-0.078,9.8324,-0.3636,0.318,0.0582
5200,897,762,33.702,30.137,-0.064,0.0526,9.8593,0.2512,0.1902,-0.5252
5205,910,753,33.652,30.074,-0.0498,-0.0873,9.7703,0.6122,-0.234,0.3186
5210,918,748,33.619,30.179,0.0083,-0.0084,9.8044,0.0652,-0.6647,-0.9496
5215,945,744,33.645,30.05,-0.0669,-0.053,9.81,-0.1533,-0.461,0.006
5220,946,743,33.719,30.101,0.0346,-0.0223,9.7877,0.1003,0.1534,-0.6078
5225,963,745,33.644,30.033,-0.0085,0.0216,9.7788,0.6871,0.5036,-0.5857
5230,976,739,33.622,30.093,0.021,-0.0417,9.8778,-0.3866,0.495,0.6275
5235,989,732,33.615,30.15,-0.091,0.0606,9.8817,0.5432,0.5855,-0.0041
5240,1001,726,33.62,30.13,0.089,0.0233,9.8404,0.4373,0.4035,0.3684
5245,1024,723,33.626,30.081,0.0533,-0.0064,9.8739,0.3693,-0.1615,-0.4987
5250,1031,728,33.74,30.046,0.0139,0.0233,9.8013,0.0612,-0.5081,0.9293
5255,1041,718,33.675,30.076,-0.024,0.0288,9.8618,-0.0076,-0.6847,-0.6177
5260,1046,718,33.674,30.185,-0.0343,-0.0518,9.7859,-0.8129,-0.3433,-0.0229
5265,1064,721,33.656,30.154,-0.0272,-0.0258,9.8765,0.439,-0.3082,0.3045
5270,1071,707,33.633,30.119,0.0061,0.0003,9.7561,-0.9124,0.1477,0.4633
5275,1079,700,33.632,30.08,-0.0072,-0.0551,9.8036,-1.42,0.8369,-0.1624
5280,1077,707,33.625,29.99,-0.0847,-0.0208,9.6431,-0.5775,-0.1998,-0.5552
5285,1101,707,33.62,30.089,-0.0534,0.0462,9.7991,-0.085,0.6789,-0.2756
5290,1105,706,33.687,30.121,-0.1325,-0.0176,9.8797,0.4608,-0.2227,0.7087
5295,1124,702,33.651,30.047,0.0308,0.0724,9.904,1.1618,-0.4902,0.0761
5300,1130,693,33.74,30.133,-0.0018,-0.0187,9.7993,0.05,-0.2358,-0.1748
5305,1142,700,33.751,30.117,0.0279,-0.0654,9.7768,-0.2832,0.5475,0.2401
5310,1145,701,33.652,30.054,-0.0053,-0.0112,9.7735,-0.9925,0.5092,-0.1244
5315,1150,698,33.583,30.148,-0.0042,-0.0024,9.7902,0.2921,-0.9936,-0.2294
5320,1164,697,33.746,30.216,0.0466,0.0444,9.8614,0.4442,-0.8257,0.9971
5325,1166,693,33.697,30.043,-0.0289,-0.0321,9.7734,0.4812,0.3007,0.7739
5330,1163,691,33.58,30.054,0.0685,0.0163,9.8302,0.3528,0.7725,-0.0243
5335,1174,700,33.709,30.16,-0.0607,-0.013,9.9065,0.4787,-0.2822,0.2337
5340,1176,696,33.626,30.086,0.0036,-0.0239,9.7631,-0.8851,0.41,-0.4089
5345,1171,699,33.568,30.019,-0.0349,0.0138,9.7762,0.3417,0.1503,-0.2308
5350,1177,703,33.684,30.049,-0.0218,0.0378,9.7746,-0.5343,-0.045,-0.1538
5355,1178,706,33.739,30.112,0.0046,-0.0416,9.743,0.293,-0.4964,-0.2941
5360,1190,710,33.613,30.101,0.0388,0.0312,9.8284,0.5173,0.321,0.1967
5365,1194,706,33.647,30.169,-0.0118,0.0648,9.864,-0.5107,0.1844,-0.6525
5370,1190,707,33.588,30.138,0.0734,0.0877,9.8212,-0.5299,-0.2062,0.0584
5375,1193,711,33.658,30.138,0.0754,-0.0043,9.8929,-0.3463,-0.5909,0.2885
5380,1184,717,33.569,30.056,-0.0143,0.0159,9.7726,0.4257,-0.515,0.8167
5385,1182,721,33.69,30.073,-0.1026,0.0211,9.842,0.657,0.7549,-0.7292
5390,1175,724,33.69,30.073,-0.01,-0.0567,9.863,-0.5848,0.5997,-0.0013
5395,1189,732,33.605,30.152,0.0198,0.0235,9.8553,0.8937,-0.3625,-0.2385
5400,1170,734,33.694,30.08,-0.0474,0.0162,9.7745,-0.1464,-0.3484,-0.3817
5405,1179,738,33.582,30.116,-0.0132,-0.091,9.8624,-0.0106,-0.58,-0.3884
5410,1177,747,33.611,30.084,-0.0044,-0.0045,9.759,0.1963,0.21,-1.1212
5415,1180,747,33.666,30.064,-0.0033,0.0579,9.8344,-0.089,0.0842,0.3857
5420,1166,754,33.73,30.079,-0.0394,-0.0077,9.8647,0.4554,-0.2759,-0.4012
5425,1177,758,33.668,30.174,-0.0744,0.1215,9.8044,0.901,-0.3945,0.3955
5430,1167,762,33.678,30.046,-0.0053,-0.0138,9.829,-0.376,0.3417,0.5242
5435,1164,768,33.604,30.09,0.0099,0.0799,9.8778,-0.0129,0.5737,-0.9764
5440,1157,768,33.716,30.227,0.0053,-0.0365,9.8506,0.4017,0.2717,-0.7042
5445,1148,781,33.726,30.062,0.0136,-0.0398,9.7887,-0.2871,-0.058,-0.7518
5450,1150,785,33.579,30.033,-0.0133,0.0358,9.7669,-0.5223,0.5069,0.5598
5455,1147,791,33.611,30.074,0.1174,0.0152,9.6704,-0.3984,0.7553,0.2652
5460,1149,795,33.621,30.06,0.0589,-0.159,9.7716,-0.4701,-0.3013,0.6805
5465,1151,797,33.686,30.103,0.0066,-0.0323,9.7456,0.1137,-0.7321,-0.8008
5470,1139,806,33.738,30.135,-0.0315,0.0348,9.7821,1.0319,0.3015,-0.9061
5475,1139,810,33.757,30.114,-0.0471,-0.0339,9.8113,-0.1684,-0.618,-0.5383
5480,1132,817,33.657,30.134,-0.1045,0.1091,9.7616,-0.2347,-0.1391,0.777
5485,1127,820,33.739,30.087,-0.0524,0.0379,9.8817,-1.0664,-0.4669,-0.0806
5490,1123,820,33.659,30.114,-0.078,-0.0522,9.679,-0.1782,-0.0709,0.3219
5495,1124,823,33.696,30.204,-0.0403,-0.042,9.8141,-1.0491,0.0851,-0.3506
5500,1108,827,33.702,30.164,0.0583,-0.0468,9.847,-0.4254,0.5184,1.183
5505,1117,836,33.655,30.145,0.0293,-0.0279,9.8099,0.0133,0.2354,0.3425
5510,1113,840,33.69,30.183,-0.0179,-0.0065,9.8444,0.0066,0.6627,0.1361
5515,1110,844,33.722,30.084,0.0263,-0.0391,9.8316,-0.1827,0.1232,0.452
5520,1116,849,33.657,30.112,0.0063,0.0078,9.7941,0.1104,0.2641,-0.7761
5525,1106,847,33.68,30.1,0.0221,-0.0603,9.7937,0.1125,0.3305,1.319
5530,1099,851,33.684,30.17,-0.0094,0.0404,9.811,0.3034,-0.1341,0.3688
5535,1102,856,33.595,30.155,0.0025,0.1347,9.805,0.8508,0.6003,-0.2064
5540,1087,863,33.606,30.041,0.0225,-0.0427,9.8758,0.4586,0.1982,0.0748
5545,1088,860,33.719,30.116,0.0142,-0.0895,9.8102,-0.0851,-0.2034,0.4135
5550,1100,866,33.597,30.1,-0.0043,0.0246,9.77,0.7773,0.0203,0.1609
5555,1098,865,33.682,30.144,0.0226,0.0014,9.7534,-0.2906,-0.3763,0.5144
5560,1089,871,33.65,30.172,-0.0132,-0.0166,9.8041,0.9629,-0.0847,-0.4402
5565,1084,875,33.677,30.115,0.0772,0.0046,9.7965,-0.1505,-0.1954,-0.0892
5570,1082,872,33.542,30.145,-0.1086,0.0041,9.8126,0.1077,0.9862,0.4794
5575,1083,880,33.728,30.059,-0.0053,0.0163,9.7581,0.2641,-0.2614,0.0688
5580,1078,871,33.685,30.083,0.0073,-0.0932,9.7415,-0.6873,0.2158,0.1841
5585,1074,878,33.715,30.054,-0.0969,-0.0421,9.8559,0.0039,-1.0717,-0.1983
5590,1073,874,33.696,30.097,0.0024,-0.0048,9.7961,-0.2159,0.1772,0.0856
5595,1071,880,33.678,30.065,-0.0302,-0.1024,9.8642,0.2583,-0.5196,-0.1725
5600,1071,872,33.583,30.068,-0.0048,0.0295,9.8358,-0.4442,-0.2937,0.1906
5605,1068,872,33.591,30.115,0.0292,-0.0206,9.876,-0.1252,0.5506,0.788
5610,1057,878,33.713,30.043,-0.0091,-0.0374,9.7624,0.6195,-0.3882,-0.0897
5615,1046,879,33.606,30.133,-0.0527,-0.0227,9.7669,0.4304,-0.0256,0.3954
5620,1047,877,33.65,30.109,-0.0091,-0.0318,9.8528,-0.5729,0.1751,-0.4612
5625,1052,869,33.696,30.129,0.0715,0.0052,9.804,0.6284,0.5304,0.3189
5630,1038,870,33.642,30.1,-0.0033,0.0428,9.786,-0.024,0.9363,0.9618
5635,1050,876,33.716,30.121,0.0023,-0.0562,9.7841,-0.0875,-0.2458,0.2575
5640,1042,877,33.742,30.107,0.0036,0.0478,9.8806,0.1327,-0.1912,0.3555
5645,1041,872,33.674,30.087,-0.0351,0.0175,9.8558,-0.0364,0.2335,-0.4909
5650,1028,872,33.654,30.071,0.0408,0.0036,9.7451,0.7691,0.73,-0.136
5655,1013,865,33.667,30.159,0.043,-0.0073,9.7789,-0.297,0.6585,0.2699
5660,1012,866,33.646,30.112,-0.0599,-0.0162,9.8489,-0.5204,0.3437,0.49
5665,1013,869,33.695,30.126,0.0467,0.0102,9.8001,-0.238,-0.1178,0.57
5670,998,863,33.623,30.125,0.0033,-0.0361,9.8246,-1.4727,-0.5505,-0.2262
5675,995,862,33.699,30.111,-0.0749,-0.0447,9.9333,-0.808,0.5282,-0.1556
5680,974,864,33.658,30.088,0.0276,-0.0554,9.8719,0.6668,-0.2686,1.0431
5685,983,858,33.765,30.176,-0.0445,0.049,9.8355,-0.1272,0.3346,-0.012
5690,968,858,33.634,30.087,-0.0489,-0.043,9.7679,0.1282,0.6372,-0.2693
5695,950,857,33.676,30.216,0.0009,-0.013,9.8322,0.3871,-0.1586,-0.4045
5700,948,856,33.714,30.184,-0.0181,-0.0189,9.8009,0.0373,0.1625,0.3892
5705,939,854,33.666,30.09,-0.0549,0.0059,9.8519,0.3927,-0.2116,-0.7739
5710,936,850,33.662,30.115,0.083,0.0382,9.8242,0.0433,-0.16,0.5403
5715,927,854,33.639,30.156,0.0868,0.0632,9.7884,0.425,-0.5324,-0.267
5720,915,854,33.723,30.062,0.0594,0.0492,9.7729,0.0454,0.2507,-0.937
5725,915,855,33.685,30.134,-0.0527,0.0495,9.8399,-0.8471,0.1449,-0.3105
5730,899,853,33.711,30.133,-0.0197,0.0396,9.8514,-0.2928,0.3249,0.084
5735,879,848,33.725,30.114,0.0095,0.0584,9.7895,-0.3312,0.2334,0.1896
5740,867,849,33.661,30.17,0.0332,-0.0365,9.8775,-0.7128,-0.0702,0.5138
5745,858,845,33.661,30.154,0.0313,0.0076,9.7326,-0.0449,0.1763,-0.0945
5750,862,847,33.601,30.056,-0.0982,0.041,9.8228,0.007,-0.4374,0.1402
5755,849,844,33.638,30.125,-0.0466,0.0103,9.8629,0.3817,-0.8703,-0.4781
5760,833,841,33.654,30.121,0.0477,-0.0202,9.8673,0.6643,0.02,0.3471
5765,822,845,33.747,30.064,0.0971,0.0588,9.8657,0.1099,0.2171,0.0045
5770,812,845,33.704,30.064,0.0854,0.0591,9.8019,-0.6639,0.1104,0.123
5775,813,833,33.62,30.135,-0.0206,-0.0074,9.7923,0.6405,-0.3469,-0.9014
5780,807,839,33.645,30.059,-0.0406,-0.0648,9.7302,-0.5326,0.3733,-0.1933
5785,790,838,33.647,30.099,0.0469,0.0238,9.7641,-0.2497,0.6663,0.1526
5790,782,840,33.718,30.134,0.0962,-0.0039,9.689,-0.6164,-0.1671,-0.1159
5795,777,832,33.61,30.112,0.0166,0.0227,9.8005,0.207,-0.168,-0.2691
5800,786,831,33.771,30.12,-0.0177,0.002,9.8882,-0.4769,-0.2135,0.2582
5805,778,832,33.683,30.087,-0.0405,-0.0251,9.7101,0.4506,0.0608,0.1646
5810,760,832,33.622,30.071,0.0135,-0.0506,9.8347,-0.6568,0.0504,-0.2018
5815,752,825,33.601,30.068,-0.0589,-0.0553,9.7879,-0.3135,-0.0709,-0.1981
5820,756,831,33.655,30.147,-0.0008,0.0538,9.7566,0.1226,0.5012,-0.2131
5825,766,828,33.702,30.177,0.1008,-0.0046,9.7825,0.2467,0.4683,-0.9931
5830,752,829,33.668,30.094,0.0023,-0.0037,9.7348,0.0838,-0.3321,0.3895
5835,759,825,33.621,30.058,0.0229,0.03,9.7777,0.0737,-0.2506,-0.054
5840,752,825,33.722,30.152,0.0053,0.0747,9.7145,0.39,0.2581,0.0534
5845,748,817,33.746,30.116,0.0216,-0.0013,9.8684,0.7025,-0.1862,-0.067
5850,753,823,33.658,30.188,-0.01,0.0199,9.7717,0.7682,0.0654,0.766
5855,747,822,33.624,30.146,0.0054,0.0047,9.823,-0.2228,0.2329,-0.7058
5860,749,818,33.599,30.065,0.1,-0.0123,9.7607,-0.1205,0.8135,0.4682
5865,761,813,33.623,30.19,0.0232,-0.0069,9.812,-0.4163,0.2948,-0.9394
5870,763,817,33.666,30.033,-0.0318,-0.0363,9.7535,-0.0509,-0.7055,0.1245
5875,756,814,33.706,30.102,0.013,0.0584,9.7633,0.2394,0.7697,0.5332
5880,771,809,33.629,30.184,0.0336,0.005,9.8309,0.7556,0.5075,0.3134
5885,769,812,33.682,30.064,-0.0253,-0.0146,9.7542,0.3446,-0.2774,-0.1924
5890,781,806,33.678,30.086,-0.0473,0.0761,9.8385,0.4293,-0.3904,-0.1051
5895,780,803,33.629,30.143,-0.0889,-0.0071,9.8452,-1.041,-0.0286,0.4338
5900,789,794,33.626,30.103,0.1276,0.0197,9.7327,0.399,-0.1793,-0.2377
5905,795,789,33.637,30.144,0.0731,0.0842,9.8487,-0.8475,0.0634,0.1964
5910,809,791,33.713,30.086,0.0875,-0.0157,9.8933,-0.5263,0.0927,0.1485
5915,820,790,33.683,30.08,-0.0308,-0.0117,9.9097,0.1414,-0.2239,0.299
5920,821,782,33.711,30.085,-0.1123,0.0662,9.9074,0.3841,0.4179,-0.5068
5925,832,776,33.722,30.068,0.0171,-0.0992,9.8012,0.0156,-0.367,-0.1733
5930,844,777,33.611,30.1,-0.0113,-0.0448,9.7941,0.1171,0.7573,-0.0811
5935,854,775,33.712,30.057,-0.0583,-0.023,9.9055,-0.4078,0.2954,-0.3064
5940,876,769,33.765,30.192,0.0783,-0.0331,9.8203,-0.0928,-0.4284,0.9049
5945,881,769,33.644,30.152,-0.0135,-0.0407,9.8266,-0.2166,-0.2559,0.0174
5950,882,758,33.66,30.115,0.0549,-0.0132,9.8781,-0.4886,-0.3242,-0.7445
5955,904,757,33.693,30.2,0.0184,0.0734,9.8683,-0.4017,-0.6827,0.7717
5960,921,752,33.702,30.111,-0.0088,0.032,9.7629,-0.4549,0.0225,0.4135
5965,935,747,33.683,30.195,0.0585,-0.0003,9.7583,-0.3526,-0.0789,0.526
5970,951,743,33.598,30.135,0.0474,0.0366,9.8661,0.5408,0.2092,0.3051
5975,963,743,33.581,30.145,-0.0158,-0.0678,9.8512,0.5585,-0.8419,0.0145
5980,984,737,33.675,30.129,0.0008,0.0458,9.763,-0.0835,-0.9833,-0.0819
5985,985,738,33.617,30.162,0.0144,-0.0269,9.8621,0.4857,0.3617,-0.415
5990,1001,732,33.652,30.086,0.0055,-0.1619,9.8147,0.0825,0.0922,1.2925
5995,1010,727,33.696,30.059,0.05,0.0576,9.7812,0.6943,0.8013,-0.8687
6000,1018,725,33.731,30.097,-0.0345,0.1381,9.7405,-1.0746,0.4312,0.7027
6005,1048,721,33.648,30.091,-0.0142,0.0252,9.7755,-0.7295,-0.4105,0.4389
6010,1049,720,33.752,30.069,0.0877,0.0347,9.7894,1.4259,0.0866,-0.1498
6015,1059,713,33.682,30.15,0.0477,-0.0,9.757,0.4457,0.2287,-0.1494
6020,1073,707,33.657,30.142,-0.016,0.0047,9.7893,0.2941,0.5458,0.0451
6025,1082,706,33.791,30.104,-0.0544,0.0226,9.8723,0.4947,-0.0923,0.0586
6030,1096,705,33.738,30.124,0.0018,0.0407,9.8374,0.7542,-0.0136,0.3317
6035,1106,702,33.733,30.054,0.0109,0.0647,9.7557,0.9983,0.2388,-0.033
6040,1105,703,33.731,30.074,-0.0059,0.0877,9.716,0.3932,0.0608,-0.5235
6045,1121,704,33.548,30.164,0.0271,-0.0673,9.8234,-0.3851,0.3052,-0.3946
6050,1126,699,33.629,30.045,-0.0061,0.0517,9.7971,-0.4188,-1.2953,0.7594
6055,1133,694,33.717,30.104,-0.0733,0.0459,9.7536,0.7901,-0.1087,-0.2838
6060,1154,693,33.638,30.133,0.0398,-0.0465,9.8209,0.6305,-0.1398,-0.0075
6065,1154,695,33.735,30.043,0.064,-0.0582,9.8581,0.2896,0.0136,-0.2213
6070,1161,698,33.644,30.166,0.0026,0.0192,9.673,-0.0741,0.0215,-0.7163
6075,1157,698,33.66,30.132,-0.0041,-0.0235,9.838,0.169,-0.1972,-0.0171
6080,1161,694,33.744,30.13,0.0113,-0.0794,9.8125,-0.1985,0.2724,0.4012
6085,1168,699,33.625,30.076,-0.082,0.0485,9.8125,-0.1823,0.0291,-0.4142
6090,1178,699,33.661,30.063,-0.0162,0.022,9.689,0.0085,-0.433,0.9371
6095,1176,696,33.681,30.179,-0.0185,-0.0347,9.808,-0.5165,0.4969,-0.4011
6100,1185,704,33.707,30.07,0.0198,-0.0238,9.8155,-0.0871,-0.9969,-0.2113
6105,1178,708,33.569,30.137,-0.0339,-0.0931,9.7403,0.2215,0.3171,-0.5155
6110,1178,703,33.647,30.044,-0.0326,0.0088,9.8105,0.3944,0.5623,0.4264
6115,1176,704,33.643,30.073,-0.0409,0.0454,9.8061,0.352,0.533,0.1747
6120,1198,713,33.704,30.147,0.0039,0.0885,9.8211,1.0238,-0.0665,0.5673
6125,1192,714,33.626,30.107,0.0113,-0.0274,9.7227,0.1009,-0.0993,0.6648
6130,1187,712,33.699,30.119,-0.0306,-0.1522,9.8595,-0.6706,-0.1616,-0.2572
6135,1178,717,33.63,30.006,-0.0735,0.0011,9.8258,0.456,0.1457,-0.7278
6140,1185,723,33.653,30.033,-0.0311,0.0394,9.8555,-0.9502,-0.1091,-0.2332
6145,1181,724,33.686,30.127,0.002,0.0182,9.8107,-0.389,0.4381,0.0001
6150,1191,732,33.703,30.108,-0.0407,-0.0232,9.7824,-0.2163,-0.1934,-0.6539
6155,1179,735,33.644,30.069,-0.0271,0.0226,9.8591,0.2364,0.7354,-0.3519
6160,1182,743,33.688,30.061,-0.0097,-0.0162,9.7849,-0.0879,-0.1507,0.5852
6165,1171,741,33.679,30.167,0.0059,-0.0562,9.7327,-0.0784,0.1281,0.222
6170,1172,754,33.676,30.194,0.0384,0.04,9.8208,-0.4809,0.1047,0.0519
6175,1165,753,33.752,30.122,-0.0117,0.0006,9.8696,0.2672,-0.1309,-0.3326
6180,1167,764,33.621,30.154,0.0718,0.0172,9.8582,-0.922,0.6918,-0.1723
6185,1175,766,33.561,30.15,-0.0409,0.0284,9.763,0.4527,-0.0142,1.0818
6190,1170,771,33.704,30.107,0.0111,-0.0368,9.7623,0.5992,0.6068,-0.5607
6195,1158,778,33.661,30.146,-0.0009,0.0099,9.8167,-0.1572,0.1933,-0.2965
6200,1156,783,33.647,30.127,-0.0127,-0.0612,9.8123,0.0116,0.0485,0.2591
6205,1157,784,33.69,30.103,-0.0289,-0.0457,9.8216,0.9578,-0.3925,-0.7528
6210,1148,796,33.602,30.204,-0.0024,-0.0196,9.8075,0.3453,0.2921,0.3927
6215,1141,801,33.607,30.141,-0.0102,0.0241,9.7629,0.4891,0.5354,0.0919
6220,1145,802,33.693,30.062,0.0238,0.0401,9.7923,-0.0421,0.071,-0.6374
6225,1135,812,33.731,30.17,-0.0066,0.0,9.7874,0.3503,0.2253,-1.2153
6230,1128,816,33.659,30.059,-0.0216,0.0455,9.7486,-0.926,0.2876,-0.0451
6235,1131,821,33.755,30.019,-0.0439,-0.0569,9.757,-0.7552,0.9393,-1.2954
6240,1128,827,33.656,30.072,-0.0115,-0.0432,9.8777,-0.1442,-0.3403,0.228
6245,1126,828,33.673,30.091,-0.0254,-0.0017,9.7989,0.2761,-0.6035,0.1258
6250,1125,836,33.628,30.167,-0.0192,-0.0428,9.7678,-0.2534,-0.0513,-0.8194
6255,1115,839,33.733,30.098,-0.0368,0.067,9.8105,0.5216,0.6363,0.4684
6260,1120,841,33.696,30.163,0.0208,0.007,9.7801,-0.1199,-0.9973,-0.536
6265,1102,842,33.66,30.13,-0.0651,-0.0352,9.8089,-0.2423,-1.4162,-0.5451
6270,1111,850,33.705,30.014,-0.0009,0.0062,9.8677,0.244,1.4753,-0.4841
6275,1103,852,33.629,30.162,-0.0664,-0.0538,9.8727,-0.3426,-0.3909,-1.1854
6280,1103,854,33.666,30.021,0.062,0.0602,9.7673,0.1953,0.3592,0.8572
6285,1102,863,33.752,30.09,-0.071,0.0468,9.7743,0.6733,-0.3348,0.2595
6290,1107,861,33.658,30.162,-0.0258,0.003,9.697,0.3293,0.1082,0.8878
6295,1096,861,33.69,30.054,-0.1055,-0.0261,9.8034,-0.2304,0.6741,0.275
6300,1092,870,33.66,30.189,0.039,0.0361,9.8941,-0.8301,0.2367,0.1335
6305,1098,869,33.606,30.22,-0.061,0.0034,9.8089,0.4207,-0.223,-0.3762
6310,1098,871,33.564,30.042,0.0293,0.005,9.8287,0.4672,0.3365,0.2993
6315,1093,867,33.646,30.08,-0.0044,0.0913,9.781,0.3174,0.2174,-0.1974
6320,1084,876,33.684,30.087,-0.0206,0.1157,9.8464,-0.0723,0.23,-0.6353
6325,1082,874,33.576,30.018,-0.0008,-0.0548,9.7605,-0.6271,-0.8361,0.2504
6330,1081,879,33.698,30.13,0.0796,-0.0284,9.8531,-0.0066,0.2386,-0.2126
6335,1075,872,33.646,30.106,0.028,-0.0418,9.7573,-0.4934,-0.3793,0.77
6340,1076,874,33.75,30.097,0.03,0.0352,9.7715,-0.1333,-0.168,0.3891
6345,1083,871,33.594,30.13,0.0588,0.0165,9.8041,0.1378,0.3245,0.3667
6350,1059,881,33.574,30.085,-0.013,0.0217,9.7742,-0.486,-0.2635,-0.4346
6355,1073,876,33.674,30.151,0.0417,-0.0124,9.8325,-0.7105,-0.1627,1.2132
6360,1067,877,33.736,30.087,0.0275,-0.0074,9.814,-0.7231,-0.2448,-0.1311
6365,1059,878,33.669,30.081,0.0632,0.0257,9.859,-0.3989,-0.1083,0.0045
6370,1062,874,33.651,30.042,0.0101,-0.0776,9.8112,0.6585,0.1327,0.991
6375,1060,876,33.685,30.087,0.0301,-0.1276,9.7853,0.0678,0.291,0.6934
6380,1050,872,33.712,30.074,-0.0876,0.0347,9.795,-0.3938,0.7108,0.8534
6385,1041,873,33.617,30.214,0.0636,0.0671,9.9306,0.504,-0.2905,-0.1622
6390,1030,870,33.706,30.101,-0.0577,0.0007,9.7464,-0.7302,0.5036,-0.7009
6395,1036,872,33.693,30.128,-0.0223,0.0468,9.7927,0.4016,0.2745,0.0826
6400,1014,875,33.642,30.152,-0.0927,-0.0504,9.8173,-0.1819,0.0268,0.2894
6405,1014,866,33.662,30.154,-0.0349,-0.0047,9.7615,-0.0224,0.9774,0.3489
6410,1015,871,33.607,30.073,0.0312,-0.1234,9.7566,-0.0124,0.094,0.92
6415,1005,867,33.653,30.19,0.0407,-0.0225,9.7675,-0.2467,-0.1188,-0.1502
6420,991,866,33.749,30.161,0.076,-0.0203,9.8107,0.4375,0.1732,0.3466
6425,997,864,33.666,30.149,0.0083,-0.0069,9.7522,-0.3476,0.1219,-0.1855
6430,986,860,33.659,30.102,-0.0704,0.0482,9.7608,-0.6747,-0.7501,0.2712
6435,983,860,33.697,30.145,-0.0067,0.0328,9.8346,-0.3606,0.4059,-0.5394
6440,963,860,33.753,30.098,0.0773,0.1141,9.7971,-1.0247,-0.1163,-0.158
6445,964,855,33.704,30.152,0.0089,0.0636,9.8536,0.1557,-0.024,0.0161
6450,942,860,33.626,30.112,-0.0209,0.0089,9.8745,-0.5183,-0.2565,-0.8609
6455,932,857,33.63,30.129,0.0006,-0.1167,9.81,0.2555,-1.2714,-0.3916
6460,932,859,33.733,30.039,0.0571,-0.0548,9.7857,-0.4573,1.3369,-0.1055
6465,924,856,33.681,30.048,0.0023,0.1299,9.8168,0.157,-0.2164,0.2024
6470,919,849,33.749,30.109,0.0194,0.0769,9.7991,-0.3901,-0.3761,0.2345
6475,910,848,33.679,30.124,0.053,0.0075,9.8763,-0.1568,-0.1641,0.0356
6480,901,850,33.634,30.094,0.0327,-0.0625,9.859,0.6735,0.0524,0.7482
6485,897,851,33.699,30.107,0.0505,-0.0303,9.7732,-0.0249,0.5734,-0.5257
6490,869,848,33.645,30.075,-0.0866,0.0175,9.8839,0.502,0.2437,0.1951
6495,865,843,33.725,30.046,0.0562,-0.0683,9.8506,0.1472,-0.0423,-0.0337
6500,858,842,33.568,30.106,-0.0161,-0.0103,9.7876,0.4134,-0.5595,0.4421
6505,847,841,33.704,30.17,0.0658,0.0548,9.828,-0.1464,0.9712,0.0559
6510,844,843,33.631,30.157,0.0266,-0.0233,9.8297,-0.4137,-0.2857,1.4193
6515,828,842,33.625,30.039,-0.0627,0.0571,9.8333,0.0328,-0.3063,0.1945
6520,818,837,33.674,30.105,0.0816,0.0197,9.7758,-0.1789,-0.6977,0.287
6525,809,839,33.704,30.178,0.0224,0.0694,9.8598,-0.2564,-0.5054,0.0895
6530,806,843,33.669,30.059,-0.0838,0.071,9.8378,0.4121,0.3539,-0.1992
6535,800,841,33.699,30.184,0.0784,0.0401,9.8388,0.1323,-0.6271,-0.4415
6540,783,836,33.59,30.124,0.0182,0.0575,9.771,0.7474,-0.7323,-1.3753
6545,786,831,33.726,30.2,0.0152,0.0452,9.8264,0.0698,0.3502,-0.4173
6550,778,830,33.711,30.164,-0.0545,0.0658,9.8539,0.2639,0.5865,1.0004
6555,777,834,33.641,30.118,-0.0691,-0.0287,9.8608,-0.9107,-0.0983,-0.2632
6560,763,830,33.668,30.071,0.0608,-0.0035,9.6836,-0.3157,-0.2104,-0.1433
6565,761,829,33.713,30.155,-0.0419,0.0584,9.8101,-0.3569,0.3565,-0.0477
6570,750,832,33.681,30.051,0.0172,0.0138,9.8541,-0.2059,-0.4474,0.4025
6575,753,830,33.697,30.061,0.0546,-0.0585,9.7878,0.6682,0.7867,1.54
6580,747,822,33.654,30.145,0.0119,0.0131,9.7123,0.4316,-0.3764,0.1666
6585,742,825,33.724,30.085,-0.0275,-0.1021,9.7836,0.8464,-0.6822,0.3867
6590,753,827,33.678,30.268,-0.0324,-0.0849,9.796,0.1479,-0.8592,-0.1716
6595,745,822,33.681,30.074,0.016,0.0321,9.8186,0.1289,0.7089,-0.1244
6600,742,824,33.652,30.095,0.0017,-0.0429,9.7734,-0.172,-0.0862,0.0179
6605,754,817,33.638,30.013,0.0024,0.0185,9.805,-0.1107,0.397,-0.3475
6610,746,819,33.724,30.107,-0.0467,-0.0416,9.8144,0.5706,0.9113,-0.6825
6615,756,810,33.741,29.992,-0.0739,0.0052,9.795,0.9488,-0.4466,0.2354
6620,758,811,33.649,30.094,-0.0069,0.0357,9.8018,0.0025,0.1745,0.2505
6625,761,812,33.728,30.134,-0.0605,0.0443,9.8203,0.0875,0.2607,0.0501
6630,767,808,33.649,30.06,0.0239,-0.0117,9.8098,0.4181,0.4197,-0.5608
6635,765,808,33.728,30.112,-0.0396,-0.0012,9.7795,0.73,-0.1996,0.4683
6640,771,802,33.632,30.097,0.1227,-0.0879,9.794,0.7984,-0.4234,0.243
6645,781,794,33.537,30.087,0.0146,-0.0066,9.8195,0.4116,-0.4393,-0.1046
6650,793,803,33.786,30.171,0.0349,0.0356,9.7778,-0.431,0.4134,0.3979
6655,792,795,33.651,30.115,0.0086,0.003,9.7667,-0.0064,0.8609,-0.7255
6660,817,787,33.6,30.154,-0.0714,-0.0405,9.8447,-0.0554,1.0744,0.0263
6665,802,788,33.664,30.066,0.004,-0.1022,9.8313,0.0812,-0.3852,-0.232
6670,823,782,33.685,30.093,-0.037,-0.0348,9.822,-0.6178,-0.4948,-0.2394
6675,843,779,33.677,30.088,0.0737,-0.0412,9.9036,0.2898,-0.3517,-0.1233
6680,847,777,33.686,30.094,0.0643,-0.0427,9.8259,0.9983,-0.5466,-0.8801
6685,855,772,33.564,30.068,-0.0358,-0.0504,9.8965,0.6955,0.6719,0.2584
6690,860,767,33.762,30.069,-0.0076,0.0419,9.7876,-0.2028,0.6939,0.6137
6695,876,766,33.688,30.22,0.1436,-0.0272,9.7723,-0.6101,-0.7165,0.0393
6700,884,763,33.673,30.156,0.0918,-0.0623,9.7774,0.3717,0.8562,0.3819
6705,905,757,33.693,30.091,-0.0009,0.0212,9.7399,0.5931,-0.4741,-0.0842
6710,912,756,33.65,30.101,0.0487,0.0472,9.902,0.7837,-0.4332,-0.802
6715,925,751,33.597,30.076,-0.0437,-0.0455,9.6994,0.2925,0.5198,0.3086
6720,937,744,33.725,30.09,0.0298,0.0075,9.8221,-0.3448,0.3018,-0.1572
6725,953,739,33.712,30.162,-0.0348,0.0564,9.7951,0.1081,-0.146,0.954
6730,976,738,33.709,30.195,0.1153,0.0129,9.7912,-0.531,1.2181,0.2044
6735,975,732,33.626,30.2,-0.0612,0.0135,9.81,-0.0664,-0.5992,0.0285
6740,995,733,33.653,30.129,0.0142,-0.0315,9.7472,-0.177,-0.4143,-0.4534
6745,1015,726,33.641,30.171,-0.0062,-0.021,9.8271,-0.2832,-0.2891,0.4465
6750,1013,720,33.645,30.089,0.0661,0.07,9.8368,-0.059,0.182,-0.8782
6755,1031,724,33.713,30.214,0.0189,-0.0019,9.8409,0.7366,-0.0494,-0.5158
6760,1040,717,33.628,30.146,-0.009,0.0295,9.7467,-0.1314,-0.6402,-0.1168
6765,1055,716,33.699,30.053,-0.0864,0.0436,9.8065,-0.9283,0.0141,0.7317
6770,1071,714,33.675,30.112,0.0096,0.0481,9.7635,0.3452,-0.8422,0.6195
6775,1083,713,33.657,30.04,0.0401,0.0597,9.8374,-0.366,0.8269,0.7007
6780,1091,705,33.682,30.168,0.0254,-0.0183,9.7967,-0.1979,0.1907,-0.4517
6785,1096,704,33.615,30.146,0.0365,-0.0433,9.7866,-0.1236,-0.6114,-0.4181
6790,1105,703,33.681,30.107,-0.0196,0.0304,9.8702,0.1629,-0.0167,-0.1168
6795,1117,704,33.711,30.093,0.0214,0.0893,9.8133,-0.1431,0.4359,0.4644
6800,1121,701,33.645,30.146,-0.0402,-0.0889,9.7451,-0.2703,0.421,0.0872
6805,1137,701,33.658,30.095,-0.0561,0.0085,9.8887,0.4442,-0.3078,-0.0329
6810,1147,697,33.637,30.177,0.0321,0.0723,9.7473,0.0337,0.3563,0.1751
6815,1152,692,33.734,30.026,-0.0035,-0.067,9.772,-0.1975,-0.0978,0.0788
6820,1158,693,33.793,30.116,0.0338,0.0348,9.8084,0.1559,-0.4765,-1.0229
6825,1161,696,33.669,30.144,-0.0478,-0.0104,9.8702,0.494,0.4879,0.5123
6830,1159,697,33.723,30.145,0.0774,0.057,9.795,0.5575,-0.3332,-0.2881
6835,1180,698,33.56,30.201,-0.0084,0.0059,9.7731,0.4128,-0.4502,0.8684
6840,1175,699,33.683,30.164,-0.0121,0.0458,9.8611,0.05,0.3956,0.4613
6845,1185,691,33.683,30.152,-0.0153,-0.0061,9.7831,-0.0551,-0.1504,-0.1356
6850,1181,699,33.65,30.077,0.0823,0.0247,9.8405,-0.9061,-0.1445,0.2632
6855,1185,701,33.719,30.087,-0.0195,-0.0293,9.7843,-0.3906,0.5468,-0.3933
6860,1185,704,33.744,30.066,0.0072,-0.0128,9.8025,0.2797,0.5476,-0.797
6865,1192,714,33.685,30.155,0.0109,0.0008,9.779,-1.1336,-0.0761,0.6107
6870,1189,708,33.584,30.103,0.017,-0.0404,9.7481,-0.4126,0.5182,-0.7289
6875,1193,712,33.698,30.101,0.0167,0.0119,9.7764,1.0352,0.8524,-0.4998
6880,1193,719,33.749,30.032,-0.0211,-0.0134,9.8296,0.5037,-0.1205,0.65
6885,1185,717,33.613,30.062,0.0625,0.0993,9.8146,0.7333,-0.2158,-0.2422
6890,1187,725,33.763,30.056,-0.0294,0.0765,9.8018,-0.0987,-0.043,-0.3645
6895,1186,726,33.699,30.142,0.0243,-0.0827,9.9051,0.0184,-0.255,0.7704
6900,1179,732,33.708,30.127,0.0386,0.0056,9.7808,-0.2377,-0.8153,0.1203
6905,1171,735,33.596,30.163,-0.0795,0.0225,9.6786,-0.1185,0.4662,0.5984
6910,1175,744,33.703,30.18,0.0445,-0.0148,9.817,0.4255,-0.2148,-0.6104
6915,1179,742,33.636,30.12,-0.004,0.0539,9.7715,-0.7749,-0.7445,0.1821
6920,1174,748,33.711,30.128,0.0693,-0.0665,9.7859,0.1297,-0.1739,-0.0133
6925,1180,757,33.679,30.081,0.0221,0.0707,9.9129,0.1859,-0.231,-0.0921
6930,1177,762,33.776,30.16,-0.029,0.0165,9.775,-0.2136,-0.4057,0.7042
6935,1166,760,33.648,30.175,-0.0655,-0.0464,9.813,0.057,-0.0177,-0.0422
6940,1165,766,33.64,30.139,0.0493,-0.026,9.7818,0.1025,-0.3121,0.2835
6945,1163,774,33.595,30.151,-0.043,-0.0268,9.8454,-0.8575,0.0443,0.8431
6950,1151,779,33.701,30.054,0.0386,0.0242,9.7819,0.1067,-0.3843,-0.2869
6955,1151,785,33.794,30.212,-0.0333,-0.021,9.7913,1.1539,-0.0679,-1.0387
6960,1145,795,33.565,30.045,0.0732,-0.0189,9.7663,0.3665,-0.8894,-0.2924
6965,1143,795,33.727,30.084,0.0428,0.0632,9.9127,-0.2524,0.0611,1.0246
6970,1148,802,33.71,30.051,0.0228,-0.0154,9.9251,0.0701,-0.2947,-1.0274
6975,1137,809,33.72,30.096,-0.038,-0.0433,9.7436,-0.5858,-0.445,0.5529
6980,1138,812,33.719,30.16,0.0309,0.0479,9.897,0.3353,0.1157,-0.4438
6985,1130,817,33.651,30.206,-0.1035,-0.0049,9.7982,0.0846,0.2147,-0.3292
6990,1129,818,33.679,30.085,-0.0598,-0.021,9.7915,-0.1145,0.2874,-0.4968
6995,1119,831,33.674,30.125,-0.0586,-0.0222,9.7186,0.2423,-0.5665,-0.0891
7000,1122,831,33.604,30.124,0.047,0.0433,9.83,-0.1107,-0.238,-0.3717
7005,1119,837,33.766,30.146,-0.0082,0.0203,9.894,-0.3854,-1.0264,0.4982
7010,1103,837,33.685,30.107,-0.0297,-0.0331,9.7481,0.1844,0.8517,-0.799
7015,1107,842,33.751,30.169,-0.0718,0.014,9.7688,0.0369,-0.4114,0.5362
7020,1111,847,33.683,30.088,-0.1276,-0.0015,9.8331,0.3893,-0.0767,-0.8998
7025,1110,849,33.695,30.073,-0.0171,0.0187,9.8455,-0.5628,0.0919,0.4281
7030,1108,857,33.603,30.048,-0.1501,0.0796,9.7426,-0.9483,0.3767,0.1003
7035,1109,854,33.667,30.153,0.0117,-0.008,9.927,-0.2824,-0.9287,-0.7566
7040,1100,862,33.743,30.071,-0.0735,0.0491,9.847,0.1753,-1.0927,-0.107
7045,1093,867,33.755,30.041,-0.0829,0.0575,9.7862,0.3473,0.1193,-0.6609
7050,1091,864,33.611,30.105,0.0213,-0.0325,9.8371,-0.3081,-0.0827,-0.3276
7055,1083,868,33.615,30.18,-0.0658,0.0137,9.7199,0.0961,0.1496,-0.1917
7060,1089,866,33.712,30.11,-0.0338,0.0075,9.826,0.085,0.0925,0.0652
7065,1087,868,33.666,30.069,0.0135,0.0705,9.7804,0.3314,0.4646,0.7744
7070,1083,874,33.663,30.161,-0.0514,0.108,9.8937,-0.3854,-0.2883,-0.183
7075,1084,875,33.684,30.17,0.0313,-0.0232,9.8618,0.925,0.2904,-0.1177
7080,1074,875,33.718,30.155,-0.0498,-0.0763,9.7807,1.056,-0.3705,0.2433
7085,1071,875,33.666,30.128,-0.0401,0.0097,9.7698,-1.0775,-0.1247,-0.206
7090,1075,874,33.736,30.085,-0.0998,-0.0205,9.8152,-0.2515,0.6125,-0.9865
7095,1068,878,33.741,30.122,-0.0797,-0.0891,9.7695,0.1523,-0.7791,-0.017
7100,1061,877,33.78,30.127,-0.0137,-0.0454,9.8276,0.4746,-0.4438,-0.2684
7105,1062,871,33.751,30.121,0.0193,0.0132,9.8137,-0.7075,0.6781,-0.1508
7110,1074,880,33.731,30.171,-0.0029,-0.0482,9.8102,-0.0817,-0.0773,-0.2551
7115,1063,878,33.685,30.207,0.0141,0.032,9.8045,0.5571,-0.6586,0.4957
7120,1052,878,33.682,30.156,0.0321,0.0286,9.8693,0.2434,-0.2377,-0.7568
7125,1051,873,33.671,30.075,0.0801,-0.0375,9.804,-0.3618,-0.1112,-0.2388
7130,1049,867,33.63,30.157,-0.1099,-0.0616,9.7959,0.1948,-0.0031,0.4624
7135,1044,873,33.647,30.012,0.0758,-0.0141,9.8454,-0.2319,0.9191,-0.2519
7140,1040,874,33.697,30.153,-0.0729,-0.003,9.7663,0.6108,0.1917,0.1922
7145,1040,873,33.634,30.116,0.0048,-0.0137,9.8427,0.5369,0.6728,0.0592
7150,1020,873,33.625,30.144,-0.0626,0.0009,9.8068,-0.2925,0.0828,0.0024
7155,1018,873,33.744,30.03,0.0221,-0.0609,9.8399,0.288,-0.7721,-0.0823
7160,1018,868,33.678,30.144,0.084,0.013,9.8475,-0.5667,0.4671,-0.964
7165,1015,865,33.7,30.158,0.0204,-0.0522,9.7018,-0.9144,0.7341,1.4643
7170,1006,864,33.669,30.104,-0.1191,-0.0335,9.7621,0.3644,-0.6252,-0.2364
7175,1002,864,33.735,30.044,-0.054,-0.0857,9.8672,-0.3708,0.2987,1.0074
7180,985,867,33.765,30.1,0.0564,0.0197,9.8747,0.2407,-0.1552,-0.0551
7185,990,861,33.772,30.12,-0.037,0.0102,9.803,0.924,-0.5117,-0.1935
7190,961,860,33.58,30.147,-0.0718,-0.0196,9.8406,0.2003,0.2519,0.572
7195,959,862,33.711,30.077,-0.0175,0.0436,9.7634,-0.0117,0.203,-0.1596
7200,953,859,33.649,30.111,0.0709,0.0894,9.79,-1.1445,-0.6923,-0.3656
7205,943,856,33.707,30.081,-0.0131,-0.0285,9.8176,-0.358,0.8477,0.3197
7210,939,856,33.733,30.124,-0.009,0.0553,9.8015,-0.6448,-0.3602,0.0317
7215,916,852,33.63,30.157,0.059,-0.0562,9.7002,-0.1087,0.4633,0.588
7220,918,846,33.675,30.088,0.1315,0.0387,9.8604,-0.4475,-0.3608,-0.113
7225,911,847,33.682,30.021,-0.0063,-0.1473,9.8676,-0.6268,-0.8615,-0.3663
7230,906,845,33.719,30.055,-0.0414,-0.0245,9.841,-0.0521,-0.6312,-0.0076
7235,889,848,33.647,30.061,-0.0068,-0.065,9.8281,-0.4513,0.9332,-0.3682
7240,885,847,33.61,30.016,-0.0245,-0.0289,9.8292,-0.5674,-0.2292,-0.2532
7245,863,850,33.678,30.031,0.074,0.0339,9.8018,-0.1414,-0.3588,0.4405
7250,853,837,33.745,30.053,0.0478,-0.0879,9.7861,-0.3332,0.6969,0.2734
7255,851,844,33.73,30.088,-0.0483,-0.0417,9.8418,-0.0178,-0.0517,0.7862
7260,848,839,33.649,30.082,-0.0262,0.0281,9.8583,0.5179,0.2254,-0.4045
7265,840,840,33.71,30.085,-0.0361,-0.0667,9.7686,0.5479,-0.1295,-0.2184
7270,829,843,33.621,30.199,-0.013,0.0409,9.829,-0.354,0.2166,-0.5078
7275,810,837,33.745,30.059,0.0063,0.038,9.8371,-0.9184,-0.2343,-1.1124
7280,808,834,33.726,30.065,-0.0661,0.0232,9.8344,0.1556,0.5241,0.5711
7285,796,840,33.614,30.092,0.0345,0.0178,9.7634,-0.7498,0.2239,0.2517
7290,797,839,33.671,30.132,-0.0742,-0.0286,9.8247,0.892,0.3723,0.7504
7295,791,831,33.691,30.154,-0.0534,-0.0295,9.802,0.9521,-0.0671,0.078
7300,783,830,33.677,30.037,0.0329,-0.0277,9.8032,0.0727,0.3713,-0.0337
7305,785,835,33.686,30.073,0.0203,0.0004,9.8178,-0.2868,0.1742,0.2975
7310,766,829,33.714,30.11,0.0267,-0.0256,9.8079,-0.1993,-0.1077,-0.256
7315,765,828,33.605,30.115,-0.0086,0.0458,9.7739,-0.4058,-0.6439,-0.962
7320,755,831,33.739,30.128,0.0509,-0.0698,9.8433,0.4415,0.2147,0.7638
7325,757,824,33.605,30.086,-0.0099,0.0189,9.8003,-0.4504,0.0384,0.6288
7330,751,832,33.785,30.114,-0.0339,0.0385,9.8428,0.3985,-0.8528,-0.3609
7335,749,822,33.692,30.133,0.0042,-0.0079,9.7767,0.0369,0.2867,0.0054
7340,754,825,33.595,30.06,0.0536,-0.0591,9.779,-0.7492,-0.937,0.1514
7345,754,824,33.651,30.091,0.0399,-0.0237,9.7846,-0.8959,-0.0741,-0.0582
7350,752,819,33.754,30.128,0.011,-0.0161,9.765,0.207,-0.3164,-0.901
7355,753,819,33.677,30.083,-0.0413,-0.0607,9.8534,0.6923,0.6603,-0.3493
7360,744,820,33.7,30.106,-0.0727,-0.0033,9.7904,1.4013,0.4822,-0.3152
7365,751,819,33.73,30.113,0.0334,0.076,9.7148,1.2053,-0.2307,-0.2842
7370,751,815,33.75,30.069,-0.0147,0.0226,9.8212,0.3931,0.8195,0.1182
7375,751,810,33.696,30.103,0.1313,-0.0962,9.9984,0.1327,0.7445,-0.6417
7380,772,808,33.697,30.172,-0.0389,0.0348,9.8029,0.4418,-0.2467,0.3011
7385,770,812,33.625,30.195,-0.0608,-0.0253,9.805,-0.2879,0.2119,-0.0644
7390,775,808,33.73,30.142,-0.0087,0.0109,9.7865,-0.5681,-0.7323,0.1007
7395,780,802,33.673,30.152,0.0371,-0.0797,9.8558,0.7156,0.2591,0.3078
7400,786,800,33.693,30.138,0.0665,0.01,9.8076,0.6083,0.0654,-0.1044
7405,795,798,33.693,30.135,0.0514,-0.0358,9.8355,0.5025,0.0718,0.5985
7410,800,795,33.686,30.12,-0.0207,0.0633,9.7834,-0.451,0.4447,-0.1929
7415,813,784,33.723,30.094,0.0689,0.0295,9.7963,0.3225,-0.7426,0.3969
7420,820,788,33.624,30.112,-0.0262,-0.1061,9.7436,-0.6333,0.5652,0.3052
7425,831,780,33.712,30.035,-0.0207,-0.0134,9.8257,0.4788,1.1169,0.2321
7430,842,779,33.587,30.273,0.0278,0.1134,9.7194,0.043,-0.4767,0.4322
7435,848,772,33.692,30.15,0.0175,0.113,9.7952,-0.0859,0.3061,-0.3296
7440,867,770,33.731,30.103,-0.0152,0.0527,9.7712,0.5836,0.2279,0.2118
7445,879,766,33.68,30.109,0.1713,0.0224,9.8027,-0.1803,-0.2862,-0.2819
7450,896,763,33.622,30.106,-0.1035,-0.0254,9.8653,0.1013,-0.8332,-0.0759
7455,896,761,33.665,30.135,-0.0337,-0.12,9.8044,-0.2102,-0.2796,-0.5309
7460,909,754,33.654,30.136,0.017,0.0799,9.8153,-0.5052,-0.9307,-0.3276
7465,929,753,33.721,30.095,0.1014,0.0118,9.7795,-0.0006,0.0793,-0.1068
7470,939,749,33.75,30.1,0.0295,0.0905,9.7508,-0.3441,0.3524,0.6998
7475,952,742,33.656,30.131,0.0241,0.0208,9.8668,0.4855,0.3321,-0.5317
7480,971,741,33.751,30.042,0.0374,0.0163,9.8712,0.6363,-0.0829,-0.6221
7485,976,739,33.848,30.112,-0.107,-0.0223,9.7757,-0.3999,-0.4625,-0.3561
7490,995,729,33.667,30.077,-0.0652,0.0139,9.837,-0.265,0.5168,-0.3593
7495,997,729,33.74,30.125,0.0369,-0.0211,9.9225,-0.1603,0.4914,0.5416
7500,1014,721,33.711,30.153,0.0777,0.0082,9.7621,1.2494,0.393,0.4649
7505,1030,725,33.67,30.136,0.0138,-0.0158,9.8167,0.6009,-0.1354,-0.3248
7510,1039,720,33.577,30.136,0.0721,0.0061,9.8818,0.4638,-0.1647,0.6641
7515,1053,719,33.725,30.127,0.0479,-0.0796,9.817,0.412,0.1613,0.7128
7520,1066,712,33.677,30.097,-0.0193,-0.0163,9.8275,0.2278,0.5127,0.4859
7525,1076,710,33.727,30.089,0.002,-0.0454,9.8171,-0.0693,0.3104,0.2261
7530,1087,708,33.683,30.135,-0.0507,0.0677,9.7852,0.1325,0.2298,-0.1449
7535,1091,707,33.668,30.1,0.0236,0.0589,9.8018,-0.6232,0.3071,0.1701
7540,1111,699,33.633,30.084,0.0254,0.0752,9.8228,0.3152,1.0361,0.4503
7545,1116,699,33.613,30.074,-0.0167,-0.003,9.8373,0.6361,-0.1615,-0.0882
7550,1124,695,33.693,30.09,0.0416,0.0319,9.7855,-0.3454,0.0662,0.5341
7555,1135,699,33.69,30.088,-0.0586,0.0041,9.8076,0.1273,-0.3832,0.0899
7560,1147,698,33.652,30.148,-0.047,-0.1149,9.808,0.3274,-0.0526,-0.5986
7565,1157,693,33.625,30.115,-0.0197,-0.0417,9.8321,0.0694,-0.4927,-0.0584
7570,1152,697,33.745,30.079,-0.1023,0.0556,9.8526,0.2344,0.067,-0.8341
7575,1161,698,33.727,30.159,-0.0298,-0.0471,9.7994,-0.6235,1.0046,-0.2643
7580,1162,688,33.663,30.118,0.0161,0.0081,9.779,0.008,0.866,0.1596
7585,1168,698,33.744,30.028,-0.0217,-0.0359,9.7773,0.0802,0.251,-0.5592
7590,1167,694,33.744,30.05,0.0641,0.0847,9.7912,-0.2652,-0.6313,-0.2408
7595,1176,697,33.709,30.179,0.0161,0.0784,9.8566,-0.4865,-0.6623,-0.5027
7600,1178,695,33.651,30.091,0.0494,0.0262,9.9443,-0.3629,-0.1645,-1.3669
7605,1186,703,33.74,30.158,-0.0555,0.0334,9.7862,0.4846,0.159,0.1713
7610,1189,705,33.63,30.139,0.0006,-0.0281,9.8332,0.3198,-0.5572,0.104
7615,1181,704,33.688,30.199,0.0092,0.0675,9.7422,0.8163,-0.216,-0.0177
7620,1180,709,33.729,30.174,-0.0002,0.0295,9.7865,-0.6029,-0.1094,0.6731
7625,1191,713,33.654,30.067,0.0031,-0.057,9.8097,0.3972,-0.4846,-0.5478
7630,1187,721,33.704,30.19,-0.0193,0.1219,9.8729,-0.3905,1.0814,-0.363
7635,1191,713,33.706,30.095,0.0295,-0.0163,9.8574,0.5014,-0.3564,-0.6535
7640,1185,723,33.703,30.113,0.0648,-0.0929,9.75,1.6678,-0.184,0.7134
7645,1188,725,33.673,30.116,0.0468,0.0395,9.7834,0.4883,-0.4892,-0.4973
7650,1183,728,33.677,30.083,-0.0087,-0.0465,9.9202,-0.5061,0.1203,0.5791
7655,1182,734,33.759,30.067,-0.0124,0.0765,9.7877,-0.8908,-0.2649,-0.3814
7660,1175,738,33.66,30.107,-0.0276,0.0211,9.8422,-0.6574,-0.6883,-0.9536
7665,1185,739,33.745,30.004,0.0188,0.0706,9.8395,0.4165,0.0168,-0.2547
7670,1177,749,33.668,30.132,-0.0266,0.0465,9.8122,-0.367,-0.3135,-0.2621
7675,1169,753,33.712,30.133,0.0077,0.0131,9.8297,0.0745,0.3952,-0.1052
7680,1180,758,33.739,30.102,0.0359,-0.0004,9.8274,0.3246,0.9721,0.5773
7685,1170,762,33.62,30.209,-0.0101,0.0097,9.7358,-0.2415,-0.0133,0.2066
7690,1159,765,33.683,30.121,0.0938,0.0553,9.8458,0.5492,-0.2171,-0.6646
7695,1147,772,33.716,30.134,0.0028,-0.0132,9.7631,-0.7066,0.0899,0.1558
7700,1159,783,33.69,30.176,-0.0043,-0.0167,9.8286,0.1124,0.0642,0.5676
7705,1151,785,33.655,30.05,0.0777,0.0335,9.7975,-0.0972,-0.63,-0.0771
7710,1151,788,33.75,30.134,0.0494,0.0648,9.7588,-0.4988,0.0238,0.2955
7715,1146,795,33.728,30.12,0.1494,-0.005,9.7626,0.0253,-0.7789,0.5798
7720,1138,799,33.629,30.119,-0.0142,-0.0109,9.8702,-0.2335,0.2627,0.0212
7725,1138,803,33.659,30.019,0.0196,0.0242,9.8275,0.772,0.4436,-0.4723
7730,1126,811,33.711,30.133,0.0397,0.1026,9.8636,-0.2776,-0.2223,0.8803
7735,1130,813,33.637,30.094,-0.0805,-0.0394,9.7507,0.2712,-0.4685,-0.5297
7740,1124,820,33.671,30.081,-0.0489,-0.0745,9.8402,-0.5056,-1.089,1.0638
7745,1131,824,33.745,30.063,0.1522,0.0264,9.7576,0.211,-0.4846,0.0019
7750,1125,830,33.607,30.053,0.12,-0.0651,9.7778,0.163,0.0942,0.9431
7755,1122,835,33.671,30.072,-0.0198,0.0479,9.815,0.1424,0.7402,-0.2454
7760,1115,841,33.652,30.041,0.0085,-0.0607,9.8375,0.4357,-0.198,0.2486
7765,1120,843,33.685,30.069,-0.0639,0.0588,9.8724,-0.0959,0.5923,0.2072
7770,1115,846,33.656,30.195,0.0432,0.0316,9.7482,0.2872,-0.053,-0.2486
7775,1109,857,33.782,30.115,-0.0185,-0.0341,9.7286,-0.0738,0.1463,0.3345
7780,1106,856,33.662,30.106,-0.0358,-0.0731,9.8462,0.0134,-0.1195,0.0741
7785,1108,857,33.707,30.073,-0.0725,-0.0613,9.8278,-0.6284,0.4484,-0.0
7790,1099,858,33.706,30.1,-0.0287,0.0521,9.7455,0.2298,0.5368,-0.3057
7795,1099,858,33.74,30.101,-0.0568,0.0738,9.8101,-0.3459,-0.2535,0.8899
7800,1092,867,33.773,30.159,0.0725,0.007,9.8737,0.0877,-0.1029,0.7862
7805,1101,864,33.742,30.195,-0.0396,-0.0504,9.8339,-0.3001,-1.0778,-0.7037
7810,1088,873,33.705,30.107,0.0269,0.0152,9.8096,-0.6862,0.9834,0.243
7815,1083,874,33.645,30.184,0.0218,0.0221,9.83,0.3138,0.023,0.217
7820,1087,873,33.721,30.062,0.0111,-0.0034,9.8558,-0.0774,0.5941,-0.8723
7825,1088,871,33.675,30.186,0.0363,-0.0763,9.8915,-0.3518,-0.3592,0.8905
7830,1079,873,33.67,30.098,0.0637,0.0235,9.7875,0.1193,0.514,-0.3084
7835,1085,875,33.717,30.208,0.0022,-0.0331,9.8102,-0.2057,0.5623,0.3493
7840,1074,878,33.727,30.136,-0.0134,0.0926,9.7205,0.8527,-0.4213,0.2973
7845,1065,882,33.753,30.047,0.0075,0.0205,9.9021,0.2914,-0.1239,0.741
7850,1078,876,33.642,30.042,0.0205,0.0197,9.8394,0.3959,-0.7571,-0.0833
7855,1062,873,33.665,30.137,-0.1425,-0.04,9.8643,-0.4856,1.0349,-0.1646
7860,1061,875,33.762,30.122,-0.0124,-0.0308,9.796,0.4822,0.3648,-0.2212
7865,1060,874,33.668,30.194,0.0177,-0.0461,9.8321,-0.9077,-0.8627,0.6319
7870,1067,879,33.588,30.21,-0.0445,0.0402,9.7395,-0.0762,-0.0891,0.4655
7875,1046,880,33.752,30.198,0.0947,-0.0204,9.8056,-0.5933,0.2357,0.3994
7880,1048,873,33.668,30.179,0.0272,-0.0211,9.8087,0.214,0.8025,-0.389
7885,1048,873,33.691,30.137,0.0873,-0.029,9.8299,0.1584,-0.2078,-1.1588
7890,1029,869,33.7,30.123,0.085,-0.0855,9.8112,0.5401,-0.1823,0.5209
7895,1032,871,33.674,30.141,-0.0565,0.0342,9.8316,0.4812,-0.0487,-0.1739
7900,1035,875,33.703,30.137,-0.0057,0.0238,9.8263,0.0962,-0.4432,0.4208
7905,1027,870,33.66,30.061,0.0559,0.0679,9.8024,-0.1805,-0.2131,0.3065
7910,1016,864,33.705,30.179,0.0468,-0.0617,9.8154,0.3961,-0.6926,-0.4987
7915,1002,865,33.659,30.09,-0.0021,0.0241,9.8158,-0.2748,-0.7068,-0.5631
7920,1004,867,33.765,30.011,0.0372,-0.0666,9.8001,0.2119,-0.6752,0.6757
7925,990,863,33.604,30.147,0.1103,-0.0132,9.7128,-0.2519,-0.3412,0.0454
7930,990,863,33.754,30.13,0.0139,-0.0064,9.7243,0.26,-0.7107,-0.025
7935,979,861,33.639,30.08,-0.0357,-0.0279,9.8388,-0.7593,-0.6884,-0.1715
7940,963,863,33.654,30.218,0.0161,0.0295,9.8069,1.0051,-0.2821,-0.6285
7945,966,852,33.636,30.133,0.0229,0.1311,9.848,-0.6251,0.5371,0.2918
7950,962,853,33.696,30.089,-0.0046,0.0429,9.8794,-0.8152,0.393,-0.0316
7955,945,854,33.684,30.169,0.0138,-0.0167,9.7823,0.2241,0.2289,-0.3628
7960,940,855,33.684,30.119,0.0801,0.0484,9.7839,0.6681,0.658,-0.5793
7965,933,847,33.652,30.163,-0.0472,0.0157,9.8027,0.0567,0.2647,-0.9169
7970,919,854,33.673,30.088,-0.0596,0.008,9.7385,0.2075,-0.1963,-0.3938
7975,923,847,33.668,30.189,-0.0671,-0.0349,9.7064,-0.1038,0.51,0.063
7980,902,851,33.698,30.078,-0.0188,0.0334,9.81,-0.7718,-0.2798,0.1412
7985,884,851,33.713,30.096,0.0191,0.0334,9.7466,0.8128,-0.3131,0.3936
7990,882,846,33.687,30.138,-0.0311,0.0341,9.8095,-0.1054,0.1998,0.6405
7995,873,846,33.81,30.097,-0.003,-0.0278,9.7748,0.4139,0.2569,-0.3967
8000,864,846,33.685,30.078,-0.0072,0.0075,9.868,-0.3222,0.1404,0.7357
8005,861,844,33.779,30.153,-0.087,0.0502,9.8507,0.2701,0.8522,-0.1144
8010,845,844,33.697,30.18,0.0721,0.0201,9.7965,0.4031,0.6139,1.0708
8015,835,840,33.715,30.076,-0.0322,-0.0337,9.9126,-0.043,-0.0754,-0.047
8020,827,838,33.607,30.142,0.0034,0.0178,9.7977,-0.0633,0.5627,0.4432
8025,811,836,33.683,30.117,0.0062,-0.0172,9.859,-0.3384,0.1555,-0.3352
8029,804,843,33.735,30.116,0.0632,-0.0148,9.8157,0.3795,-0.9562,-1.1935
8035,790,837,33.622,30.242,-0.04,-0.0343,9.7898,-0.1667,-0.0871,0.1675
8039,803,836,33.765,30.152,0.0042,-0.0516,9.7805,-0.3627,-0.1322,0.301
8045,794,836,33.704,30.137,0.0112,0.0401,9.7728,-0.5017,0.6574,0.3192
8050,776,825,33.772,30.194,0.0507,0.0468,9.8556,-0.625,0.2443,-0.5312
8055,778,831,33.617,30.179,0.062,-0.0385,9.7818,0.0329,0.9627,0.5636
8060,765,836,33.698,30.16,0.0116,-0.062,9.8533,-0.9414,-0.1509,-1.0349
8064,764,831,33.671,30.141,0.0302,0.0016,9.7584,-0.4003,0.0739,-0.5884
8070,758,835,33.727,30.203,0.0945,-0.0156,9.8202,-0.0435,0.1544,0.59
8074,746,833,33.636,30.086,-0.04,0.0014,9.8158,0.7715,-0.1386,0.8697
8080,747,824,33.73,30.108,-0.0333,-0.0643,9.8105,-0.4703,-0.2755,-0.4529
8085,755,826,33.638,30.087,-0.0229,0.0257,9.8521,-0.1005,-0.3518,-0.3568
8090,748,822,33.677,30.143,-0.0003,0.0594,9.8102,-0.3343,0.6608,-1.3606
8095,751,824,33.631,30.129,-0.0323,-0.0406,9.7231,-0.824,0.319,-0.7267
8100,750,822,33.64,30.271,0.0568,-0.0371,9.8934,0.8594,1.7151,0.6922
8105,740,812,33.724,29.997,-0.0028,-0.0171,9.8272,0.3193,0.5938,0.0683
8109,759,821,33.71,30.135,-0.05,0.0149,9.833,0.5799,1.3285,0.3242
8115,751,814,33.744,30.116,0.0461,-0.0505,9.8233,-1.5189,-0.0239,-0.2428
8119,749,817,33.704,30.127,-0.0742,0.0123,9.7643,-0.0558,0.1553,1.3659
8125,759,814,33.665,30.018,-0.0149,0.0778,9.7486,-0.6945,0.0809,-0.8057
8130,761,806,33.708,30.068,0.0902,-0.0595,9.7828,0.1954,-0.557,0.1192
8135,755,802,33.734,30.116,-0.0049,-0.025,9.8597,-1.0033,0.381,-0.8611
8140,768,812,33.707,30.103,0.013,-0.0543,9.9328,-1.1902,-0.0126,0.1873
8145,778,797,33.698,30.171,-0.0239,0.0351,9.8239,0.4285,0.1069,0.088
8150,797,798,33.665,30.032,0.0052,-0.061,9.7856,0.0281,-0.3429,0.0703
8154,792,793,33.69,30.074,0.0363,-0.0324,9.8139,-0.3191,0.5169,-0.6976
8160,798,793,33.735,30.201,-0.0405,0.0027,9.8042,0.1531,-0.3904,0.87
8164,808,786,33.662,30.163,0.0303,-0.1228,9.7703,0.0396,-1.0571,0.1581
8170,821,784,33.764,30.098,-0.0214,-0.026,9.8156,0.594,0.8106,-0.2398
8175,825,786,33.615,30.156,0.0358,0.0263,9.796,0.753,-0.3276,-0.9757
8180,833,777,33.735,30.115,0.0106,0.0783,9.8198,0.3016,-0.3751,0.0687
8185,849,776,33.612,30.133,0.0007,-0.1508,9.7285,-0.8212,0.4407,0.1204
8189,870,777,33.743,30.057,0.026,0.0724,9.7771,-0.8403,0.117,0.1589
8195,877,767,33.725,30.113,-0.1178,-0.0052,9.7923,0.1128,-0.0262,-0.175
8200,887,764,33.672,30.044,-0.0016,0.0472,9.7938,0.3464,-0.7457,-0.1577
8205,885,765,33.68,30.075,-0.0513,0.0508,9.7488,0.007,0.468,0.3669
8210,913,757,33.657,30.183,0.0155,0.0322,9.8326,-0.1487,-1.2074,0.3276
8215,923,748,33.684,30.071,-0.0232,-0.0365,9.8685,-0.4506,0.198,-0.2448
8220,941,748,33.663,30.212,-0.0437,0.0624,9.7391,-0.4462,-0.46,-0.308
8225,942,739,33.747,30.104,-0.0148,0.1352,9.8092,0.2471,0.3864,-0.7577
8230,974,741,33.623,30.211,0.0389,-0.0636,9.7264,0.0718,0.8801,-0.1979
8235,981,739,33.737,30.04,0.0722,0.1209,9.8017,0.0841,-0.6467,-0.3817
8240,985,734,33.681,30.139,0.0161,0.0623,9.7593,-0.8477,0.0241,0.068
8245,1009,723,33.65,30.197,-0.0152,-0.0471,9.8216,-0.6413,0.1082,0.9025
8250,1020,720,33.748,30.106,-0.009,-0.0297,9.8309,-0.0376,0.8692,-0.1357
8255,1021,721,33.656,30.216,0.0004,0.0936,9.725,0.3581,0.4473,-0.7483
8260,1041,717,33.708,30.104,-0.0539,-0.099,9.8182,0.0914,0.5068,-0.352
8265,1050,717,33.737,30.138,0.0566,0.0076,9.7935,-0.1055,0.1048,-0.2595
8270,1061,709,33.747,30.095,-0.0252,0.0183,9.7466,0.0064,-0.1846,-1.1663
8275,1070,709,33.689,30.113,0.0232,-0.0256,9.9153,-0.446,0.2629,0.2778
8280,1084,710,33.679,30.234,0.0497,-0.0435,9.7827,0.0085,-0.6268,-0.0965
8285,1093,711,33.779,30.135,0.0471,-0.0222,9.797,0.3394,0.3986,0.1452
8290,1100,706,33.732,30.115,0.0194,-0.0563,9.796,-0.4066,0.1059,-0.524
8295,1111,704,33.653,30.117,0.0389,0.1273,9.8389,0.5566,0.8423,-0.3978
8300,1116,697,33.684,30.09,-0.0084,0.0498,9.8609,-0.0467,1.4388,-0.2957
8305,1131,700,33.713,30.181,0.1304,0.0028,9.772,0.0864,-0.0221,-1.105
8310,1139,695,33.75,30.088,-0.1339,0.0408,9.7016,-0.2048,-0.9627,0.4687
8315,1143,703,33.674,30.154,0.0124,0.0153,9.8963,0.865,-0.5809,-0.4664
8320,1145,692,33.711,30.037,0.0397,-0.0507,9.7958,-0.6163,-0.4018,-0.1777
8325,1163,698,33.699,30.167,-0.0388,0.0263,9.9136,0.0416,-0.4972,0.3488
8330,1163,698,33.731,30.146,0.1069,-0.0075,9.8043,-0.7022,0.2604,0.3272
8335,1167,694,33.603,30.028,-0.0033,0.0195,9.7826,-0.6043,0.2933,-0.1429
8340,1173,698,33.678,30.179,-0.0096,0.0352,9.7833,-0.343,0.7455,-0.6126
8345,1180,697,33.682,30.04,-0.0248,-0.0561,9.7884,0.3514,-0.0636,-0.0534
8350,1185,700,33.655,30.176,0.0253,-0.0341,9.7808,-0.2608,-0.6965,0.2764
8355,1181,704,33.671,30.224,0.0093,0.0048,9.8188,0.3602,0.274,0.2957
8360,1185,703,33.66,30.136,-0.0711,0.025,9.7961,0.2572,0.0543,-0.1195
8365,1180,708,33.678,30.173,0.0224,-0.0159,9.7685,0.8309,1.0864,-0.4162
8370,1193,697,33.708,30.111,-0.0674,0.0034,9.6969,0.0279,0.0969,-0.5377
8375,1185,707,33.654,30.081,-0.0196,0.021,9.8035,0.1363,0.0051,-0.0742
8380,1194,715,33.733,30.109,0.0632,-0.0637,9.777,-0.3595,0.4845,0.5922
8385,1192,717,33.701,30.115,-0.0784,-0.0604,9.8317,0.7052,0.1341,-0.3354
8390,1185,726,33.629,30.139,0.0141,-0.0039,9.8361,-0.3884,-0.1616,0.0041
8395,1186,724,33.638,30.168,-0.0629,-0.0193,9.8131,-0.3282,-0.1161,0.1682
8400,1174,727,33.703,30.195,-0.021,-0.0156,9.8223,-0.6999,0.0194,-0.1924
8405,1183,732,33.635,30.037,0.0535,0.06,9.8346,0.2379,0.0869,-0.0401
8410,1171,741,33.801,30.116,0.0779,0.0272,9.7315,0.0797,1.0289,0.4025
8415,1178,744,33.764,30.083,-0.0255,0.0463,9.839,-1.1423,-0.3941,-0.8301
8420,1173,749,33.688,30.035,-0.0424,-0.0418,9.8291,-0.1015,0.3458,-0.1101
8425,1178,748,33.673,30.175,-0.0192,-0.0184,9.7818,-0.3983,0.0575,0.2807
8430,1170,761,33.685,30.198,0.0027,0.0752,9.7921,0.3324,0.0855,-0.1729
