timestamp_ms,ir_finger,ir_toe,temp_finger,temp_toe,ax,ay,az,gx,gy,gz
0,1051,629,34.321,34.253,-0.072,-0.0372,9.8039,-0.0669,0.0222,0.5169
5,1046,626,34.259,34.26,0.0145,0.0221,9.7825,0.618,-0.3546,0.0383
10,1064,626,34.374,34.256,-0.0311,-0.0328,9.8629,0.179,-0.1639,-1.1059
15,1084,634,34.38,34.298,-0.0307,-0.0145,9.8691,0.4277,0.2351,0.1279
20,1087,632,34.313,34.297,-0.0735,0.1152,9.7576,0.5575,-0.2136,0.0089
25,1103,640,34.263,34.237,0.0483,0.0359,9.8359,-0.3913,-0.9758,-0.5079
30,1115,641,34.337,34.233,0.0387,-0.039,9.8989,0.1228,0.2867,0.7438
35,1124,647,34.267,34.251,0.0829,0.0361,9.8015,1.0902,0.0962,0.0534
40,1132,651,34.389,34.277,0.0239,0.0176,9.8081,-0.3443,0.272,-1.5073
45,1142,651,34.397,34.215,0.0457,-0.0427,9.9269,-0.0912,0.0428,0.1384
50,1143,665,34.326,34.342,0.0267,-0.0276,9.7979,-0.1843,0.2887,-0.4489
55,1154,666,34.31,34.304,0.0298,-0.0524,9.7874,-0.8115,-0.6824,-0.0156
60,1160,672,34.343,34.325,-0.0091,-0.0202,9.8081,-0.5792,-0.4793,0.4112
65,1154,687,34.291,34.338,-0.0524,-0.0722,9.7658,0.0109,0.5505,0.0703
70,1167,692,34.375,34.345,-0.0833,0.0081,9.833,0.0113,-0.0602,1.4262
75,1171,700,34.322,34.281,0.0176,-0.0683,9.7434,0.2127,-0.7826,-0.2563
80,1184,709,34.394,34.241,-0.0055,0.0864,9.7997,0.0868,1.0846,-0.0482
85,1186,718,34.433,34.254,-0.0471,0.0118,9.8322,0.1171,-0.1187,0.0805
90,1182,727,34.259,34.34,0.0242,-0.0853,9.8838,-0.2907,0.8247,-0.0029
95,1185,733,34.333,34.329,-0.0179,-0.061,9.7803,-0.1993,0.4369,-0.19
100,1191,746,34.296,34.254,0.0437,-0.0461,9.8732,-0.3452,0.4212,-0.1992
105,1189,751,34.357,34.33,-0.0686,-0.0383,9.7705,0.5353,-1.2807,-0.01
110,1185,767,34.342,34.339,0.0027,-0.0455,9.8473,-0.2063,-0.1849,0.3286
115,1188,773,34.304,34.272,-0.1498,0.0787,9.7866,1.0277,-0.4903,0.2931
120,1191,780,34.316,34.289,0.0908,-0.1045,9.8397,0.3643,-0.9079,-0.1314
125,1191,792,34.383,34.311,0.0062,-0.038,9.8222,-0.6138,0.536,0.1434
130,1182,803,34.281,34.246,0.0324,0.016,9.9243,-0.0826,0.1385,-0.7792
135,1174,812,34.361,34.251,-0.0112,-0.0115,9.8729,-0.5341,-1.2054,-0.3085
140,1173,821,34.368,34.288,-0.0957,0.0438,9.8601,-0.1053,0.1682,-0.2641
145,1166,829,34.287,34.246,0.0208,0.0091,9.8871,-0.6499,-0.9349,0.2624
150,1171,841,34.38,34.289,0.0362,-0.0099,9.908,-0.4341,0.9773,-0.6198
155,1173,846,34.266,34.23,0.0445,-0.0559,9.7545,-0.1089,0.0609,0.082
160,1160,854,34.249,34.235,-0.0916,0.0876,9.8129,0.6644,-0.8697,0.186
165,1173,862,34.435,34.291,0.049,-0.0418,9.7519,0.0779,-0.3223,-0.2575
170,1154,867,34.288,34.263,-0.0409,0.0727,9.9266,-0.3081,-0.9427,0.0341
175,1163,870,34.36,34.295,0.0052,-0.0734,9.7596,0.5659,-0.5479,-0.4086
180,1141,890,34.286,34.312,-0.1113,0.0623,9.7697,-0.4285,0.2609,-0.0681
185,1151,891,34.312,34.365,-0.0593,0.1081,9.9109,-0.141,-0.1474,-0.5941
190,1147,895,34.352,34.277,-0.0415,-0.0401,9.8054,-0.9328,-0.258,0.4282
195,1143,902,34.362,34.318,-0.0972,-0.0627,9.8322,-0.6615,-0.2985,-0.03
200,1137,905,34.345,34.197,0.0363,0.0349,9.8024,-0.4463,-0.1832,-0.2499
205,1126,909,34.322,34.284,0.0015,-0.0155,9.8222,0.3048,-0.6123,-0.3289
210,1128,913,34.31,34.228,0.0689,0.0747,9.7047,-0.4937,0.0608,-0.2117
215,1122,915,34.35,34.393,0.026,-0.037,9.8218,-0.1366,-0.1639,0.237
220,1119,921,34.403,34.277,0.0701,-0.0163,9.8323,-0.0843,0.4689,-0.1584
225,1116,922,34.311,34.26,0.023,0.0096,9.7384,-0.8791,0.2076,-0.9442
230,1119,926,34.385,34.229,-0.0874,0.0014,9.7824,0.9124,0.3085,-0.2633
235,1110,926,34.305,34.358,-0.0144,0.0461,9.8762,-0.8194,-1.1923,0.8133
240,1110,929,34.272,34.317,-0.0561,0.0077,9.8265,0.5356,0.1529,-1.2358
245,1106,922,34.421,34.35,0.0961,0.0361,9.9208,-0.5618,0.3069,-0.1046
250,1095,929,34.359,34.22,0.1189,0.0542,9.7821,0.0027,0.4982,-0.2646
255,1102,927,34.343,34.184,-0.0416,0.0615,9.8309,0.0563,0.2077,0.5574
260,1100,929,34.393,34.2,-0.0172,0.0152,9.8143,-0.1265,0.1939,0.0003
265,1102,927,34.39,34.313,0.0305,0.0262,9.8381,-0.2402,0.8174,-0.7232
270,1099,927,34.273,34.348,-0.049,-0.0286,9.8068,-0.089,0.0676,0.9774
275,1096,930,34.372,34.291,-0.0013,-0.0288,9.7899,0.7289,0.3675,-0.235
280,1094,926,34.37,34.234,-0.0137,-0.0011,9.8401,0.0881,-0.457,0.1467
285,1095,918,34.348,34.286,-0.0573,-0.0156,9.8303,0.0157,0.3247,-0.8096
290,1094,923,34.38,34.331,0.0606,-0.0032,9.7711,-0.1831,-0.1306,-0.2847
295,1094,918,34.406,34.222,0.077,-0.038,9.7811,-0.5193,-0.4853,0.3043
300,1090,915,34.257,34.366,0.0698,0.0216,9.8635,0.8005,1.1708,-0.5607
305,1085,913,34.346,34.238,0.0206,-0.0247,9.8636,-0.6106,-0.8223,-0.7647
310,1081,910,34.298,34.287,0.0277,-0.0968,9.8156,-0.5444,0.3451,-0.2934
315,1062,911,34.381,34.312,0.0551,-0.0443,9.7855,-0.9336,-0.1325,-0.2117
320,1065,904,34.387,34.308,0.1832,-0.0344,9.6718,0.4132,0.2533,-0.7752
325,1063,905,34.365,34.289,-0.0173,-0.0309,9.8243,0.4083,1.0688,-0.5596
330,1059,901,34.356,34.377,0.0642,-0.12,9.7785,0.4017,0.8815,-0.1825
335,1061,897,34.271,34.308,0.0183,0.0254,9.7765,-0.0548,-0.1291,-0.3175
340,1047,891,34.389,34.323,0.0357,0.0084,9.7091,-0.2735,-0.1326,-0.5753
345,1044,892,34.266,34.337,-0.072,0.0045,9.7778,-0.3761,0.1924,-0.5224
350,1039,894,34.325,34.295,0.0295,0.0644,9.8914,-0.5538,0.1677,0.3285
355,1031,886,34.3,34.304,-0.0574,-0.0032,9.8009,1.6069,0.1595,0.1509
360,1030,889,34.374,34.244,-0.0082,0.0366,9.8847,-0.6327,-0.0709,-0.2157
365,1024,888,34.367,34.218,0.0556,0.1069,9.8106,-0.0609,-0.2899,-0.948
370,1018,880,34.355,34.33,-0.0637,0.0433,9.7959,-0.6092,-0.2273,0.3906
375,1003,877,34.3,34.108,0.0182,0.0466,9.7752,0.5159,-0.3072,-0.2173
380,996,880,34.351,34.287,0.0027,-0.0489,9.8379,0.0211,-0.1281,-0.067
385,994,872,34.384,34.316,0.0234,-0.0049,9.7784,-0.7517,0.9882,0.5817
390,985,874,34.385,34.249,0.0254,0.0251,9.8106,-0.1117,-0.2,-0.4995
395,970,872,34.307,34.259,-0.0416,0.0243,9.8078,0.1687,0.3638,0.4695
400,965,870,34.349,34.315,0.0916,0.0617,9.817,0.2386,-0.4599,-0.0974
405,954,868,34.329,34.33,0.0413,0.0635,9.8262,-0.1433,-0.1169,0.5504
410,956,867,34.342,34.267,0.036,0.0607,9.8301,0.6075,0.6883,0.2115
415,935,862,34.333,34.281,-0.0144,-0.0168,9.9069,0.0326,0.2106,0.9378
420,931,861,34.311,34.267,-0.063,0.0889,9.7882,0.5867,-0.2528,0.7769
425,914,860,34.368,34.244,-0.0702,-0.0483,9.7777,-0.3066,-0.2959,-0.3053
430,906,857,34.26,34.342,0.0226,0.0082,9.8464,0.262,-0.1991,-0.7916
435,892,860,34.323,34.323,-0.0328,-0.0047,9.7997,1.0972,-0.1431,-0.0418
440,891,853,34.323,34.281,-0.0221,0.0193,9.7633,0.0697,-0.3664,0.2759
445,879,853,34.386,34.254,-0.031,-0.036,9.8749,-0.6945,-0.5244,-0.3424
450,877,854,34.433,34.244,-0.0106,0.0832,9.9106,0.3144,1.475,0.6423
455,846,851,34.377,34.276,0.0719,-0.0399,9.7297,0.5436,-0.2196,0.2177
460,841,850,34.459,34.28,0.1026,-0.0258,9.8229,-0.7377,0.1747,0.6796
465,834,844,34.271,34.211,0.0102,0.0171,9.7858,0.5698,-0.0176,-0.2491
470,826,845,34.223,34.282,-0.0423,-0.0528,9.7403,-0.1477,-0.3255,-0.37
475,819,840,34.359,34.287,0.0277,-0.0186,9.8426,-0.0018,0.217,-0.4774
480,810,839,34.39,34.243,-0.0187,0.0484,9.9032,0.1294,-0.7912,-0.802
485,806,833,34.321,34.324,0.0116,0.0217,9.8574,0.3173,0.0342,-0.1477
490,789,832,34.32,34.302,0.069,-0.0576,9.7808,0.2863,0.4994,0.0836
495,779,821,34.368,34.156,0.0411,0.1174,9.8343,0.3794,-0.6897,0.5306
500,775,822,34.328,34.349,-0.0112,0.0446,9.8091,0.0014,-0.0406,0.204
505,775,818,34.209,34.234,-0.0525,0.0268,9.8646,-0.0927,-0.4197,-0.0143
510,758,814,34.368,34.326,0.0118,0.0111,9.802,0.0963,0.4208,0.8191
515,759,807,34.381,34.214,-0.0366,0.0872,9.8558,-0.571,-0.012,0.0931
520,752,808,34.422,34.343,0.0013,-0.0501,9.7655,-0.4486,-0.7554,0.0345
525,762,795,34.362,34.255,0.0224,0.0363,9.7785,-1.0139,-0.248,-1.0768
530,753,794,34.347,34.242,0.0024,-0.0153,9.7727,0.8835,0.4769,-0.088
535,750,793,34.297,34.276,-0.0268,-0.0851,9.8255,0.1528,-0.3994,0.4201
540,749,780,34.352,34.268,0.0165,-0.0443,9.7062,0.043,-0.1896,-0.1828
545,752,778,34.399,34.349,0.0007,0.027,9.8185,0.2271,-0.2713,0.2788
550,757,771,34.276,34.36,-0.0655,0.0082,9.8614,0.0031,-0.1743,-0.4657
555,746,761,34.341,34.346,-0.0048,0.1713,9.854,-0.2097,0.2926,0.3471
560,755,758,34.35,34.206,-0.0149,-0.0885,9.8228,0.2373,0.529,0.0163
565,757,747,34.41,34.379,-0.0311,0.0382,9.8151,0.5941,-0.2603,-0.4049
570,772,741,34.306,34.294,0.0591,0.0046,9.8395,-0.4013,1.0787,-0.4693
575,769,733,34.349,34.218,0.0349,0.0351,9.8492,-0.4927,-0.5609,0.9532
580,772,732,34.349,34.306,-0.0128,-0.0478,9.7907,-0.5865,0.26,-0.3643
585,775,722,34.407,34.169,0.0208,0.0518,9.8785,-0.2723,0.597,0.1036
590,793,714,34.281,34.285,-0.0062,0.0267,9.7402,-0.2853,-1.2198,-0.1224
595,785,710,34.261,34.327,0.0127,-0.0334,9.8186,1.0667,0.1985,-0.9889
600,802,699,34.342,34.39,0.0324,0.0415,9.782,-0.8201,-0.2762,-0.3994
605,812,694,34.312,34.341,-0.0194,-0.0019,9.757,0.6726,0.3786,0.2242
610,821,688,34.43,34.299,-0.0245,-0.0119,9.8608,0.7597,-0.4247,0.5464
615,823,682,34.35,34.33,-0.0171,0.0024,9.8468,-0.1083,-0.0093,0.1323
620,847,675,34.292,34.261,0.0169,0.0336,9.7966,-0.6542,0.3073,-0.6701
625,849,671,34.347,34.17,0.0889,0.0494,9.8374,-0.0921,0.5157,-0.2277
630,855,668,34.326,34.305,0.0012,0.023,9.8389,0.6535,0.818,-0.0408
635,876,656,34.345,34.269,-0.0608,-0.0056,9.8302,0.2206,-0.4568,0.6571
640,893,657,34.312,34.404,-0.0633,0.0164,9.8342,0.6575,0.0447,0.3571
645,907,647,34.311,34.325,-0.0121,-0.0364,9.7583,0.4781,-0.6311,0.4319
650,918,643,34.245,34.294,0.071,0.0173,9.8992,-0.0724,-0.8648,-0.0326
655,927,636,34.371,34.28,0.0329,-0.0094,9.8603,0.1524,-1.0812,0.0532
660,947,639,34.258,34.301,-0.0709,0.0602,9.7691,-0.6299,0.8907,0.4286
665,951,637,34.278,34.24,0.03,0.0155,9.7427,-0.4736,0.9851,-0.2261
670,979,627,34.401,34.347,0.0617,0.0003,9.8063,-0.0606,0.7602,-0.2524
675,987,627,34.284,34.212,0.054,-0.0302,9.78,0.1983,-0.4027,0.094
680,997,627,34.294,34.355,0.0249,0.0151,9.8018,-0.7745,0.8094,-0.4649
685,1018,623,34.405,34.322,-0.1245,-0.015,9.8595,-0.153,-0.2119,0.6508
690,1030,623,34.378,34.311,0.0384,-0.0151,9.7811,0.1865,-0.0609,0.3865
695,1033,628,34.415,34.26,-0.0415,0.0035,9.921,-0.1355,0.262,0.4506
700,1056,631,34.383,34.361,0.0229,-0.0735,9.7687,0.1215,-0.122,-0.1295
705,1064,634,34.332,34.282,-0.0318,0.0876,9.8012,-0.7923,0.1576,-0.2737
710,1078,625,34.381,34.279,-0.0094,0.0222,9.8092,0.3639,-0.4946,-0.025
715,1096,636,34.357,34.422,0.0309,-0.1749,9.7607,0.9019,-0.0468,-0.0325
720,1098,638,34.305,34.154,0.0145,-0.0878,9.7598,-0.2003,0.7124,-1.19
725,1105,640,34.457,34.272,0.0836,0.0072,9.8065,0.6695,-0.0952,-0.1221
730,1119,647,34.345,34.218,0.0019,0.0313,9.9047,-0.2473,0.5901,0.6204
735,1126,655,34.311,34.288,-0.039,0.0342,9.8279,-0.1473,-0.207,0.3481
740,1139,651,34.352,34.228,-0.0507,0.0546,9.8387,0.0101,0.1051,0.1423
745,1150,660,34.359,34.336,0.0905,0.0581,9.8025,-0.1268,0.1379,0.6587
750,1158,666,34.35,34.342,0.0106,-0.0242,9.8406,0.4182,-0.1585,0.3527
755,1159,678,34.418,34.343,-0.0392,-0.0006,9.7236,-0.7439,0.0035,0.1243
760,1169,683,34.372,34.252,-0.0269,0.043,9.8301,-0.054,-0.005,0.4945
765,1167,692,34.355,34.247,0.0627,-0.0195,9.8193,0.5834,0.6538,-0.7671
770,1179,701,34.309,34.173,0.0457,0.0483,9.7807,0.6272,-0.115,0.0267
775,1175,709,34.344,34.227,-0.0442,-0.0186,9.841,0.2684,-0.1369,0.2247
780,1182,716,34.396,34.34,0.071,0.0433,9.7011,-0.4556,-0.267,-0.1289
785,1186,727,34.408,34.241,-0.0346,0.0603,9.8429,0.8981,-0.1157,0.9333
790,1185,732,34.357,34.212,0.0423,-0.0061,9.8111,-0.2726,0.2374,-0.3007
795,1192,751,34.399,34.276,0.0431,0.0069,9.8437,-0.1421,0.1797,0.1915
800,1197,756,34.441,34.336,0.0078,-0.0256,9.8377,0.0038,0.3396,0.2419
805,1190,766,34.407,34.315,0.1128,-0.0253,9.851,-0.4751,1.323,0.2185
810,1185,777,34.397,34.251,-0.0193,0.0762,9.8546,-0.1867,0.2144,0.2957
815,1182,783,34.259,34.338,0.0153,0.0599,9.7658,-1.2635,0.5346,0.3923
820,1190,798,34.367,34.265,0.0622,0.0108,9.7473,-0.9902,-0.1308,0.3764
825,1183,803,34.408,34.202,-0.0285,0.0623,9.7807,0.5858,0.5653,-0.6725
830,1186,808,34.378,34.256,0.0707,0.0261,9.8036,0.3232,-0.0578,-0.4527
835,1179,824,34.317,34.238,-0.0219,0.0009,9.7968,0.0888,-0.5107,0.406
840,1164,825,34.39,34.244,0.0729,0.0273,9.8339,-0.1297,-0.0714,0.1097
845,1171,840,34.362,34.337,-0.0272,0.0579,9.784,0.1936,0.737,0.6502
850,1164,843,34.354,34.293,-0.0291,0.0243,9.7637,-0.3778,0.0016,-0.1472
855,1165,854,34.367,34.31,-0.0273,0.0644,9.7769,0.7778,-0.2395,0.1736
860,1160,861,34.362,34.251,-0.0566,-0.0065,9.8443,0.53,-0.3029,-0.0462
865,1161,874,34.294,34.329,0.0558,-0.0337,9.7758,-0.1926,0.0836,0.0872
870,1156,877,34.368,34.317,-0.0636,-0.0337,9.824,0.0722,-0.4831,0.5056
875,1147,884,34.349,34.278,-0.018,0.0187,9.7517,0.4195,0.8488,-0.349
880,1148,891,34.385,34.238,0.0382,0.0324,9.8205,-0.3427,0.4662,0.136
885,1150,894,34.305,34.365,0.0086,-0.0087,9.8599,-0.1111,0.5363,-0.528
890,1135,900,34.349,34.262,0.0168,0.0626,9.8686,-0.9568,0.024,-0.3028
895,1140,906,34.433,34.31,0.0404,0.0474,9.8367,-0.3968,-0.1476,-0.8998
900,1137,908,34.378,34.228,0.0731,-0.0646,9.8355,0.3742,0.1021,-0.9549
905,1137,918,34.385,34.319,-0.0639,0.0622,9.7392,0.0576,-0.2375,-0.6312
910,1124,920,34.287,34.241,0.0115,0.0236,9.9051,0.3119,-0.4199,-0.0891
915,1124,918,34.306,34.287,-0.0123,-0.0468,9.8419,0.4026,-0.463,0.3277
920,1108,923,34.271,34.333,0.0231,-0.0565,9.8072,-0.3717,0.3665,0.1209
925,1120,924,34.338,34.225,0.0203,-0.0458,9.7997,0.5494,-0.7505,-0.3366
930,1119,925,34.288,34.295,-0.0153,0.0735,9.7999,0.0892,-0.2746,0.4904
935,1113,929,34.476,34.329,-0.0442,-0.01,9.7303,0.855,-0.3763,0.9109
940,1111,925,34.342,34.371,0.0458,-0.0192,9.8282,-0.218,0.95,0.3524
945,1108,931,34.416,34.337,-0.0536,0.083,9.7984,0.1933,-0.0872,-0.5267
950,1102,929,34.332,34.28,0.0266,-0.0506,9.7837,0.0865,-0.624,-0.3445
955,1102,928,34.375,34.31,-0.0527,-0.0973,9.7648,0.2969,0.756,0.6259
960,1101,927,34.332,34.287,0.0492,0.0263,9.8776,-0.2327,0.2632,-0.1555
965,1093,924,34.377,34.332,-0.0629,-0.0669,9.8438,0.5626,-0.0159,-0.1672
970,1084,926,34.269,34.3,0.0226,0.1427,9.8691,0.7433,0.2493,0.6015
975,1092,920,34.291,34.177,-0.0332,0.0735,9.7888,0.29,0.0463,-0.053
980,1076,921,34.32,34.309,0.0467,-0.0168,9.857,0.3453,-0.1123,-0.405
985,1084,919,34.342,34.297,0.041,0.0306,9.7665,-0.4944,0.908,-0.4327
990,1090,927,34.291,34.215,0.0088,0.0779,9.8163,0.3458,-0.2541,0.3708
995,1086,913,34.357,34.354,-0.0124,-0.0816,9.7138,0.2105,-0.3111,0.0971
1000,1072,909,34.287,34.32,0.0633,0.0867,9.7675,0.3157,0.4385,-0.0003
1004,1083,914,34.26,34.243,-0.0052,-0.0489,9.8814,0.4723,0.4453,0.019
1010,1068,903,34.354,34.258,0.0794,0.0562,9.8578,0.1311,0.866,-0.9651
1014,1066,907,34.298,34.273,0.0417,-0.0565,9.8114,0.1846,0.1641,-0.8571
1020,1068,905,34.375,34.383,-0.0154,-0.1055,9.8282,-0.0621,-0.3047,0.2264
1025,1059,904,34.303,34.252,0.066,-0.0202,9.7853,-0.1752,-0.5865,0.1386
1030,1055,896,34.304,34.328,-0.0427,-0.0112,9.8239,0.5265,-0.2264,0.0603
1035,1042,893,34.292,34.383,-0.0099,0.0134,9.7576,0.532,-0.3717,-0.3412
1040,1058,897,34.313,34.218,-0.0248,0.0023,9.8707,-0.1776,0.4765,-0.6791
1045,1041,893,34.391,34.322,-0.0068,-0.0712,9.851,-0.6157,-0.3703,-0.0992
1050,1040,889,34.38,34.324,-0.0152,0.0505,9.7596,-0.1844,-0.3248,0.325
1055,1031,886,34.315,34.268,-0.0076,-0.1017,9.8658,-0.7165,0.1173,-1.2093
1060,1018,880,34.412,34.256,-0.0199,0.0568,9.7905,-0.7379,0.446,0.3805
1065,1014,879,34.214,34.356,-0.0114,-0.0418,9.7851,0.2116,-0.27,0.2397
1070,1004,879,34.272,34.256,0.0688,0.0342,9.7917,0.2672,0.5537,0.0943
1075,1006,877,34.345,34.261,-0.0043,0.0001,9.8738,-0.2541,0.7586,-0.1389
1080,991,873,34.252,34.3,0.0087,0.0493,9.9121,0.4271,0.0806,0.3943
1085,988,874,34.306,34.221,-0.0377,0.0213,9.7237,-0.7101,0.6777,-0.4006
1090,974,874,34.441,34.222,-0.0323,0.0059,9.791,-0.4566,0.3096,0.0731
1095,962,870,34.262,34.245,-0.0336,-0.0177,9.8417,0.0809,-0.9641,-0.0678
1100,960,866,34.332,34.353,-0.0559,-0.0626,9.8132,-0.0155,0.0865,0.3945
1105,940,865,34.388,34.257,-0.0166,0.0086,9.8902,-0.0708,-0.589,0.0474
1110,946,863,34.405,34.315,0.031,-0.0796,9.7956,0.3454,-1.2518,0.5661
1115,926,862,34.383,34.284,-0.001,0.0189,9.8383,-0.3574,0.3828,0.5643
1120,921,866,34.317,34.35,-0.0735,0.0559,9.7722,0.0755,1.1071,0.4227
1125,907,858,34.378,34.245,-0.0676,-0.0191,9.7287,0.9004,0.1154,0.3058
1130,890,859,34.3,34.313,-0.0346,-0.0674,9.8189,0.4668,0.1326,0.2075
1135,890,857,34.347,34.259,0.0674,-0.0086,9.7937,-0.6792,0.4234,0.4735
1140,874,851,34.227,34.293,0.1025,-0.087,9.7439,0.0641,0.2775,0.5604
1145,869,854,34.329,34.227,0.0256,0.1014,9.8116,0.04,-0.09,0.635
1150,854,853,34.308,34.307,0.0189,0.007,9.7635,0.2243,-0.2789,-0.3484
1155,850,852,34.288,34.285,0.0923,-0.1184,9.7681,-0.4362,-0.0182,-0.1434
1160,835,845,34.339,34.304,0.0523,0.0001,9.7593,0.3601,0.3554,0.0534
1165,830,840,34.35,34.341,0.032,0.0492,9.7727,0.9151,0.4499,0.0785
1170,823,840,34.381,34.275,-0.0672,0.0597,9.824,-0.7869,-0.5137,-0.0443
1175,812,831,34.317,34.34,-0.0374,0.113,9.7487,0.3795,0.0429,-0.2678
1180,790,838,34.367,34.301,-0.0094,-0.0824,9.829,0.2759,-0.3877,0.6252
1185,801,826,34.429,34.278,-0.0309,-0.0301,9.7439,-0.5222,-0.5311,-0.6643
1190,791,829,34.38,34.233,0.0676,-0.0077,9.857,-0.3564,0.0507,-0.4594
1195,778,825,34.378,34.276,-0.0112,0.0111,9.7496,-0.2588,-0.611,-0.3615
1200,771,817,34.3,34.222,-0.0281,0.0322,9.7758,-0.2948,-0.1422,0.6646
1205,772,819,34.248,34.191,-0.0922,-0.0684,9.7032,0.1394,0.2,0.7658
1210,767,810,34.416,34.286,-0.0764,0.0303,9.8331,0.0188,-0.1582,-0.3611
1215,763,805,34.29,34.204,0.0237,-0.1084,9.9669,0.1353,0.507,-0.0955
1220,756,806,34.302,34.297,0.0148,0.0486,9.8795,-0.6683,0.0919,0.1823
1225,751,794,34.331,34.418,0.0878,-0.0999,9.8081,0.4646,-0.5395,-0.33
1230,747,786,34.357,34.255,-0.035,-0.0386,9.8747,0.2883,-0.069,-0.2847
1235,741,785,34.408,34.271,-0.0302,0.0696,9.8485,1.086,0.2641,0.3461
1240,755,780,34.366,34.304,-0.0135,0.0273,9.8098,-0.9699,0.6289,0.5732
1245,745,767,34.346,34.327,0.029,0.0151,9.8164,-0.0779,0.0453,0.7906
1250,749,760,34.257,34.372,-0.0376,0.0012,9.8344,-0.9939,0.319,0.1801
1255,762,757,34.289,34.324,0.1132,-0.0384,9.8766,-0.0781,0.5652,-0.0432
1260,758,753,34.404,34.293,-0.0384,0.1171,9.871,-0.1254,0.1479,0.649
1265,758,739,34.414,34.236,-0.109,0.0037,9.8504,-0.3891,0.1104,0.3838
1270,771,738,34.396,34.357,0.0061,-0.0062,9.8205,-0.2146,-0.468,0.3267
1275,774,731,34.321,34.347,0.0274,0.0765,9.8142,-0.6309,0.153,-0.8827
1280,765,726,34.367,34.289,0.0993,0.0743,9.8768,-0.7341,0.394,0.1925
1285,790,715,34.339,34.379,0.0672,-0.0328,9.783,-0.1249,0.4102,0.5157
1290,794,709,34.395,34.307,-0.0065,-0.0233,9.778,-0.0138,0.1456,-0.4386
1295,802,705,34.39,34.251,0.0122,-0.0919,9.7873,-0.6809,-0.1043,0.1105
1300,802,698,34.342,34.313,0.0399,0.0346,9.8867,-0.2149,-0.5162,-0.9128
1305,825,688,34.302,34.337,0.0364,0.069,9.8427,0.2268,0.0715,0.3354
1310,839,685,34.368,34.332,-0.0409,0.0156,9.9088,0.6362,0.1802,-0.0974
1315,849,675,34.29,34.335,0.0258,0.0188,9.8111,1.0804,0.3105,0.2554
1320,859,667,34.342,34.262,-0.003,0.0234,9.798,0.4724,0.1601,0.1264
1325,864,670,34.424,34.291,0.0072,0.0398,9.8053,-0.0332,-0.2406,0.1708
1330,879,655,34.361,34.338,0.0048,0.0833,9.7967,-0.1728,0.1196,-0.1798
1335,887,654,34.305,34.259,-0.0294,0.0167,9.8963,0.2296,-0.5841,0.364
1340,909,644,34.243,34.259,0.0844,-0.0134,9.737,-0.3981,0.3679,-0.3345
1345,927,641,34.326,34.266,-0.0037,-0.0223,9.7248,-0.2489,0.9607,-0.5977
1350,930,640,34.389,34.363,-0.0049,0.0742,9.7964,-0.0482,-0.2324,-0.0189
1355,948,633,34.391,34.394,0.0122,-0.0289,9.8202,-0.9385,-0.0248,0.1335
1360,967,635,34.378,34.193,0.0108,0.0196,9.7597,-0.1916,-0.5458,0.2783
1365,977,630,34.362,34.281,-0.0204,0.0041,9.7012,0.4797,0.5514,-0.2576
1370,985,628,34.338,34.255,0.0441,-0.0396,9.7895,0.405,-0.129,0.4435
1375,1004,623,34.427,34.323,0.0015,-0.0579,9.894,-0.615,-0.0161,-0.2717
1380,1021,627,34.408,34.291,-0.042,0.0221,9.8067,-0.2979,-0.5321,-0.4966
1385,1031,619,34.405,34.273,-0.0701,-0.0279,9.8666,0.37,0.2011,0.1055
1390,1042,620,34.44,34.242,0.0044,0.0697,9.7654,0.3207,-1.0063,0.1169
1395,1060,620,34.376,34.266,-0.0681,0.0303,9.8421,-0.9533,-0.329,-0.1744
1400,1072,626,34.278,34.288,0.0763,-0.0741,9.8899,0.1644,-0.3605,0.0268
1405,1078,631,34.398,34.339,-0.0175,0.0292,9.7906,1.1778,-0.0571,-0.0042
1410,1085,638,34.38,34.29,-0.0312,-0.0067,9.819,-0.2017,-0.6201,-1.2909
1415,1100,636,34.358,34.33,0.0201,0.0613,9.7753,-0.2351,-0.2398,-0.2859
1420,1118,643,34.376,34.302,0.0294,0.0101,9.8165,-0.629,0.762,-0.7607
1425,1126,643,34.241,34.355,-0.0751,0.0466,9.7465,0.7669,-0.7874,-0.4018
1430,1131,652,34.387,34.326,-0.0134,0.023,9.7567,-0.2828,-0.5723,0.1122
1435,1146,659,34.361,34.354,0.0702,-0.0376,9.7902,-0.08,-0.0307,0.1332
1440,1150,656,34.301,34.31,0.0049,-0.0209,9.897,0.971,-0.7178,0.7273
1445,1146,668,34.388,34.259,-0.0678,0.0048,9.7358,-0.1759,0.7783,0.1975
1450,1161,670,34.436,34.346,0.0166,-0.0366,9.776,-0.3312,-0.1,0.0055
1455,1169,689,34.295,34.256,0.0612,0.0288,9.8237,-0.1866,0.6003,-0.0656
1460,1172,687,34.393,34.271,-0.0439,0.1234,9.8233,0.2941,-0.3223,0.8463
1465,1182,702,34.382,34.326,0.0816,0.1603,9.802,-0.7731,-0.4573,-0.13
1470,1179,709,34.381,34.353,-0.0068,-0.0072,9.8013,-0.5358,0.1972,0.6824
1475,1185,717,34.457,34.234,0.0142,-0.0774,9.8359,-1.1909,-1.2674,-0.5661
1480,1190,728,34.324,34.253,-0.0201,0.0109,9.7997,0.2977,0.4714,0.0459
1485,1193,736,34.361,34.233,-0.0282,0.0601,9.8168,0.3032,-0.0572,-1.2247
1490,1184,747,34.342,34.27,0.0598,0.0113,9.7859,0.2979,-0.308,0.2844
1495,1191,756,34.415,34.341,-0.007,0.0342,9.93,0.6181,-0.0189,0.2471
1500,1188,768,34.339,34.334,-0.0703,-0.039,9.8541,0.5739,0.4735,-0.9685
1505,1184,776,34.354,34.251,0.0707,0.0293,9.828,0.207,-0.3106,0.4363
1510,1181,783,34.318,34.23,-0.0013,-0.0393,9.7521,-0.7202,0.0591,-0.1956
1515,1176,792,34.41,34.318,0.0008,0.0503,9.7788,-0.4141,0.4184,0.0718
1520,1184,798,34.399,34.292,-0.0768,-0.0168,9.8583,-0.3823,-0.9698,-0.5289
1525,1174,807,34.406,34.349,-0.034,-0.0503,9.8183,0.1633,-0.4952,0.0344
1530,1184,829,34.351,34.282,-0.0009,-0.0442,9.8337,0.4729,0.483,-0.2181
1535,1171,833,34.345,34.211,-0.0138,-0.0396,9.848,-0.6744,0.3173,0.2583
1540,1169,834,34.35,34.308,0.034,0.0153,9.8683,0.3538,-1.2115,-0.2127
1545,1177,851,34.334,34.259,0.0101,-0.008,9.9054,-0.3929,0.7409,-0.3117
1550,1158,856,34.285,34.318,-0.0787,0.0462,9.7193,-0.1123,0.4504,-0.0195
1555,1163,862,34.328,34.258,0.0296,-0.0516,9.781,-0.6163,-0.6723,-0.3428
1560,1150,867,34.343,34.261,-0.0176,-0.0229,9.8287,-0.6757,-0.0108,-0.2254
1565,1161,875,34.38,34.208,-0.0422,-0.0689,9.8651,-0.4052,-1.0186,0.2755
1570,1153,881,34.31,34.338,-0.0873,-0.0104,9.8105,-0.2094,-0.1638,0.2448
1575,1146,889,34.369,34.242,0.0101,0.0343,9.8538,-0.5395,-0.1309,0.2434
1580,1134,896,34.346,34.316,-0.0738,0.0318,9.7793,-0.7277,0.2715,0.7211
1585,1135,898,34.33,34.215,0.0264,0.0388,9.754,-0.5534,0.4743,0.2699
1590,1141,913,34.313,34.27,-0.1235,-0.0167,9.8669,0.322,-0.3373,-0.2325
1595,1132,906,34.266,34.262,-0.0125,-0.0133,9.7953,-0.0831,-0.5989,-0.1168
1600,1130,915,34.462,34.258,0.0244,0.0134,9.7456,0.6202,-0.1536,-0.0296
1605,1124,924,34.475,34.357,0.05,-0.011,9.7932,-0.1926,-1.0317,-0.5949
1610,1128,915,34.277,34.315,-0.0663,-0.0148,9.7674,-0.0907,-0.3506,-0.1062
1615,1123,928,34.325,34.356,-0.0177,-0.0051,9.8346,0.6639,-0.141,-0.2009
1620,1112,924,34.361,34.266,0.0457,0.0253,9.7914,-0.6644,0.0321,-0.2117
1625,1121,923,34.45,34.315,-0.0259,-0.052,9.7251,0.4763,0.1609,0.1928
1630,1112,924,34.376,34.296,-0.0211,-0.023,9.8718,0.273,-0.0667,-0.481
1635,1111,934,34.388,34.398,0.0768,0.0552,9.7486,0.7228,0.0933,0.2933
1640,1103,927,34.286,34.329,0.0732,0.0105,9.7772,0.0902,0.4953,0.4664
1645,1102,932,34.474,34.345,-0.0416,-0.0485,9.7691,0.1875,-0.0713,0.0131
1650,1106,927,34.437,34.291,-0.0091,-0.0762,9.7669,0.3882,0.339,0.1129
1655,1093,931,34.34,34.265,0.0363,-0.0302,9.8092,0.7355,-0.1282,0.453
1660,1090,925,34.427,34.267,0.024,0.0064,9.8546,0.6336,-0.4264,-0.172
1665,1087,925,34.197,34.297,-0.1022,-0.0335,9.796,0.4333,0.676,-0.3236
1670,1087,926,34.471,34.305,-0.0119,0.1134,9.8113,0.1759,0.6579,-0.6247
1675,1095,925,34.351,34.3,0.0356,-0.0548,9.8529,0.3159,0.0965,-0.0095
1680,1095,920,34.307,34.372,-0.0567,-0.0105,9.7368,-0.2485,0.5382,-0.4281
1685,1086,916,34.354,34.271,-0.0384,0.0228,9.8597,0.7145,0.1682,0.0711
1690,1085,917,34.475,34.382,0.0547,-0.0429,9.7997,-0.2234,-0.6494,-0.1134
1695,1082,917,34.308,34.339,0.0155,0.0271,9.8358,-0.0303,0.0228,-0.2895
1700,1073,912,34.348,34.411,0.0059,0.0346,9.8395,-0.7478,0.3772,0.0853
1705,1071,907,34.319,34.313,0.0028,-0.0599,9.7537,-0.1795,-0.0356,-0.2739
1710,1058,906,34.372,34.381,-0.001,0.1201,9.7634,-0.1424,0.4006,0.3623
1715,1057,902,34.334,34.366,0.0672,-0.0587,9.7891,0.2829,-0.5377,-0.5401
1720,1051,910,34.427,34.343,-0.0393,-0.0236,9.7867,0.1461,0.2556,0.7304
1725,1055,897,34.394,34.256,-0.0386,0.0131,9.732,0.0778,-0.1086,-0.2184
1730,1046,899,34.356,34.194,-0.0527,-0.0547,9.8217,0.1677,0.6893,-0.3286
1735,1042,895,34.265,34.237,0.0114,0.0181,9.7167,-0.4718,0.0556,-0.3295
1740,1042,896,34.405,34.369,0.0497,-0.057,9.677,0.3109,-0.3763,0.7054
1745,1037,889,34.314,34.208,-0.0938,0.036,9.7809,0.0125,0.5392,-0.2872
1750,1024,885,34.336,34.294,0.0075,0.0137,9.7817,0.7597,-0.5213,0.267
1755,1019,887,34.431,34.293,0.0594,-0.0233,9.8836,0.2393,0.4106,0.1583
1760,1010,880,34.52,34.255,0.0162,-0.0691,9.7736,-0.5203,-0.2,0.5973
1765,1006,882,34.319,34.29,0.0712,0.0012,9.7641,0.6676,-0.8741,1.2466
1770,993,880,34.386,34.336,-0.0161,-0.0777,9.8094,1.306,0.3371,-0.0889
1775,988,877,34.396,34.317,-0.078,0.019,9.772,0.5233,0.0169,-0.2785
1780,979,877,34.428,34.263,-0.0429,0.0917,9.7126,-0.1269,-0.0944,0.0764
1785,979,871,34.321,34.321,-0.0048,0.0152,9.7888,0.2274,0.6947,-0.1399
1790,962,868,34.379,34.371,-0.0109,-0.0008,9.8361,-0.2362,-0.0224,-0.5777
1795,951,866,34.351,34.306,-0.0234,0.0598,9.8282,-0.5428,-0.2863,-0.7073
1800,942,867,34.284,34.425,0.0244,-0.1699,9.802,-0.3104,0.3202,-0.1029
1805,944,866,34.401,34.261,-0.0552,0.0369,9.8136,-1.2214,0.1964,-0.3894
1810,926,868,34.373,34.366,0.0127,0.0077,9.7557,0.078,0.9681,0.2957
1815,931,861,34.4,34.336,0.0309,-0.0889,9.8168,0.1463,0.4195,-0.6928
1820,904,860,34.342,34.334,0.0119,-0.0123,9.8174,0.0742,-0.4034,0.0574
1825,896,855,34.354,34.274,0.0145,0.0764,9.7919,-0.2013,0.6091,0.328
1830,882,856,34.315,34.257,-0.0561,-0.0846,9.7513,-0.031,-0.1592,0.5595
1835,869,853,34.409,34.344,0.0327,0.0665,9.7663,-0.0137,0.4389,0.0383
1840,866,854,34.3,34.314,-0.0716,-0.0951,9.7816,0.87,-0.1142,-0.0601
1845,856,843,34.374,34.36,-0.0766,0.0439,9.8527,0.4766,-0.6276,0.434
1850,850,851,34.304,34.263,-0.0356,0.0538,9.738,-0.3752,0.7348,0.2168
1855,845,848,34.434,34.333,-0.0248,-0.0497,9.7656,0.1873,-0.4693,0.006
1860,826,845,34.252,34.321,0.1015,-0.0188,9.7928,-0.5642,0.6687,0.4076
1865,820,838,34.35,34.155,-0.0256,0.0781,9.76,-0.1834,-0.0601,0.8543
1870,806,837,34.417,34.268,-0.0043,0.0668,9.7596,0.6741,0.2335,-0.2916
1875,810,834,34.312,34.377,0.0008,-0.0214,9.7509,1.1272,-0.3093,0.6434
1880,792,833,34.396,34.278,-0.0372,-0.1112,9.8425,-1.1106,-0.4993,-0.1254
1885,781,830,34.415,34.278,-0.015,0.0284,9.8101,-0.1323,0.7043,-0.9028
1890,784,818,34.384,34.311,-0.0232,0.0026,9.8242,-1.018,0.4094,0.4708
1895,772,817,34.421,34.28,-0.0281,-0.0208,9.7997,-0.0931,0.126,0.053
1900,767,813,34.333,34.248,0.0735,0.0905,9.7944,0.4378,-0.9938,-0.037
1905,759,810,34.4,34.243,-0.0783,0.0169,9.8242,-0.6245,-0.1613,-0.239
1910,750,809,34.383,34.282,-0.0533,-0.0772,9.7821,0.1702,-0.0771,1.0604
1915,756,797,34.332,34.359,-0.0068,-0.0523,9.7962,-0.0544,-0.6542,0.1829
1920,760,791,34.361,34.316,-0.0245,0.0546,9.7995,0.2681,0.2977,-0.4327
1925,754,786,34.402,34.321,-0.0424,0.0197,9.8601,-0.1468,0.6369,-0.2488
1930,747,779,34.372,34.402,0.0594,-0.08,9.7756,0.3473,-0.3165,0.4824
1935,754,776,34.339,34.259,-0.1079,0.0076,9.8155,-0.1514,-0.5316,0.4222
1940,748,771,34.373,34.346,-0.076,0.0077,9.8335,-0.855,-0.7812,0.5036
1945,758,760,34.277,34.343,-0.0394,-0.0644,9.8134,0.3534,-0.1058,-0.4191
1950,754,758,34.366,34.34,0.0007,0.0851,9.8562,0.757,-0.1555,-0.0794
1955,757,750,34.392,34.225,-0.02,0.0209,9.8416,-0.3532,0.0457,-0.2149
1960,755,747,34.385,34.232,0.0624,0.0186,9.8207,0.8347,-0.2302,-0.0861
1965,766,736,34.41,34.232,-0.0245,0.0626,9.8086,0.1789,0.5801,0.2465
1970,767,731,34.422,34.26,0.1019,-0.019,9.8171,0.4041,-0.6927,-0.0132
1975,783,723,34.258,34.262,-0.002,-0.0608,9.7872,0.5989,-0.7045,0.2752
1980,784,715,34.325,34.3,0.0199,0.0154,9.7849,-0.1633,-0.272,0.5701
1985,792,708,34.419,34.302,0.0187,-0.0444,9.7974,0.7937,0.4532,0.6072
1990,806,701,34.305,34.283,0.0344,-0.1126,9.8913,-0.4545,0.5661,0.1515
1995,809,695,34.402,34.308,0.021,-0.0536,9.8259,0.3571,0.0673,-0.7432
2000,809,683,34.398,34.389,0.0417,-0.0604,9.8079,-0.2479,-0.0356,0.1158
2005,831,684,34.374,34.23,-0.0259,0.0592,9.8251,-0.1144,-0.8446,0.2226
2009,845,674,34.343,34.291,-0.0344,-0.0032,9.7536,-0.4083,-0.0147,-0.2328
2015,853,662,34.381,34.287,-0.0696,-0.0706,9.7897,0.3708,0.6952,0.4222
2020,865,661,34.404,34.328,-0.0842,-0.1228,9.8869,-1.1149,0.0747,-0.3582
2025,885,659,34.298,34.323,0.0345,-0.0751,9.769,-0.133,-0.058,-0.7187
2029,896,656,34.388,34.278,-0.0328,0.0432,9.8943,-0.7652,-0.1944,-0.0598
2035,903,645,34.366,34.261,-0.0359,0.0405,9.7494,0.2852,0.8313,-0.5186
2040,914,642,34.379,34.32,-0.0099,0.0542,9.8192,0.202,-0.7959,0.8834
2045,934,638,34.348,34.357,-0.0888,0.0212,9.7009,-0.183,0.27,0.0584
2050,958,634,34.409,34.295,0.0153,0.008,9.8291,0.2652,-0.0813,-0.4407
2055,958,634,34.231,34.311,0.0592,0.0345,9.7218,-0.1432,-0.5899,-0.0484
2060,980,636,34.341,34.258,0.0339,-0.0246,9.7805,0.4587,0.0644,0.9043
2065,993,626,34.339,34.281,-0.0067,-0.0236,9.8145,-0.2508,-0.4181,1.0282
2070,1000,631,34.296,34.326,0.0564,0.0226,9.8626,-0.7713,0.0093,-0.5574
2075,1013,627,34.31,34.406,0.0265,0.0075,9.8215,0.4297,0.1473,-0.1572
2080,1034,622,34.363,34.385,0.0628,-0.0113,9.7286,0.0819,0.6695,-0.138
2085,1040,624,34.379,34.302,0.0524,-0.0758,9.7581,-0.8796,-0.3916,0.8938
2090,1054,627,34.345,34.371,0.0023,0.0084,9.8714,-0.4409,0.1178,-0.2918
2095,1065,631,34.355,34.312,0.0112,-0.0235,9.7606,-0.4477,-0.3631,0.2527
2100,1071,632,34.366,34.347,-0.0401,-0.066,9.8427,-0.6421,0.1198,0.3035
2105,1093,635,34.33,34.32,0.0455,0.0747,9.7794,-0.1422,0.2976,-0.0346
2110,1103,636,34.349,34.331,-0.0178,0.0791,9.7528,-0.6366,-0.1862,-1.5127
2115,1115,636,34.306,34.375,-0.0313,-0.0731,9.8285,0.2888,-0.1194,0.3498
2120,1138,650,34.305,34.304,-0.0303,-0.0339,9.802,0.574,-0.6158,-1.1327
2125,1132,648,34.235,34.321,0.0195,0.0142,9.891,1.2428,-1.1128,-0.1455
2130,1135,655,34.331,34.345,0.0594,-0.057,9.7528,-0.1687,-0.7482,-1.015
2135,1157,664,34.334,34.254,-0.0088,-0.0394,9.8263,0.0406,-0.1454,-0.5031
2140,1159,668,34.395,34.252,-0.0186,0.0267,9.8601,-0.3271,-0.3207,-0.0242
2145,1162,671,34.465,34.309,-0.0419,0.0504,9.8251,0.0442,0.3975,0.607
2150,1161,684,34.445,34.341,-0.042,0.0128,9.7815,-0.6399,-0.0379,0.619
2155,1174,693,34.373,34.313,-0.0432,0.0307,9.751,0.4642,-0.3787,0.8326
2160,1156,701,34.319,34.311,0.0104,-0.0793,9.7538,0.0905,-0.1871,0.6396
2165,1182,713,34.386,34.293,-0.1012,0.0204,9.8004,0.1998,-0.3726,-0.0572
2170,1175,713,34.341,34.274,-0.0314,-0.0388,9.8502,-0.2194,0.4319,-0.1901
2175,1184,731,34.366,34.291,-0.0178,-0.0616,9.7431,-0.0319,0.0812,-0.084
2180,1191,739,34.295,34.339,0.0094,-0.0481,9.8195,0.3051,0.6838,-0.4464
2185,1193,743,34.298,34.283,-0.0118,0.0371,9.8107,-0.2787,0.9359,0.8576
2190,1191,757,34.303,34.221,-0.0355,0.068,9.7537,0.311,-0.2796,-0.7627
2195,1187,765,34.369,34.284,-0.0199,-0.0261,9.7772,0.1241,-0.1543,0.2516
2200,1182,774,34.384,34.288,-0.1504,0.0578,9.8692,0.737,-0.0509,0.1915
2205,1179,780,34.313,34.276,-0.032,0.0836,9.8646,-0.3062,-0.6978,-0.2763
2210,1189,790,34.391,34.302,0.0252,-0.0013,9.8222,-0.0391,-0.352,-0.6669
2215,1181,802,34.405,34.333,0.001,0.0076,9.7785,-0.7376,0.5023,-0.5368
2220,1187,815,34.332,34.291,-0.0939,-0.0153,9.7534,-0.1543,-0.1279,-0.2499
2225,1180,821,34.412,34.297,0.0566,-0.0128,9.8534,0.4886,0.1319,-0.6942
2230,1185,836,34.348,34.3,-0.0481,0.1067,9.7529,-0.2556,0.1628,0.504
2235,1170,834,34.316,34.323,-0.002,-0.0082,9.8769,0.496,0.4507,0.4571
2240,1161,846,34.333,34.229,-0.0407,0.0538,9.7749,0.3126,-0.194,0.2241
2245,1170,854,34.435,34.272,0.0331,-0.1006,9.7683,0.3539,0.6791,0.3811
2250,1156,864,34.303,34.313,-0.0619,-0.0514,9.8331,0.4706,-0.3517,1.1446
2255,1149,868,34.319,34.302,0.0536,-0.0295,9.7989,0.6399,-0.0691,-0.1593
2260,1148,879,34.384,34.304,0.0013,0.0594,9.8791,0.377,0.2378,0.2061
2265,1150,888,34.387,34.372,-0.0808,0.0287,9.8217,-0.2738,-0.1933,-0.2766
2270,1152,895,34.387,34.363,-0.0163,0.0595,9.8054,0.0512,-0.1105,-0.0566
2275,1147,897,34.333,34.324,-0.001,0.0383,9.7839,-0.1815,-0.2183,0.0725
2280,1128,899,34.404,34.317,-0.026,-0.0513,9.9053,0.9631,0.2796,0.4355
2285,1139,911,34.441,34.214,0.0055,0.0921,9.8467,0.5449,-0.1592,0.4516
2290,1129,906,34.31,34.317,0.0195,0.0396,9.7487,0.2301,0.2579,-0.3212
2295,1133,916,34.416,34.249,0.0519,0.0012,9.7505,-0.1956,-1.0304,1.0507
2300,1131,920,34.363,34.271,-0.0308,0.0028,9.7633,0.8022,-0.4918,-0.5627
2305,1120,920,34.379,34.266,0.0313,-0.0139,9.8104,-0.1201,-0.7092,-0.4294
2310,1132,920,34.348,34.328,0.1268,0.1196,9.8571,0.3017,-0.1817,0.154
2315,1118,925,34.372,34.255,-0.019,-0.0017,9.8571,-0.6169,0.182,-0.0306
2320,1114,924,34.324,34.302,0.0365,-0.01,9.8505,0.4616,0.4238,0.2713
2325,1105,937,34.371,34.365,0.0445,0.0443,9.8617,0.55,-0.0666,0.777
2330,1103,923,34.355,34.303,0.0769,0.0478,9.7548,0.7159,0.4761,-0.5617
2335,1103,930,34.31,34.204,-0.0685,0.0015,9.8804,-0.204,0.077,-0.6258
2340,1097,929,34.36,34.318,0.0159,0.0188,9.7831,0.1477,0.7517,-0.2412
2345,1102,927,34.429,34.27,-0.0185,0.0106,9.9108,-0.3426,-0.5607,0.6495
2350,1101,926,34.458,34.314,0.036,0.115,9.8447,-0.5794,-0.0791,0.6097
2355,1099,928,34.352,34.308,-0.0196,-0.0189,9.7873,0.9691,0.77,0.3315
2360,1094,927,34.358,34.3,-0.0522,0.0514,9.8405,-0.4776,0.0513,-0.1901
2365,1087,927,34.415,34.277,0.0526,-0.0129,9.8018,0.0361,-0.5193,-0.5535
2370,1092,923,34.371,34.249,0.0556,-0.0692,9.753,0.9938,0.4463,-0.7865
2375,1081,922,34.392,34.222,-0.039,0.0023,9.7724,0.3097,0.9674,-1.3555
2380,1089,919,34.363,34.241,-0.0508,0.0158,9.7866,0.1169,0.451,0.2487
2385,1076,920,34.32,34.237,0.0575,-0.0787,9.8042,0.1184,-0.4244,-0.4398
2390,1077,917,34.293,34.29,0.016,0.0206,9.8372,0.079,-0.1811,0.4274
2395,1075,911,34.361,34.338,0.0302,0.0502,9.7987,0.4817,0.6295,-0.4178
2400,1068,909,34.301,34.309,-0.0676,0.0298,9.8013,0.2523,0.7787,0.3607
2405,1064,910,34.368,34.344,0.0122,0.051,9.8212,0.7178,-1.0094,-0.6368
2410,1059,904,34.314,34.323,0.001,-0.079,9.8575,-0.2285,-0.4172,-0.1109
2415,1047,905,34.309,34.267,-0.0447,-0.0058,9.7857,-0.0821,0.6398,-0.1322
2420,1054,892,34.387,34.246,-0.07,-0.043,9.8855,-0.1768,-0.29,0.5541
2425,1055,894,34.362,34.356,0.0351,-0.0076,9.879,-0.1841,0.4221,-0.095
2430,1051,891,34.351,34.369,0.0361,0.0475,9.9286,0.6502,-0.1021,0.2507
2435,1035,891,34.317,34.283,0.053,-0.0446,9.7546,-0.3617,0.0337,-0.2455
2440,1035,886,34.354,34.309,0.0323,-0.0128,9.8713,0.5125,-1.4182,-0.4512
2445,1031,890,34.382,34.332,-0.009,-0.0191,9.8071,0.112,-0.035,-0.7444
2450,1020,885,34.396,34.349,0.0322,0.019,9.74,-0.3203,-0.7408,0.2415
2455,1015,884,34.439,34.287,0.0681,-0.0534,9.8313,-0.2393,0.4181,-0.0042
2460,1013,875,34.462,34.253,-0.0063,-0.0254,9.8688,-0.554,0.8789,-0.9252
2465,998,880,34.409,34.344,-0.0517,-0.0311,9.839,0.6276,0.1596,0.0861
2470,990,885,34.396,34.289,-0.0154,-0.0326,9.8249,-0.2314,0.302,0.6497
2475,993,871,34.478,34.331,-0.0731,-0.0179,9.8612,-0.0237,0.1937,0.2996
2480,976,872,34.33,34.316,-0.0376,0.028,9.9098,0.0051,0.3233,0.3196
2485,969,872,34.382,34.405,0.0064,-0.0542,9.7711,-0.5175,0.7288,-0.3639
2490,950,871,34.342,34.233,-0.0286,0.0005,9.7692,0.1762,-0.032,0.0749
2495,946,870,34.442,34.454,-0.0473,-0.0115,9.8014,0.3451,-0.0077,-0.2997
2500,933,866,34.342,34.302,-0.0183,0.0299,9.7883,-0.6346,-0.4584,0.1726
2505,931,861,34.318,34.342,0.1034,-0.0046,9.7638,0.2771,-0.5444,0.7734
2510,921,863,34.39,34.279,-0.091,-0.0081,9.8388,-0.1914,-0.3403,0.8431
2515,912,861,34.429,34.331,0.0031,0.0493,9.8486,0.2829,-0.0922,0.7682
2520,902,857,34.416,34.273,0.0737,0.0705,9.869,-0.1616,0.3305,0.5217
2525,884,857,34.379,34.342,0.0369,0.0438,9.842,-0.0209,0.3234,-0.4602
2530,872,851,34.377,34.302,0.0085,-0.0139,9.7666,0.3652,0.7187,0.3196
2535,873,851,34.281,34.321,0.0482,-0.0027,9.858,0.0181,0.8497,-0.6389
2540,852,851,34.446,34.35,-0.0356,0.0432,9.8436,0.9792,0.5205,0.2275
2545,850,850,34.342,34.245,0.0983,-0.0305,9.8082,-0.7444,0.0431,-0.7492
2550,841,840,34.374,34.334,0.0681,0.088,9.8144,0.3223,-0.2249,0.0433
2555,829,844,34.28,34.349,0.0075,0.0496,9.7775,0.0717,0.4904,-0.2291
2560,819,842,34.356,34.307,-0.0637,0.0237,9.8226,0.5697,-0.3575,-0.2178
2565,814,837,34.396,34.256,0.0058,0.0123,9.7394,-0.4224,-0.3822,0.4088
2570,802,835,34.326,34.279,-0.0129,-0.0343,9.7536,-0.3162,-0.2023,0.7502
2575,785,829,34.347,34.338,0.0842,0.0177,9.7901,-0.3122,-0.5863,-0.1366
2580,794,830,34.427,34.26,0.0741,0.0189,9.7869,0.7932,0.0307,0.8385
2585,776,820,34.419,34.367,0.0044,-0.0049,9.8131,0.3662,0.2989,0.6494
2590,769,818,34.412,34.245,-0.0043,0.0946,9.8373,0.0608,0.4518,-0.5031
2595,767,812,34.261,34.263,0.0963,-0.0089,9.8456,-0.6396,-0.0105,-0.3968
2600,761,808,34.421,34.253,0.0711,0.0154,9.873,0.0254,1.0848,0.1313
2605,760,803,34.398,34.414,0.1246,0.0912,9.8815,-0.0415,-0.338,-1.0555
2610,767,802,34.355,34.296,0.0199,-0.0441,9.836,-0.3537,0.7429,0.1192
2615,748,792,34.369,34.28,-0.0621,0.0436,9.8262,-0.5477,-0.3328,-0.2857
2620,745,795,34.406,34.244,0.022,-0.0773,9.7523,-0.8078,-0.8303,0.6123
2625,745,783,34.316,34.296,0.0071,0.0108,9.8513,1.3885,0.6707,-0.0654
2630,756,777,34.315,34.376,-0.0184,0.0336,9.8419,-0.2145,-0.4394,-0.2101
2635,743,775,34.41,34.349,0.0165,0.0472,9.8759,-0.3908,0.1298,0.3463
2640,739,764,34.423,34.29,-0.0046,-0.0057,9.8623,0.7333,0.3496,0.3343
2645,750,756,34.385,34.363,0.0137,-0.0211,9.8523,0.1728,0.2008,0.8789
2650,740,757,34.347,34.252,0.0705,-0.004,9.8664,0.3049,-0.8457,-0.2506
2655,748,739,34.368,34.266,-0.0672,-0.036,9.909,0.0887,0.0686,0.1028
2660,766,732,34.394,34.392,0.021,0.0487,9.9004,-0.2499,-0.1553,0.4854
2665,769,736,34.353,34.323,-0.1149,-0.0662,9.8858,0.0876,-0.0489,0.3992
2670,780,722,34.316,34.288,-0.0429,-0.0666,9.7995,-0.1174,-0.0261,-0.2463
2675,783,715,34.357,34.376,0.0253,-0.1087,9.8015,0.0077,-0.3587,-0.0819
2680,792,707,34.417,34.262,0.0373,0.0385,9.8255,0.2302,-0.1984,-0.1701
2685,799,701,34.449,34.285,0.09,0.0066,9.8746,0.4166,0.2071,1.0769
2690,812,695,34.329,34.329,0.1604,-0.0798,9.8343,0.4051,0.0838,-0.3703
2695,822,687,34.393,34.293,-0.0341,-0.0542,9.8074,-0.3789,0.5809,0.0274
2700,842,679,34.324,34.248,-0.0238,-0.0215,9.8271,0.2332,-0.0065,-0.7293
2705,836,676,34.369,34.267,-0.0675,-0.0388,9.9177,-0.0366,-0.2647,0.1161
2710,857,665,34.306,34.249,0.0225,-0.0388,9.7996,-0.2223,-0.2054,-0.2833
2715,864,664,34.419,34.414,-0.0081,0.028,9.8638,0.0003,0.024,0.3032
2720,882,660,34.41,34.369,0.0299,0.054,9.9056,0.5918,-0.1176,-0.3671
2725,887,656,34.397,34.305,-0.0326,0.0432,9.877,-0.2665,-0.2162,0.4788
2730,914,644,34.393,34.337,-0.0064,-0.1306,9.737,-1.4262,0.5074,-0.3481
2735,919,642,34.404,34.325,-0.0626,-0.0286,9.9409,-0.5252,0.1569,-0.3976
2740,931,641,34.305,34.296,-0.0719,0.0338,9.8301,0.3667,-0.6602,0.1807
2745,952,638,34.344,34.446,0.084,0.04,9.8382,-0.8852,-0.1609,-0.4278
2750,957,630,34.392,34.245,-0.0001,-0.0832,9.7878,-0.4176,-0.7613,0.6285
2755,969,630,34.295,34.327,-0.0729,0.0478,9.7728,-0.2333,-0.4284,0.4928
2760,991,626,34.313,34.365,-0.0404,0.036,9.8348,0.1264,0.2102,0.245
2765,1004,622,34.357,34.318,-0.0375,-0.029,9.8373,-0.1095,-0.3096,-0.5991
2770,1017,629,34.349,34.335,-0.05,0.0385,9.9149,0.4591,-0.1249,0.0478
2775,1032,623,34.4,34.324,-0.043,0.0709,9.8507,-0.3036,0.0761,-0.2779
2780,1039,625,34.354,34.351,0.0068,-0.022,9.7281,-0.0324,0.0475,0.358
2785,1059,630,34.448,34.275,0.0241,0.0588,9.6569,0.1338,0.199,0.1789
2790,1061,632,34.452,34.35,-0.058,-0.0065,9.8706,-0.6523,-0.8074,-0.0831
2795,1074,629,34.329,34.371,-0.0054,-0.0041,9.7156,0.3965,0.4005,0.6474
2800,1100,631,34.346,34.242,0.0174,0.0593,9.8417,-0.3165,-0.1931,0.8352
2805,1104,639,34.392,34.228,-0.0212,0.0135,9.8224,-0.3073,-0.8106,0.9036
2810,1110,640,34.391,34.343,-0.0125,0.0371,9.7882,-0.1672,-0.1554,0.8276
2815,1126,644,34.42,34.305,-0.0039,-0.0111,9.7673,-0.5611,-0.6329,-0.7179
2820,1131,656,34.454,34.392,-0.0067,0.042,9.7696,-0.232,0.3808,-0.2618
2825,1139,658,34.467,34.209,0.0478,0.0105,9.7335,-0.332,-0.3933,1.1035
2830,1142,663,34.341,34.245,-0.0776,0.0025,9.7934,0.333,-0.1992,-0.6275
2835,1156,668,34.386,34.246,0.0039,-0.0942,9.8479,-0.5208,-0.8343,-0.8672
2840,1161,678,34.348,34.295,-0.0022,-0.0622,9.8902,-0.366,-0.1167,-0.6561
2845,1168,687,34.365,34.251,-0.0574,-0.0379,9.7594,0.167,1.2566,-0.8011
2850,1166,696,34.43,34.403,-0.0426,0.0116,9.752,-0.3444,-0.393,-0.0455
2855,1178,703,34.398,34.373,0.0295,0.0763,9.831,-0.3006,0.807,-0.1188
2860,1182,709,34.351,34.352,0.0157,-0.0055,9.834,-0.6908,0.4664,0.6975
2865,1183,719,34.305,34.299,0.014,-0.1457,9.8401,0.4622,-0.242,-0.4819
2870,1185,729,34.376,34.295,0.0335,-0.0056,9.7296,-0.4718,-0.378,0.7272
2875,1190,740,34.334,34.276,0.0389,0.0616,9.7176,0.2554,0.2161,0.3813
2880,1191,742,34.422,34.359,0.0314,0.0032,9.7832,-0.1208,-0.0357,-0.3552
2885,1187,756,34.341,34.255,0.0239,-0.0173,9.6958,-0.4187,0.5926,0.5579
2890,1180,764,34.397,34.327,0.0638,-0.0494,9.822,-0.384,-0.8399,-0.4467
2895,1191,776,34.431,34.337,-0.0542,-0.0006,9.8263,-1.3399,0.2999,0.5157
2900,1185,778,34.299,34.359,0.0176,0.0512,9.8499,0.3165,-0.1835,0.3734
2905,1181,795,34.491,34.339,0.029,0.0348,9.7928,0.106,0.1861,-0.241
2910,1185,803,34.352,34.356,-0.0337,-0.026,9.7791,-1.0633,0.2864,-0.6054
2915,1176,813,34.329,34.273,-0.0887,-0.0186,9.8039,-1.1046,-0.3151,-0.4904
2920,1184,822,34.419,34.361,0.0229,0.0132,9.7829,0.1975,-0.0669,0.3124
2925,1175,831,34.36,34.317,-0.0602,0.026,9.7698,0.4011,0.6931,0.1113
2930,1161,846,34.409,34.32,-0.0464,-0.0304,9.7793,0.0871,0.724,-0.5565
2935,1175,844,34.327,34.242,-0.0589,0.0559,9.7816,0.3069,-0.5478,0.2198
2940,1168,853,34.363,34.254,-0.001,-0.0192,9.8407,-0.3691,0.2777,-0.7504
2945,1154,867,34.319,34.229,0.0695,0.0186,9.8191,-0.1859,0.0874,-0.1743
2950,1170,875,34.358,34.307,0.0201,-0.1334,9.7992,0.4932,0.7057,-0.5918
2955,1155,879,34.317,34.348,-0.0733,-0.0332,9.8869,0.5224,0.2197,-0.2865
2960,1149,883,34.327,34.314,0.0868,0.0084,9.7528,-0.5696,0.0221,0.0755
2965,1138,892,34.36,34.276,-0.0033,0.0296,9.8159,-0.0737,0.5034,-0.2619
2970,1147,900,34.341,34.347,0.0207,-0.0774,9.807,-0.8154,0.2723,-0.3397
2975,1130,899,34.451,34.305,0.049,-0.0288,9.7761,-0.1148,-0.5314,0.1939
2980,1138,905,34.367,34.358,-0.0128,0.0695,9.7726,0.4238,-0.0373,0.3323
2985,1132,907,34.305,34.262,0.0118,-0.023,9.8043,0.4052,0.2329,-0.7168
2990,1129,916,34.363,34.399,0.0385,-0.079,9.7963,-0.5908,-0.3011,0.8903
2995,1129,917,34.419,34.396,0.0643,0.062,9.8369,0.2333,0.1774,-0.0527
3000,1120,919,34.441,34.349,0.139,-0.0227,9.7989,-0.1826,-0.0345,0.7667
3005,1117,922,34.423,34.364,0.0589,-0.0723,9.8846,-0.4413,0.0233,-0.1372
3010,1111,926,34.382,34.285,-0.0252,0.0389,9.9172,-0.3622,0.0912,-0.363
3015,1118,929,34.387,34.295,-0.0435,0.0004,9.8042,-0.8569,0.659,-0.3182
3020,1117,925,34.409,34.401,-0.0122,0.0353,9.7559,-0.0776,0.3576,-0.0369
3025,1115,926,34.353,34.319,0.0294,-0.0457,9.8188,0.1839,0.0383,-0.3949
3030,1105,929,34.331,34.356,0.0265,-0.0033,9.7733,0.5225,0.0308,0.6433
3035,1103,927,34.296,34.34,-0.0729,0.0015,9.8352,0.1312,0.1576,0.1966
3040,1109,929,34.353,34.35,0.096,-0.0316,9.7673,-0.0162,-1.0093,-0.0976
3045,1089,930,34.31,34.328,0.0714,0.0229,9.8023,0.3048,0.3065,0.5461
3050,1098,925,34.293,34.313,0.0855,0.0426,9.763,-0.1934,0.7207,0.8193
3055,1099,925,34.339,34.324,0.0261,0.0097,9.7626,0.0636,0.1978,-0.7564
3060,1079,925,34.371,34.231,-0.01,-0.0577,9.7517,-0.986,0.2287,-0.1747
3065,1080,923,34.365,34.339,-0.048,-0.0432,9.8296,-0.1394,-0.095,0.5993
3070,1087,922,34.467,34.276,-0.0831,-0.0896,9.7561,0.2916,0.5681,-0.357
3075,1083,918,34.438,34.373,0.025,0.057,9.8921,0.2924,0.2053,-0.2117
3080,1074,914,34.436,34.38,-0.009,-0.0347,9.8911,0.4412,0.8201,-0.0111
3085,1084,914,34.39,34.227,-0.0202,-0.0305,9.8062,-0.6023,0.2526,-0.2641
3090,1074,909,34.37,34.302,0.0159,-0.0116,9.8068,-0.7106,-0.5321,-0.0839
3095,1069,908,34.372,34.443,0.1063,0.0278,9.8848,0.0521,-0.0303,0.1348
3100,1066,907,34.408,34.359,0.0012,0.0844,9.8343,1.0922,0.1415,0.1425
3105,1057,905,34.373,34.331,-0.0684,0.0008,9.8146,-0.6215,-0.4725,-0.6515
3110,1052,899,34.201,34.298,0.0148,0.1227,9.8616,0.2355,-0.0258,0.7488
3115,1064,898,34.398,34.309,-0.0685,0.0553,9.7704,-0.1021,0.2536,-0.6222
3120,1052,895,34.425,34.231,0.1386,-0.0261,9.7795,0.204,0.7318,0.14
3125,1045,891,34.411,34.373,0.0204,0.0076,9.8523,0.7362,0.3514,-0.0258
3130,1038,893,34.354,34.277,0.0206,-0.069,9.8389,0.7727,0.2737,-0.5178
3135,1030,892,34.317,34.294,0.1002,0.0013,9.7726,-0.0503,-0.8203,0.3377
3140,1032,889,34.422,34.328,0.0552,0.0661,9.7835,-0.5279,0.356,0.6485
3145,1014,882,34.45,34.28,-0.0727,-0.0107,9.7704,-0.2209,0.365,-0.2095
3150,1012,883,34.368,34.259,0.0122,0.0259,9.8606,-0.6521,0.509,-0.4932
3155,1011,877,34.42,34.262,0.0422,0.018,9.7556,-0.19,-0.4287,0.5516
3160,1002,878,34.395,34.305,0.0021,0.066,9.8309,0.0976,0.0458,0.0363
3165,992,872,34.373,34.215,-0.0423,0.0656,9.8062,0.7332,-0.135,0.6636
3170,991,873,34.356,34.347,-0.0004,0.0189,9.8061,0.0867,-0.3159,0.7733
3175,977,868,34.384,34.3,0.0411,0.0133,9.9587,-0.3241,0.2569,-0.6112
3180,969,867,34.479,34.353,-0.1063,0.0539,9.7667,-0.1684,0.365,-0.8001
3185,958,874,34.315,34.369,0.0424,-0.0087,9.8396,-0.0853,-0.8507,-0.0473
3190,943,865,34.31,34.341,-0.0366,-0.0082,9.7805,0.3131,0.5903,0.3757
3195,942,862,34.376,34.323,-0.0039,0.0318,9.7624,-0.6746,-0.0018,-0.138
3200,924,862,34.368,34.323,0.0329,-0.0098,9.7148,-0.4526,-0.5824,-0.1944
3205,917,864,34.323,34.296,0.0177,-0.005,9.8726,0.6815,-0.1548,-0.1465
3210,908,859,34.359,34.299,0.006,0.0204,9.7155,-0.5461,-0.069,0.3481
3215,899,855,34.468,34.31,-0.0249,0.0014,9.823,0.3398,0.6367,-0.0674
3220,888,856,34.309,34.277,-0.0316,-0.0126,9.7836,0.043,-0.653,0.5264
3225,880,850,34.328,34.252,-0.0167,-0.018,9.8087,0.1384,-0.4153,-0.8206
3230,871,853,34.442,34.353,0.0062,-0.0361,9.6797,-0.387,0.1245,0.4481
3235,857,854,34.34,34.291,0.0785,-0.0124,9.8199,0.718,-0.181,-0.315
3240,838,845,34.388,34.347,0.0012,-0.0968,9.6448,0.8211,-0.0052,1.0534
3245,837,845,34.404,34.313,-0.0042,-0.0176,9.8278,0.0795,-0.334,-0.0595
3250,837,843,34.37,34.38,0.0329,0.0823,9.807,0.121,0.2085,1.0792
3255,813,845,34.315,34.246,0.0272,0.0435,9.7559,-0.2011,0.1565,0.104
3260,800,832,34.373,34.315,-0.0049,0.0221,9.7859,-0.8293,-0.0078,-0.6837
3265,802,834,34.428,34.292,-0.0815,-0.0353,9.8177,-0.6186,-0.5335,-0.6126
3270,794,836,34.404,34.289,-0.0348,0.0632,9.7811,0.0659,0.1446,-0.3366
3275,785,827,34.406,34.373,0.0397,0.0592,9.8455,0.5215,-0.0416,-0.6148
3280,776,823,34.279,34.279,-0.1099,0.0345,9.833,-0.0505,-0.3763,0.7072
3285,777,822,34.385,34.373,-0.0235,-0.0317,9.8426,-0.6895,0.1269,-0.1422
3290,780,816,34.362,34.307,0.0197,-0.0556,9.762,-0.6826,0.6331,-0.622
3295,760,809,34.407,34.307,-0.0618,-0.103,9.8089,-0.1897,-1.0108,-0.4094
3300,756,806,34.305,34.307,0.0524,0.0243,9.8446,-0.2984,-0.1467,0.1848
3305,746,805,34.337,34.292,-0.0521,-0.0361,9.7548,0.0262,0.0444,-0.3618
3310,744,799,34.358,34.238,0.019,0.0228,9.7194,0.2664,-0.7995,-0.7389
3315,751,790,34.332,34.288,-0.04,-0.1152,9.765,0.1278,-0.4292,-0.144
3320,742,783,34.395,34.392,-0.0221,0.0016,9.8308,0.614,0.3404,-0.183
3325,754,776,34.353,34.304,0.0627,-0.0685,9.8022,0.0488,0.1125,0.6011
3330,753,765,34.386,34.272,-0.0009,-0.1257,9.8142,0.3859,0.0502,-0.1108
3335,736,760,34.345,34.372,0.0749,0.0462,9.8553,-0.1447,-0.5516,-0.4502
3340,754,749,34.351,34.381,-0.0474,-0.0349,9.8259,-0.0978,0.4851,0.1589
3345,754,757,34.386,34.316,0.0042,0.0553,9.7749,-0.5869,0.0311,0.4076
3350,770,745,34.325,34.311,-0.0634,0.0319,9.7763,1.1912,0.1305,-0.8521
3355,765,741,34.407,34.311,0.0,0.0926,9.8997,-0.3157,-0.2378,-0.2765
3360,770,728,34.376,34.283,0.0689,-0.0109,9.77,-0.4422,-0.6507,1.5067
3365,780,728,34.369,34.239,-0.0392,-0.0209,9.8129,0.3461,-0.1226,-0.0678
3370,784,712,34.398,34.287,0.0598,-0.0473,9.787,-0.1358,0.6701,0.7723
3375,790,713,34.405,34.364,-0.0368,0.0154,9.7526,-0.3092,-0.3518,-0.4073
3380,799,699,34.389,34.356,0.0324,0.0106,9.7917,0.0264,1.2842,-0.3648
3385,804,694,34.377,34.252,0.0489,-0.0902,9.8087,0.277,0.6582,0.4971
3390,817,691,34.366,34.352,-0.0143,0.0336,9.8862,-0.0904,-0.0817,0.4663
3395,831,678,34.355,34.297,0.0327,-0.0576,9.7566,0.0606,0.5285,-0.2708
3400,846,672,34.381,34.267,-0.0022,-0.0913,9.819,-0.019,-1.0764,-0.9847
3405,860,668,34.383,34.232,-0.0424,-0.044,9.8074,0.2536,0.1201,-0.5485
3410,869,659,34.442,34.293,-0.0154,0.0143,9.7567,0.4578,0.5588,1.192
3415,882,657,34.424,34.378,-0.0469,-0.0522,9.8749,-0.1613,-0.1058,0.0372
3420,901,659,34.438,34.282,0.0822,0.1096,9.8357,-0.8424,0.1422,0.0301
3425,910,646,34.411,34.37,0.0387,0.0101,9.8876,-0.1627,0.2521,-0.1934
3430,933,645,34.383,34.348,-0.0298,0.0009,9.6402,-0.2786,0.1983,-0.4752
3435,939,641,34.332,34.312,0.0199,-0.0189,9.7632,-0.1956,-0.4457,0.7453
3440,941,636,34.334,34.333,-0.0024,0.0281,9.7088,0.6038,0.0532,0.8109
3445,967,629,34.365,34.325,-0.0007,0.0972,9.8234,-0.3538,0.2887,0.6055
3450,970,632,34.405,34.323,-0.1433,-0.0777,9.8064,0.5515,-1.2092,0.1011
3455,991,628,34.4,34.28,-0.0421,-0.0118,9.8015,0.0424,-0.2234,1.0861
3460,1004,624,34.39,34.352,-0.0273,-0.0569,9.8314,-0.6512,-0.1863,-0.0009
3465,1016,625,34.404,34.221,0.014,0.0459,9.8537,0.2171,-0.7383,-0.1093
3470,1032,629,34.258,34.374,0.0066,0.0695,9.8864,-1.0776,0.1737,0.5817
3475,1045,633,34.377,34.33,0.0146,-0.0211,9.8745,0.1785,0.0549,0.7215
3480,1062,631,34.398,34.345,-0.1103,-0.0385,9.8934,0.1601,0.3629,0.3568
3485,1068,638,34.396,34.333,0.0608,-0.0106,9.7862,-0.5942,-0.0801,0.2132
3490,1081,629,34.303,34.381,-0.0406,-0.0042,9.764,-0.1553,-0.2928,-0.5687
3495,1086,637,34.45,34.315,-0.0082,0.0225,9.8195,-0.1017,-0.1731,-0.4012
3500,1097,638,34.324,34.279,-0.0342,-0.0068,9.8241,-0.8044,-0.1912,0.2136
3505,1114,643,34.302,34.357,-0.0304,0.0611,9.8698,0.2521,-0.1506,-0.0235
3510,1117,649,34.368,34.397,-0.0752,0.0474,9.839,0.3951,0.0562,-0.1097
3515,1131,653,34.376,34.378,-0.0358,-0.0478,9.7885,0.411,-0.0507,-0.4624
3520,1136,659,34.36,34.313,0.0308,0.0092,9.9011,0.5321,0.3045,0.3949
3525,1145,663,34.281,34.304,-0.0868,0.022,9.7647,-0.3731,-0.033,0.0178
3530,1159,663,34.353,34.361,-0.0031,0.036,9.7488,-0.8198,0.1813,-0.3353
3535,1161,678,34.373,34.295,-0.0137,0.0055,9.8075,0.0346,0.3646,-0.2883
3540,1162,692,34.37,34.395,-0.0098,0.0046,9.8046,0.3576,-0.0648,-0.6893
3545,1169,690,34.489,34.352,-0.0273,-0.0968,9.8139,0.5868,-0.93,-0.1559
3550,1172,701,34.271,34.321,0.0328,0.0071,9.8883,0.4311,0.5379,0.0774
3555,1176,717,34.45,34.296,0.0076,-0.0013,9.8313,0.2539,-0.9468,0.0873
3560,1185,714,34.385,34.326,-0.0625,-0.0027,9.8871,0.6,0.4511,0.3777
3565,1176,726,34.342,34.243,0.0227,-0.0351,9.8262,-0.2248,-0.0368,-0.0611
3570,1183,739,34.302,34.297,-0.062,-0.0727,9.8651,0.2347,1.086,-0.3564
3575,1183,742,34.433,34.35,-0.0152,-0.0342,9.7651,-0.3436,-0.2323,0.0739
3580,1190,758,34.351,34.266,0.0498,-0.0282,9.801,-0.6841,0.5963,1.0534
3585,1188,762,34.414,34.341,-0.0365,-0.0128,9.872,0.6337,-0.3001,-0.3453
3590,1187,768,34.455,34.312,-0.0513,0.0691,9.8633,-0.5659,0.7378,-0.3329
3595,1189,786,34.419,34.361,-0.1265,-0.0146,9.7297,0.0307,0.2594,0.5336
3600,1180,793,34.435,34.33,-0.0178,-0.018,9.7504,-0.03,0.2372,-0.3265
3605,1186,810,34.347,34.357,-0.0176,0.0467,9.8129,1.2037,-0.4208,-0.4995
3610,1177,811,34.376,34.336,0.0368,-0.0576,9.81,-0.1007,0.1194,-0.4979
3615,1174,824,34.417,34.357,0.036,0.0196,9.7852,-0.2004,0.9752,0.9343
3620,1173,827,34.38,34.407,-0.0391,0.0015,9.7596,-0.6278,0.0749,-0.3074
3625,1161,837,34.398,34.233,0.034,0.0404,9.8499,-0.2056,-0.6906,-0.1991
3630,1175,844,34.384,34.26,-0.0137,-0.0403,9.7291,-0.7766,-0.4268,-0.3813
3635,1165,852,34.365,34.341,-0.0367,-0.1178,9.8995,0.7636,-0.0142,0.0249
3640,1166,862,34.374,34.258,-0.0333,-0.0813,9.827,0.0771,-0.4955,0.3499
3645,1153,875,34.402,34.337,0.0102,0.0441,9.8919,-0.1649,-0.7211,-0.442
3650,1152,874,34.307,34.355,0.0565,-0.0487,9.8417,-0.5299,-0.0061,0.2654
3655,1138,882,34.365,34.324,0.075,0.0213,9.7805,0.7758,0.2859,0.224
3660,1147,892,34.33,34.314,0.1477,-0.0269,9.8487,0.4474,-0.0332,0.0618
3665,1140,900,34.343,34.36,0.0608,0.0012,9.8196,-0.1411,0.018,0.4982
3670,1142,902,34.379,34.257,-0.0236,-0.0018,9.7595,-0.6498,0.5918,0.2247
3675,1132,907,34.424,34.378,-0.0498,0.0685,9.847,-0.0057,1.4204,-0.4408
3680,1128,913,34.385,34.397,-0.0198,-0.0036,9.7233,-0.2669,0.4806,-0.0365
3685,1131,909,34.4,34.29,0.0486,0.0153,9.8128,0.3905,-0.0778,0.0282
3690,1126,915,34.337,34.262,-0.002,-0.0348,9.8222,-0.6256,-0.3659,-0.1683
3695,1117,917,34.384,34.285,-0.0026,0.0051,9.7669,0.2273,-0.4915,0.4231
3700,1121,921,34.42,34.349,-0.0015,0.0556,9.8436,0.7366,0.0774,-0.0267
3705,1120,920,34.377,34.328,0.1583,0.0073,9.8266,0.1602,0.9541,0.4077
3710,1114,924,34.33,34.342,-0.0172,0.0185,9.8587,-0.22,-0.2465,0.0285
3715,1109,930,34.35,34.286,-0.0587,-0.0016,9.8011,0.5816,-0.4267,-0.6812
3720,1108,927,34.355,34.342,-0.0174,0.0732,9.8187,-0.3013,-0.9774,-0.3063
3725,1093,932,34.421,34.326,-0.0013,0.0177,9.7203,-0.1503,0.1358,0.3604
3730,1095,924,34.382,34.311,0.0019,0.0646,9.8484,-0.871,0.7702,0.4692
3735,1111,930,34.394,34.376,0.0015,-0.0126,9.844,0.5088,-0.7859,-0.3801
3740,1099,924,34.352,34.281,-0.0616,0.0524,9.7722,0.0818,-0.3357,0.1311
3745,1094,927,34.366,34.234,-0.0178,0.0297,9.7357,-0.5927,-0.3913,-0.0497
3750,1088,920,34.32,34.345,0.0049,-0.0143,9.8052,-0.0697,0.9738,-0.0594
3755,1096,920,34.382,34.333,-0.0803,0.0644,9.8175,-0.1131,0.1403,0.3158
3760,1081,921,34.348,34.379,0.0247,-0.0868,9.7233,-0.4087,0.6968,-0.7076
3765,1086,918,34.325,34.413,-0.0231,0.036,9.8807,0.334,0.2669,-0.0324
3770,1079,920,34.344,34.361,0.0574,-0.0251,9.7644,0.428,0.0772,-0.9891
3775,1079,918,34.403,34.318,-0.0435,0.0145,9.8481,0.4904,-0.8065,-0.2704
3780,1083,911,34.364,34.289,-0.0852,0.096,9.8239,0.3501,-0.5146,1.2818
3785,1087,916,34.362,34.347,-0.029,-0.0101,9.7804,0.607,-0.2547,0.5326
3790,1078,913,34.427,34.209,-0.0344,0.0207,9.7346,-0.0473,0.1577,-1.2371
3795,1068,903,34.305,34.326,0.009,0.0092,9.8917,-0.362,-0.0209,-0.3274
3800,1073,906,34.429,34.348,-0.0055,-0.0011,9.7963,0.0577,-0.6218,0.1366
3805,1055,900,34.345,34.298,-0.0556,0.0171,9.899,0.3227,0.4348,0.0444
3810,1058,898,34.362,34.338,0.0545,0.0156,9.8225,0.4935,0.5614,0.1127
3815,1049,900,34.412,34.294,0.0034,-0.0346,9.8968,0.5449,-0.3319,-0.262
3820,1035,892,34.367,34.354,-0.0001,0.0259,9.8437,-0.0732,-0.5077,-0.4414
3825,1044,891,34.46,34.373,-0.0421,0.0024,9.8142,0.4084,0.1742,0.3656
3830,1032,892,34.363,34.368,-0.0496,-0.0437,9.8053,0.0965,-0.4972,-0.331
3835,1033,887,34.389,34.323,0.0769,-0.0112,9.7199,0.2568,1.155,-0.2535
3840,1016,886,34.366,34.334,-0.0751,-0.0158,9.8274,-0.8208,0.3144,0.7025
3845,1018,885,34.357,34.321,0.0405,0.0009,9.7444,-0.39,0.605,0.4788
3850,1004,880,34.355,34.345,0.0252,-0.0282,9.8028,0.8806,-0.6138,0.1501
3855,1002,879,34.363,34.315,0.0572,0.0,9.7891,-0.3154,-0.3561,0.5311
3860,992,867,34.371,34.29,-0.0331,0.0622,9.8406,0.4898,-0.6136,0.0688
3865,975,873,34.336,34.279,0.0701,-0.0661,9.7597,-0.6774,0.1988,-0.5978
3870,973,871,34.351,34.314,-0.0279,0.0565,9.8843,0.3162,-0.6412,-0.3126
3875,960,874,34.399,34.32,0.1332,-0.0314,9.8337,-0.6574,-0.323,-0.4494
3880,964,863,34.363,34.248,-0.025,0.0188,9.8741,0.3643,-0.9891,-0.0978
3885,945,873,34.455,34.29,-0.0922,-0.0357,9.7974,0.4013,0.4201,0.0004
3890,943,869,34.381,34.261,-0.0201,0.0813,9.7292,0.1779,-0.4219,-0.3233
3895,933,861,34.43,34.257,-0.042,-0.032,9.6706,-0.9987,0.1536,-0.081
3900,919,869,34.306,34.389,0.0209,-0.0046,9.8386,-0.6258,-0.9013,1.1172
3905,905,861,34.427,34.272,0.0022,-0.0317,9.8134,-0.9981,0.1164,0.1079
3910,896,864,34.39,34.442,0.0049,-0.0085,9.845,-0.9099,-0.6316,0.0528
3915,885,857,34.437,34.228,0.079,-0.017,9.775,-0.4199,-1.4774,0.3788
3920,881,857,34.402,34.339,0.0148,-0.0968,9.748,-0.767,-0.1748,0.0727
3925,868,850,34.373,34.323,-0.0094,-0.0081,9.7972,-0.2957,0.47,0.843
3930,852,851,34.424,34.174,0.0073,-0.0523,9.8736,0.6787,-0.0929,-0.3833
3935,853,843,34.367,34.355,-0.0632,-0.0943,9.7159,0.17,-0.1729,0.4129
3940,831,840,34.321,34.262,0.0425,-0.0059,9.8119,-0.8297,-0.2148,-0.4153
3945,828,847,34.447,34.332,0.0362,0.0698,9.793,0.4752,-0.1129,0.0688
3950,817,842,34.274,34.348,-0.0294,0.1727,9.748,-0.4505,-0.3924,0.1587
3955,805,838,34.317,34.307,0.0116,-0.0385,9.8517,-0.454,-0.2558,0.6257
3960,801,832,34.428,34.4,0.023,-0.0002,9.8028,0.5946,0.5314,-0.0308
3965,794,832,34.306,34.391,-0.0665,-0.018,9.8598,0.1967,1.23,0.3243
3970,786,829,34.426,34.297,0.0539,-0.0703,9.868,0.86,0.9184,0.66
3975,778,822,34.373,34.402,-0.0008,0.0614,9.8085,-0.211,-0.4002,0.1382
3980,765,814,34.332,34.208,-0.0706,0.0052,9.8854,0.1058,0.4509,-0.6441
3985,759,817,34.435,34.38,-0.0232,0.0338,9.7793,-0.6087,-0.1554,-0.1678
3990,747,811,34.384,34.292,0.0684,-0.0016,9.8344,-0.3305,-0.389,-0.1467
3995,756,797,34.422,34.414,0.0681,0.0387,9.7999,-0.0898,0.0101,0.2518
4000,755,803,34.353,34.317,0.0459,0.0368,9.8488,0.3654,-0.1972,0.3733
4005,752,794,34.361,34.342,0.0735,0.0118,9.8951,0.1692,-0.1114,-0.4014
4010,747,788,34.403,34.336,-0.0834,-0.0044,9.764,-0.85,0.7121,0.3758
4014,747,781,34.379,34.261,-0.0375,0.0027,9.6992,-0.5003,-0.3004,0.7206
4019,747,773,34.359,34.264,0.0132,-0.0189,9.8342,-0.3717,0.1831,0.9125
4025,741,768,34.352,34.325,-0.0808,-0.0062,9.8716,1.2259,-0.5571,0.2919
4030,749,767,34.383,34.378,-0.0022,-0.0707,9.8333,1.3336,-0.8908,0.2302
4035,750,758,34.431,34.348,0.0109,0.0109,9.8348,-1.1081,0.1936,0.1568
4040,747,750,34.414,34.309,0.0206,0.0091,9.7967,-0.704,-0.197,0.5614
4045,756,740,34.412,34.299,0.0669,-0.0105,9.7828,0.1193,-0.4084,0.7044
4050,758,737,34.294,34.238,-0.028,0.0608,9.8539,-0.0898,0.43,-0.0605
4054,768,727,34.37,34.355,-0.0135,-0.028,9.7848,-0.0067,0.6558,-0.6652
4059,780,715,34.406,34.23,-0.0037,-0.0283,9.865,0.6788,0.758,0.5374
4065,788,720,34.387,34.326,0.08,-0.0707,9.77,0.2394,0.6259,-0.1564
4070,786,710,34.37,34.411,0.0163,-0.1045,9.7503,-0.3496,-0.8212,-0.8332
4075,803,705,34.344,34.377,0.0363,-0.0839,9.7895,0.3014,0.303,0.4239
4080,814,697,34.356,34.346,0.0258,-0.0088,9.8138,-0.419,0.0725,0.3522
4085,822,685,34.432,34.28,0.0919,-0.0469,9.7831,0.4949,-0.1089,1.0261
4090,835,683,34.48,34.304,-0.0117,-0.0081,9.7755,0.1275,0.1908,0.4234
4094,833,673,34.446,34.354,-0.0536,0.0475,9.7184,-0.4562,-0.0965,0.4459
4100,847,666,34.454,34.353,0.0146,-0.0347,9.8191,0.2379,0.3254,-0.3656
4105,864,662,34.358,34.261,0.0481,0.0552,9.7862,0.1812,-0.4413,0.4383
4110,892,660,34.354,34.347,0.0127,-0.0253,9.8572,-0.4812,-0.608,0.0989
4115,893,649,34.411,34.335,-0.0414,0.0219,9.7775,0.3383,-0.2908,0.1222
4120,920,648,34.423,34.302,0.0558,0.0252,9.7893,0.7359,0.3359,-0.5436
4125,921,641,34.403,34.329,-0.0235,-0.002,9.7958,-0.464,-0.1617,0.0391
4130,935,636,34.458,34.315,0.0341,-0.0354,9.8955,-0.6138,-0.9405,0.4104
4135,941,635,34.359,34.313,0.0126,0.0969,9.7814,-0.9622,0.5897,-0.1332
4140,966,635,34.247,34.265,0.0233,-0.016,9.8755,0.0763,0.4396,0.2859
4145,980,630,34.356,34.374,-0.0265,0.0043,9.7439,-1.0402,0.3657,-0.0964
4150,991,628,34.4,34.322,0.0438,0.0531,9.7761,-0.293,0.3343,0.127
4155,1002,632,34.321,34.279,-0.0297,-0.0305,9.7815,-0.9226,0.3123,0.2432
4160,1017,624,34.445,34.36,0.0225,-0.0236,9.7103,0.0959,-0.4951,0.6248
4165,1037,629,34.288,34.391,-0.0625,0.0079,9.7434,0.2651,-1.2411,0.5649
4170,1044,631,34.365,34.377,-0.0305,-0.056,9.8376,-0.787,0.1,-0.0556
4175,1063,630,34.393,34.379,0.0479,-0.067,9.8096,0.2187,-0.6067,-0.064
4180,1070,632,34.401,34.289,0.0172,0.1035,9.7831,-0.4949,-0.1141,-0.9669
4185,1076,631,34.437,34.437,-0.0453,-0.0117,9.8186,-0.0193,0.2737,-0.0889
4190,1094,637,34.315,34.327,0.0004,0.045,9.8186,0.4374,-0.5143,-0.8694
4195,1096,638,34.373,34.355,-0.0182,-0.0368,9.819,-1.0363,0.556,-0.1915
4200,1115,640,34.469,34.253,-0.0266,-0.0367,9.8123,0.4407,-0.6436,0.0521
4205,1114,648,34.378,34.247,0.0057,0.0073,9.8803,-0.0995,0.5553,-0.0918
4210,1133,650,34.424,34.346,0.0681,-0.094,9.7383,0.1222,-0.5097,-0.0843
4215,1135,657,34.338,34.281,-0.0548,0.0685,9.7023,0.2024,0.1122,-0.3256
4220,1145,666,34.381,34.246,-0.0184,0.0975,9.8256,0.1631,-0.5592,-0.1346
4225,1153,671,34.462,34.33,-0.0276,-0.0175,9.7466,-0.6879,0.6578,-0.4816
4230,1160,675,34.366,34.316,0.0415,-0.1257,9.8319,0.4687,0.0833,-0.1425
4235,1163,687,34.354,34.348,0.039,0.0363,9.9288,0.9081,0.1692,-0.171
4240,1173,691,34.392,34.384,0.0933,-0.0796,9.7988,0.1777,-0.1854,0.2966
4245,1178,704,34.426,34.338,0.0205,-0.0667,9.76,0.2318,-0.035,0.6567
4250,1180,715,34.354,34.397,0.045,0.0125,9.7826,-0.1817,-0.5581,0.0439
4255,1171,718,34.392,34.308,-0.0444,-0.0378,9.7934,0.2239,-0.6948,-0.451
4260,1177,730,34.376,34.442,-0.0157,0.0605,9.8095,-0.084,0.1136,-0.3338
4265,1197,733,34.428,34.322,-0.0295,-0.0511,9.8762,0.9543,0.5564,0.2443
4270,1191,742,34.447,34.367,0.0319,0.0344,9.81,1.2408,0.1697,-0.282
4275,1187,761,34.401,34.411,-0.0863,0.0131,9.8213,-0.6116,-0.4449,0.3754
4280,1194,763,34.367,34.273,-0.0621,0.0488,9.7996,0.6049,-0.4142,0.1563
4285,1186,768,34.451,34.349,0.0727,-0.0723,9.7781,0.6602,-0.3426,0.5007
4290,1189,784,34.5,34.283,0.1005,0.015,9.8106,1.162,-0.7615,0.6284
4295,1187,788,34.332,34.361,0.0165,0.0571,9.7657,-0.0492,0.0243,0.4068
4300,1185,805,34.407,34.297,0.0823,0.0474,9.8075,-0.4264,-0.0402,-0.2623
4305,1177,812,34.307,34.354,-0.0936,-0.055,9.7066,-0.0378,0.2707,0.1907
4310,1174,821,34.413,34.334,0.0274,-0.0367,9.834,0.235,0.0979,0.4179
4315,1181,825,34.345,34.257,-0.0086,-0.0656,9.8001,0.0555,-0.801,-1.2354
4320,1176,839,34.429,34.264,0.0399,0.0286,9.8618,0.6284,-0.9379,0.4784
4325,1176,846,34.364,34.326,0.0253,-0.0249,9.8053,0.0885,-0.7716,-0.1643
4330,1169,852,34.369,34.266,-0.0327,-0.0434,9.9317,-0.581,0.2188,-0.3255
4335,1154,868,34.281,34.318,0.0455,-0.0674,9.7968,0.0276,-1.4049,-0.8291
4340,1161,873,34.441,34.369,0.0232,0.0129,9.7704,-0.6346,0.288,0.2896
4345,1152,871,34.414,34.246,0.0457,-0.0073,9.7273,-0.1862,0.1235,-0.6553
4350,1160,884,34.39,34.391,0.0874,0.0784,9.752,-0.5802,-0.0023,0.4926
4355,1144,890,34.399,34.339,-0.0261,-0.0538,9.8144,-0.1119,0.285,-1.5434
4360,1141,893,34.41,34.309,0.0357,0.0599,9.8545,-0.793,-0.2893,-0.5784
4365,1139,897,34.349,34.327,0.0005,0.0113,9.8111,0.0989,0.3953,-0.0466
4370,1132,905,34.437,34.342,0.0093,0.0629,9.9037,-0.5389,0.0359,-0.5091
4375,1132,909,34.322,34.338,-0.0241,0.0001,9.7837,0.3626,0.2449,0.4867
4380,1125,918,34.355,34.267,-0.0059,-0.0421,9.8324,-0.9894,-0.2834,-0.3058
4385,1129,921,34.329,34.34,0.0454,0.0588,9.7878,0.6625,0.8734,1.3405
4390,1121,920,34.272,34.406,0.0313,-0.0197,9.7923,0.3204,-0.6547,0.2545
4395,1114,922,34.31,34.296,0.0385,0.0195,9.7418,-0.5029,0.1412,0.192
4400,1111,925,34.449,34.399,-0.0479,-0.0081,9.8015,0.4843,-0.569,-0.9402
4405,1114,927,34.388,34.314,0.04,0.0079,9.8055,0.1064,-0.6401,-0.0391
4410,1107,930,34.318,34.331,0.0782,0.0083,9.7851,0.8034,0.7211,1.0915
4415,1115,929,34.397,34.322,-0.0339,0.0715,9.8514,0.5947,-0.858,-0.2437
4420,1098,924,34.254,34.247,-0.0269,0.0021,9.758,-0.3475,-0.9498,-0.3046
4425,1106,923,34.396,34.256,0.0079,0.0222,9.7566,-0.4051,-0.392,0.0529
4430,1091,930,34.483,34.394,-0.0584,0.0687,9.7515,-0.7348,0.1021,0.7236
4435,1100,923,34.372,34.332,0.0893,-0.014,9.7472,-0.1982,0.093,-0.1397
4440,1090,930,34.387,34.383,-0.0073,-0.0237,9.7201,-1.0216,-0.0636,0.2571
4445,1097,927,34.316,34.373,-0.0105,-0.0329,9.7499,-0.6292,0.0837,-0.6934
4450,1076,927,34.378,34.377,0.0097,-0.0313,9.8028,-0.7427,0.2198,-0.2529
4455,1093,923,34.405,34.317,-0.0397,-0.0151,9.79,0.4756,-0.229,0.6637
4460,1087,923,34.369,34.378,-0.0162,-0.0206,9.8048,-0.4568,-0.0634,-0.207
4465,1081,918,34.291,34.411,-0.0839,-0.0893,9.8062,-0.606,-0.5,-0.2925
4470,1086,915,34.389,34.341,0.056,-0.0042,9.91,0.0271,-0.534,-0.6606
4475,1071,917,34.368,34.332,-0.0033,-0.0505,9.8175,0.2182,0.7286,0.2497
4480,1077,909,34.325,34.45,-0.0027,0.0289,9.7594,0.6528,0.8384,0.2645
4485,1073,905,34.361,34.29,-0.0443,0.027,9.7847,0.4364,0.1496,-0.2932
4490,1064,907,34.373,34.336,-0.008,0.0161,9.7699,-0.6608,-0.8503,0.1177
4495,1064,906,34.332,34.314,0.0702,0.0501,9.8015,0.2082,-0.6233,-0.0575
4500,1061,903,34.466,34.252,0.0071,0.0628,9.79,-0.0039,0.1565,0.4748
4505,1056,899,34.369,34.293,0.076,0.079,9.6851,-0.3941,-0.0271,0.3885
4510,1051,897,34.297,34.421,-0.0608,0.0119,9.8623,-0.5738,-0.6115,0.6785
4515,1045,892,34.404,34.311,-0.0002,-0.0074,9.8395,-0.1962,-0.1718,0.3602
4520,1040,891,34.466,34.304,-0.051,0.0588,9.8448,0.8476,0.0802,0.0259
4525,1031,888,34.374,34.33,-0.0514,0.0352,9.8689,-1.0736,-0.2319,0.2087
4530,1023,883,34.37,34.171,0.0979,0.0361,9.7717,0.2255,-0.2054,-0.3798
4535,1022,886,34.333,34.228,0.0013,0.0368,9.8248,-0.1238,-0.9036,0.0742
4540,1016,881,34.465,34.319,0.0368,0.0044,9.8066,-0.119,-0.7176,-0.7686
4545,1010,879,34.46,34.25,0.0649,-0.0323,9.667,0.5169,-0.2582,0.7995
4550,1002,878,34.416,34.373,0.0023,0.0328,9.8222,-0.3207,-0.2423,-0.5721
4555,990,880,34.433,34.307,0.0755,-0.0167,9.7674,0.2174,0.7386,0.585
4560,985,872,34.409,34.309,0.0692,-0.0404,9.8264,-0.5219,-0.1627,-0.3947
4565,972,872,34.376,34.362,0.0491,0.0175,9.8286,-0.095,-0.667,0.4004
4570,965,866,34.386,34.217,-0.0797,-0.0232,9.8656,-0.4992,1.351,-0.2313
4575,956,865,34.403,34.29,-0.0231,0.0513,9.8779,-0.0472,-0.3586,0.2021
4580,949,866,34.418,34.343,0.0064,-0.0535,9.7888,0.2277,-0.4079,-0.4433
4585,941,867,34.347,34.366,0.1137,-0.0143,9.8065,-0.8642,-0.1911,0.3487
4590,927,864,34.42,34.371,-0.0036,-0.0443,9.8713,-0.0219,0.7315,-0.3646
4595,927,859,34.287,34.316,-0.0108,0.0031,9.825,-0.2258,-0.4262,0.0729
4600,905,856,34.446,34.327,0.0063,0.0272,9.753,-0.3714,0.8404,0.1507
4605,898,854,34.338,34.388,0.0149,-0.1133,9.7152,0.0949,-0.5117,0.8835
4610,888,860,34.398,34.301,0.0716,-0.0435,9.7781,0.9102,0.3025,0.0559
4615,875,852,34.379,34.368,-0.0394,-0.0218,9.7762,-0.6754,-0.2397,-0.0204
4620,876,849,34.363,34.289,0.0571,0.0614,9.8367,-0.1516,0.2748,-0.2361
4625,853,848,34.487,34.338,0.0779,-0.1012,9.8222,0.1117,-0.9766,-0.271
4630,849,846,34.459,34.219,-0.0045,0.0022,9.8115,0.335,0.1853,-0.4085
4635,834,840,34.387,34.329,0.0474,-0.0486,9.8372,-0.1575,0.5191,-0.0441
4640,828,841,34.294,34.274,0.0339,-0.0172,9.8779,0.5304,-0.0277,-0.4888
4645,819,843,34.399,34.37,0.0289,0.0323,9.8556,0.1736,-0.6861,0.2227
4650,803,840,34.443,34.394,0.0399,0.0276,9.7846,0.5722,-1.0164,-0.4442
4655,810,835,34.36,34.315,0.0177,0.0385,9.853,0.3144,0.4459,0.0243
4660,795,830,34.419,34.312,0.0316,-0.0223,9.7496,-0.5354,-0.728,-0.6097
4665,782,827,34.387,34.33,0.0263,0.1185,9.7728,0.0013,-0.1296,-0.1199
4670,784,823,34.376,34.366,0.0192,0.0361,9.8042,-0.4703,0.6385,-0.3877
4675,774,817,34.364,34.318,0.0231,-0.053,9.8846,-0.2153,0.0594,1.0709
4680,761,821,34.351,34.342,0.0119,0.032,9.8643,0.2508,-0.4915,-0.2134
4685,762,807,34.405,34.238,0.0032,-0.037,9.8023,-0.0273,-0.0268,0.5118
4690,755,806,34.422,34.336,-0.0123,-0.0169,9.9434,0.553,0.1342,-0.8286
4695,751,797,34.408,34.299,0.0782,-0.0157,9.8312,0.8481,0.6642,0.3678
4700,755,795,34.437,34.274,-0.0022,0.0441,9.8519,-0.6522,0.2762,0.6851
4705,751,790,34.413,34.349,-0.0153,-0.0394,9.8211,0.7532,0.0142,0.0126
4710,749,782,34.356,34.417,-0.0336,-0.0275,9.772,-0.1824,-0.7001,0.514
4715,747,777,34.342,34.256,0.0946,0.0173,9.7384,-0.0262,0.1561,0.0773
4720,743,771,34.363,34.399,-0.0053,-0.0077,9.8121,0.6731,-0.9229,0.9169
4725,745,765,34.448,34.35,0.0352,-0.0073,9.8278,0.4736,-1.0779,-0.0576
4730,760,756,34.413,34.356,0.03,0.0037,9.7879,0.871,0.5146,0.9402
4735,751,748,34.396,34.326,-0.0431,-0.0337,9.8673,0.9301,0.2685,0.8101
4740,763,748,34.356,34.327,0.0007,-0.0489,9.8549,0.1506,0.3403,0.1889
4745,777,736,34.362,34.43,0.0681,0.0575,9.8594,0.1771,0.9944,-0.2511
4750,779,731,34.325,34.363,-0.0157,0.02,9.7322,1.072,0.6103,0.0269
4755,775,722,34.496,34.308,-0.0207,-0.0734,9.7009,-0.0701,0.3773,0.3712
4760,777,720,34.343,34.315,-0.0116,0.0056,9.8401,-0.3366,0.0526,0.0537
4765,786,710,34.418,34.367,0.0229,-0.0044,9.755,-0.2361,0.1407,0.4094
4770,796,700,34.315,34.386,0.0711,-0.0269,9.817,0.3174,-0.7243,-0.7151
4775,809,697,34.38,34.333,-0.0268,-0.0418,9.8103,-0.0091,-0.3787,-0.2769
4780,835,686,34.322,34.347,-0.0279,-0.0093,9.8732,-0.6902,0.109,0.6477
4785,831,682,34.286,34.313,0.1322,-0.0682,9.7947,0.1733,0.351,0.9187
4790,843,671,34.403,34.372,0.0137,-0.0967,9.8598,-0.3758,0.2699,0.4386
4795,863,668,34.448,34.407,0.0422,-0.0299,9.7752,0.0073,0.0913,-0.1551
4800,873,658,34.342,34.299,-0.0127,0.011,9.8002,0.5617,0.3264,0.6097
4805,879,658,34.299,34.282,-0.0784,0.0024,9.9364,-0.6914,1.417,0.2327
4810,893,649,34.337,34.296,0.0446,0.0121,9.7871,-0.0157,-0.1529,0.282
4815,906,652,34.403,34.391,0.0658,-0.0734,9.8706,0.0767,-0.45,0.2838
4820,922,643,34.361,34.273,-0.0223,0.0016,9.8586,1.0138,-0.1752,0.0521
4825,939,638,34.407,34.396,-0.0052,-0.03,9.7812,-0.1228,0.4374,0.1942
4830,951,635,34.381,34.295,0.0744,-0.0418,9.8646,-0.1466,0.3717,-0.1537
4835,962,631,34.352,34.294,-0.0159,0.1387,9.8369,-0.1167,-0.7545,1.3871
4840,975,634,34.41,34.406,-0.0783,0.0159,9.8496,-0.1251,0.4371,0.0441
4845,988,631,34.312,34.364,-0.0406,-0.0058,9.8419,0.7987,-0.1238,-0.1149
4850,1005,626,34.435,34.378,0.0088,-0.0459,9.8055,0.181,-0.5858,0.7223
4855,1012,625,34.307,34.343,-0.0236,-0.0861,9.8461,-0.4957,-0.3325,-0.9624
4860,1033,625,34.401,34.363,-0.0021,0.0404,9.8047,0.3375,-1.1259,0.1767
4865,1042,626,34.444,34.377,-0.0749,0.0345,9.7921,-0.3402,-0.6601,-0.7432
4870,1049,628,34.371,34.243,0.0346,0.0488,9.8248,-0.3717,-0.3545,-0.5016
4875,1067,628,34.402,34.333,-0.0443,0.1057,9.8604,0.2934,-0.3348,0.2251
4880,1075,627,34.395,34.388,0.0473,-0.0219,9.7504,-0.6174,0.1011,-0.5052
4885,1094,639,34.428,34.313,-0.028,0.0425,9.7912,0.2149,-0.1978,0.8471
4890,1105,637,34.368,34.32,-0.0145,-0.0107,9.7796,0.0356,0.5912,0.5819
4895,1116,637,34.323,34.353,-0.0547,-0.0015,9.7083,-0.2318,0.5191,-0.7286
4900,1122,648,34.356,34.336,0.0134,0.0215,9.7782,-0.5643,0.2259,0.2963
4905,1126,652,34.29,34.35,-0.0241,0.0499,9.7838,0.2434,-0.857,-0.4107
4910,1137,657,34.415,34.323,-0.0329,0.0839,9.7396,-0.0826,0.025,-0.2402
4915,1137,662,34.411,34.378,-0.0228,-0.0239,9.7495,0.1718,0.0677,-0.7932
4920,1153,670,34.46,34.41,-0.0617,-0.0832,9.7612,-0.5217,0.4672,-0.3995
4925,1163,676,34.49,34.31,-0.0314,-0.0623,9.8169,0.1557,0.0476,0.6322
4930,1160,684,34.391,34.342,0.0088,-0.0954,9.7808,-0.4424,0.2681,-0.2925
4935,1173,691,34.317,34.41,-0.0455,0.036,9.7785,-0.6237,-0.4296,1.2573
4940,1175,700,34.41,34.308,0.031,-0.0601,9.7685,0.1762,-0.8418,-1.124
4945,1174,718,34.372,34.429,0.0505,0.0752,9.7732,0.2203,0.7878,-0.6937
4950,1172,723,34.347,34.252,0.0362,-0.0313,9.827,0.2482,-0.5396,-0.7832
4955,1187,729,34.414,34.37,0.0449,-0.0094,9.7799,0.2129,0.3014,0.1796
4960,1186,736,34.393,34.155,0.0225,-0.0522,9.7918,0.1423,-0.694,-0.0327
4965,1183,745,34.437,34.366,-0.0297,-0.0514,9.8568,0.299,0.6478,0.4591
4970,1188,760,34.375,34.299,0.0329,0.0931,9.8179,0.8345,0.3203,0.2043
4975,1190,762,34.462,34.328,-0.004,0.0402,9.8751,0.5726,-0.2398,0.0981
4980,1187,769,34.385,34.308,-0.0478,-0.0007,9.7974,1.0803,-0.4176,-0.5089
4985,1185,782,34.404,34.282,0.0648,0.0521,9.7769,-0.3758,-0.4398,0.4152
4990,1194,790,34.311,34.426,-0.0131,0.0727,9.8067,0.0715,0.0179,-0.1819
4995,1178,801,34.4,34.391,-0.0128,-0.0259,9.8075,-0.1966,0.7582,0.4185
5000,1179,813,34.484,34.366,-0.0061,-0.044,9.8352,0.3389,-0.8941,0.5218
5005,1175,820,34.333,34.43,0.0555,0.0354,9.7297,0.1834,-0.1363,0.0063
5010,1172,827,34.384,34.31,-0.0582,-0.0287,9.7055,-0.5541,0.7169,-0.0085
5015,1167,841,34.363,34.345,-0.0685,0.007,9.819,0.5437,0.106,-0.5313
5020,1165,845,34.415,34.308,-0.0153,0.0286,9.7885,1.0979,-0.0959,-0.684
5025,1165,852,34.372,34.296,-0.0705,-0.0653,9.8016,0.1718,0.6718,0.0426
5030,1161,864,34.449,34.243,0.031,-0.0286,9.8558,-0.4878,-0.8062,-0.1504
5035,1160,873,34.388,34.291,-0.019,-0.0016,9.8334,-0.0753,0.3869,-0.8972
5040,1154,875,34.436,34.274,-0.069,-0.0827,9.7252,-0.4709,0.6752,0.7022
5045,1154,882,34.451,34.352,-0.0595,-0.0271,9.8204,0.0741,-0.2714,-0.8104
5050,1146,892,34.343,34.302,0.0638,-0.0462,9.8395,0.48,-0.149,0.2162
5055,1136,898,34.379,34.267,-0.0043,-0.0659,9.8986,-0.0808,0.503,-0.1862
5060,1132,899,34.349,34.323,0.0456,0.0083,9.7495,-0.8013,-0.2337,0.0342
5065,1134,905,34.418,34.345,0.0026,0.0105,9.8172,-0.0537,0.2379,-1.2002
5070,1141,913,34.439,34.295,0.1,0.0269,9.795,-0.1533,-0.5897,0.0372
5075,1126,916,34.388,34.381,0.0742,-0.1005,9.7759,-1.1627,0.629,0.752
5080,1136,920,34.326,34.419,0.0171,-0.0125,9.9236,0.5354,-0.8042,-0.8909
5085,1114,923,34.397,34.407,0.0078,0.0021,9.8425,0.2039,0.5288,0.3674
5090,1130,922,34.365,34.339,0.0584,0.068,9.8534,-0.8577,-0.3414,0.5723
5095,1120,925,34.407,34.333,-0.0174,-0.008,9.8672,-0.2216,-0.4755,0.21
5100,1111,929,34.341,34.392,-0.0268,-0.0351,9.7971,0.1704,-0.4991,-0.0597
5105,1108,924,34.378,34.366,-0.0981,-0.0184,9.8059,0.0776,0.1119,-0.742
5110,1107,925,34.416,34.346,0.0102,0.0153,9.779,0.3689,-0.9581,0.5981
5115,1107,931,34.345,34.382,-0.0491,-0.0954,9.8358,0.2874,-0.4155,0.4664
5120,1098,927,34.335,34.312,-0.0359,-0.0487,9.8404,-0.9106,-0.7584,0.0521
5125,1102,927,34.385,34.352,-0.1206,0.0302,9.7601,0.449,-0.3309,-0.6691
5130,1098,930,34.389,34.37,0.0394,0.0286,9.8644,-0.209,0.0395,-0.5577
5135,1095,928,34.323,34.279,-0.0664,-0.0341,9.7422,0.4995,-0.4361,-0.1104
5140,1092,927,34.274,34.357,-0.0169,-0.0723,9.7509,-0.0946,0.0508,0.1265
5145,1094,922,34.423,34.335,-0.0407,-0.0034,9.8367,-0.7099,0.1604,0.4875
5150,1082,925,34.338,34.305,-0.0248,-0.0349,9.9013,-0.3161,-0.5915,-0.5579
5155,1089,924,34.47,34.224,-0.0293,-0.0704,9.8205,-0.457,-0.1595,-1.2497
5160,1081,923,34.43,34.37,0.0469,0.024,9.7909,-1.0118,-0.5459,0.1224
5165,1074,924,34.462,34.295,0.0176,-0.0118,9.8298,-0.0126,-0.0898,-0.6031
5170,1079,909,34.39,34.297,-0.0171,0.0542,9.7744,0.2272,-0.1437,0.9917
5175,1082,914,34.387,34.33,0.0793,-0.0163,9.8098,0.7759,-0.1251,-0.1503
5180,1071,914,34.413,34.317,-0.0086,0.0106,9.8277,-0.6132,-0.1311,0.1329
5185,1061,906,34.299,34.315,-0.0077,-0.0091,9.805,0.2337,-0.2884,-0.4978
5190,1069,904,34.439,34.331,-0.0392,-0.037,9.7841,-0.0541,-0.2022,-0.2729
5195,1065,900,34.402,34.338,-0.0588,0.097,9.7857,0.4449,0.6177,-0.1478
5200,1057,900,34.373,34.398,0.0708,-0.0239,9.8487,-0.2312,0.7115,0.091
5205,1044,900,34.332,34.357,-0.0359,-0.0065,9.7831,-0.5007,-0.7623,-0.4061
5210,1039,890,34.364,34.379,-0.0082,-0.0,9.7133,-0.6012,0.2057,-0.2167
5215,1038,897,34.425,34.3,-0.0763,0.0124,9.7165,0.3788,-0.5328,0.3147
5220,1033,891,34.394,34.253,-0.0345,-0.006,9.7976,-1.0146,0.4961,-0.5989
5225,1028,894,34.251,34.445,-0.0279,0.0,9.7733,0.7358,-0.1987,-0.3522
5230,1022,879,34.386,34.32,0.008,0.0581,9.8084,0.6332,-0.1556,-0.4519
5235,1004,882,34.375,34.35,0.066,0.0501,9.8591,-0.6791,0.5144,-0.4478
5240,1010,881,34.436,34.277,-0.0114,0.0521,9.8183,0.0175,1.1484,0.2462
5245,998,874,34.399,34.318,0.0764,0.0675,9.7421,-0.0543,0.2206,-0.4367
5250,992,878,34.398,34.295,0.0,-0.0384,9.7489,0.3533,0.1251,-0.162
5255,985,868,34.297,34.33,0.0257,0.0054,9.927,0.388,-0.9943,-0.0183
5260,967,868,34.447,34.362,-0.0557,-0.0239,9.8059,-0.2375,-0.077,0.0103
5265,966,869,34.357,34.33,-0.0351,-0.0715,9.8587,-0.7953,-0.4337,0.0493
5270,957,870,34.442,34.297,-0.0587,0.0293,9.8728,0.2688,0.3459,-0.2239
5275,955,869,34.367,34.435,-0.0098,0.0923,9.8821,-0.0817,-0.1876,-0.1843
5280,929,863,34.347,34.328,0.0198,0.0225,9.8651,0.8758,0.5334,-0.4202
5285,921,858,34.33,34.277,-0.0988,-0.0143,9.805,-0.5972,0.6993,-0.2819
5290,916,861,34.367,34.269,-0.0432,0.0564,9.8,0.1776,0.1304,-1.046
5295,909,858,34.368,34.322,0.0324,-0.0278,9.8587,-0.5416,0.5353,0.041
5300,890,864,34.348,34.293,-0.0272,-0.0048,9.9267,0.2373,0.5891,-0.5167
5305,894,852,34.442,34.352,0.0776,0.0017,9.756,-0.9533,-0.3107,0.0941
5310,875,852,34.403,34.287,-0.0363,-0.0136,9.7248,-0.0713,0.1835,-0.2437
5315,858,851,34.329,34.404,0.0205,-0.046,9.8563,0.0907,-0.2485,-0.1167
5320,848,849,34.255,34.24,-0.0404,0.0773,9.7537,0.1016,-0.4594,-0.2822
5325,845,850,34.413,34.257,-0.0743,-0.0925,9.7564,-0.1236,0.3771,-0.6156
5330,837,848,34.354,34.377,0.0013,-0.0447,9.7826,0.0983,-0.0328,0.7259
5335,826,843,34.373,34.358,-0.0611,-0.0428,9.8316,0.3658,-0.4728,0.6428
5340,809,844,34.41,34.295,-0.0513,0.0347,9.8346,0.2393,0.2358,0.5471
5345,818,842,34.519,34.397,-0.0125,-0.0603,9.8322,-0.2871,-0.4147,0.1747
5350,797,835,34.42,34.33,-0.0439,-0.0106,9.8517,-0.3541,0.1345,-1.1271
5355,786,834,34.419,34.316,0.0409,-0.0691,9.7913,0.247,0.0199,-0.0313
5360,781,830,34.421,34.356,0.0205,0.0347,9.83,0.9463,0.6301,0.1652
5365,776,825,34.36,34.317,0.0778,-0.0989,9.8969,0.0934,0.1415,-0.4585
5370,772,820,34.355,34.307,-0.0366,-0.0571,9.8039,-0.1922,-0.8516,-0.2161
5375,777,818,34.414,34.447,0.0211,-0.0172,9.8003,-0.0416,0.5229,0.4512
5380,761,808,34.449,34.344,0.054,0.0049,9.7875,-0.2402,0.0347,0.0616
5385,757,806,34.327,34.334,0.0499,-0.0129,9.8024,0.0926,-0.0506,-0.0949
5390,758,805,34.363,34.38,-0.1216,0.0072,9.8126,0.2177,0.3055,-0.0319
5395,743,798,34.433,34.337,0.0297,0.0214,9.9032,-0.5631,0.5649,0.2584
5400,749,790,34.437,34.353,0.0286,-0.0037,9.8641,0.6669,0.4376,-0.3784
5405,748,781,34.444,34.357,-0.0027,0.0425,9.7415,-0.9554,0.4292,0.132
5410,743,775,34.339,34.311,-0.0501,-0.0854,9.7515,-0.2652,-0.2191,-0.16
5415,761,769,34.404,34.345,0.0411,0.0081,9.7869,0.149,-1.3319,-0.1133
5420,744,765,34.349,34.37,-0.0438,-0.0916,9.8369,-0.2822,0.5989,-0.3782
5425,759,758,34.395,34.24,0.046,0.0096,9.9533,-0.2535,0.1872,0.0305
5430,756,752,34.438,34.271,0.0111,0.0484,9.8063,0.1066,0.1058,-0.0675
5435,769,742,34.476,34.294,-0.0427,-0.1003,9.8511,0.4443,-0.3134,-0.2645
5440,762,733,34.43,34.395,-0.0234,-0.0504,9.828,-0.4835,-0.1504,0.7262
5445,768,728,34.397,34.272,0.0391,0.003,9.9342,0.0901,-0.0791,-0.8825
5450,782,720,34.421,34.313,-0.0076,0.0234,9.7702,0.3226,0.0843,-0.3451
5455,785,716,34.436,34.363,0.1108,-0.0232,9.887,-0.1911,-0.521,-0.7098
5460,797,711,34.426,34.323,-0.0318,0.0236,9.7864,-0.9975,0.8737,-0.2121
5465,806,700,34.418,34.345,0.0328,0.0171,9.7781,-0.6078,0.6683,-0.2169
5470,819,696,34.373,34.293,-0.0394,-0.0063,9.8039,0.7576,-0.1392,-0.116
5475,814,689,34.424,34.362,-0.0435,0.0418,9.7926,0.3894,-0.2015,0.7106
5480,827,681,34.39,34.381,0.0794,0.1017,9.801,0.5698,0.2456,0.5175
5485,840,672,34.365,34.324,0.0271,0.036,9.8224,0.3224,0.0835,-0.2186
5490,857,663,34.494,34.191,0.0515,-0.0364,9.7837,-0.991,0.9247,-0.2983
5495,872,666,34.31,34.358,-0.019,0.0169,9.7964,0.2484,0.23,0.8391
5500,880,656,34.334,34.274,-0.0225,0.0958,9.8515,-0.0902,-0.3406,0.4553
5505,898,648,34.421,34.334,0.0593,-0.0087,9.7812,0.1188,-0.5744,0.102
5510,912,646,34.441,34.351,0.0223,-0.0064,9.8638,0.36,0.4607,0.5067
5515,920,643,34.384,34.286,-0.0173,-0.0221,9.8253,-0.5403,0.3766,0.552
5520,943,637,34.429,34.22,0.0258,0.046,9.8822,-0.1487,0.1064,-0.1826
5525,955,636,34.436,34.357,0.0327,-0.0182,9.6616,0.3347,0.0464,0.7055
5530,957,630,34.433,34.359,0.0294,0.065,9.7686,0.1224,-0.5574,0.3599
5535,982,633,34.338,34.269,-0.0523,0.0099,9.8292,-0.5442,0.8995,0.378
5540,996,631,34.394,34.317,-0.0708,0.0186,9.8034,0.292,0.3453,-0.8891
5545,1008,630,34.365,34.348,-0.0122,0.002,9.8102,-0.1101,0.1866,-0.295
5550,1020,628,34.382,34.38,0.034,0.0333,9.7518,-0.2418,0.1395,-0.2008
5555,1032,634,34.333,34.336,-0.0224,-0.0525,9.7417,-0.0601,-1.1216,0.6737
5560,1046,625,34.507,34.322,-0.1083,0.0348,9.722,0.4268,-0.188,0.9718
5565,1054,629,34.366,34.326,0.0763,-0.0929,9.7454,0.1646,-0.0792,0.5323
5570,1058,630,34.431,34.343,-0.0145,-0.0083,9.8111,0.3992,0.1347,0.129
5575,1081,629,34.403,34.356,-0.001,-0.0738,9.7361,-0.0247,0.9774,0.868
5580,1101,635,34.426,34.373,0.0002,0.0927,9.8516,-0.0135,0.3229,-0.4103
5585,1108,641,34.302,34.355,0.0089,0.0056,9.8511,-0.0958,-0.4835,0.1108
5590,1115,637,34.344,34.358,-0.0122,0.0167,9.9255,0.3928,-0.4027,-0.0656
5595,1119,645,34.331,34.294,-0.0788,-0.04,9.7697,-0.2239,0.8405,-1.0412
5600,1132,652,34.372,34.304,0.068,-0.0959,9.8451,-0.4183,0.1244,0.6351
5605,1135,652,34.341,34.41,-0.0698,-0.0736,9.7168,-0.0074,-0.0789,-0.1468
5610,1150,665,34.335,34.316,-0.0395,0.0015,9.7273,-0.0499,0.5035,0.5281
5615,1151,670,34.439,34.382,-0.0161,-0.0051,9.7937,-0.345,-0.0944,-0.1059
5620,1166,679,34.383,34.336,-0.0065,0.0585,9.8426,-0.291,-0.1902,-0.2802
5625,1175,684,34.364,34.289,0.0494,-0.0417,9.8209,0.6645,0.1211,0.247
5630,1166,690,34.374,34.329,0.0046,-0.0349,9.8047,-0.7064,0.3794,-0.6724
5635,1173,706,34.351,34.365,0.0485,-0.0105,9.7929,0.3053,0.4203,-0.0676
5640,1169,711,34.275,34.339,0.0264,-0.0186,9.7541,0.1483,0.2932,0.0783
5645,1188,720,34.423,34.35,0.0238,0.0973,9.7064,0.4893,-0.2109,0.0604
5650,1181,728,34.389,34.345,0.0718,0.0414,9.7244,0.1635,0.4037,0.2314
5655,1184,737,34.389,34.35,0.0337,0.0559,9.7932,0.229,0.347,-1.0606
5660,1192,748,34.316,34.363,-0.0183,0.0103,9.7358,-0.0503,0.4316,0.1319
5665,1181,757,34.456,34.247,-0.0726,-0.0456,9.8195,0.2261,0.0195,0.0272
5670,1187,766,34.411,34.26,-0.0074,0.1027,9.8111,0.064,-0.8022,-0.6103
5675,1181,770,34.396,34.297,0.0162,0.0076,9.712,0.6406,-0.4828,0.1274
5680,1194,786,34.355,34.478,0.0488,0.01,9.785,0.0363,0.4725,0.4102
5685,1180,790,34.394,34.3,0.0796,-0.0107,9.8934,-0.3717,-0.2779,-0.0509
5690,1184,807,34.306,34.297,-0.095,-0.0837,9.7814,0.2883,0.6426,0.4344
5695,1183,814,34.454,34.384,-0.0677,0.0408,9.8061,0.1362,0.482,-0.5417
5700,1185,818,34.497,34.332,0.0761,0.0338,9.7929,0.1849,0.6177,0.2014
5705,1180,834,34.434,34.33,0.0428,0.0095,9.8205,0.2659,0.7235,1.0345
5710,1167,842,34.459,34.345,0.0901,-0.064,9.8481,-0.4062,-0.8572,0.5928
5715,1167,846,34.436,34.336,-0.0595,-0.0489,9.8423,0.1604,0.2835,0.0762
5720,1170,856,34.349,34.278,0.0327,-0.0529,9.8215,-0.0185,0.2,1.3311
5725,1159,866,34.408,34.244,-0.0622,0.0279,9.7781,-0.1903,0.7017,0.5463
5730,1157,868,34.407,34.324,-0.0197,-0.0432,9.8883,-0.3457,-0.4945,-0.0423
5735,1154,873,34.393,34.332,-0.0723,0.0027,9.8026,0.0802,-0.4427,0.6476
5740,1151,889,34.329,34.338,0.0143,-0.0625,9.8052,0.0901,0.2645,0.0863
5745,1150,894,34.387,34.428,0.0676,0.0537,9.8726,-0.1942,-0.0362,-0.7412
5750,1145,895,34.372,34.335,-0.0122,-0.0252,9.8519,-0.0461,-0.0906,-0.3378
5755,1133,897,34.412,34.388,0.0015,0.0556,9.7691,0.4261,-0.1901,0.6604
5760,1134,902,34.376,34.357,-0.0261,-0.0032,9.7559,-0.3613,0.1104,-0.1998
5765,1130,906,34.301,34.205,-0.0434,0.0894,9.7867,0.1663,0.4831,-0.2396
5770,1125,918,34.35,34.413,0.0046,0.0335,9.8679,-0.7643,-0.2626,0.4404
5775,1129,920,34.401,34.386,0.0225,0.0328,9.784,-0.6509,-0.6447,-0.4636
5780,1121,925,34.383,34.277,-0.019,0.0427,9.7899,0.3028,0.7166,-0.5148
5785,1120,917,34.465,34.356,0.0225,0.064,9.832,-0.9116,-0.3033,-0.4011
5790,1110,923,34.348,34.293,-0.0337,-0.0478,9.8017,-0.3775,-0.01,-0.7946
5795,1114,930,34.446,34.33,0.0645,-0.013,9.816,-0.3266,-0.1292,-0.0421
5800,1108,929,34.376,34.358,0.0368,-0.0509,9.9236,-0.1991,-0.5644,0.2663
5805,1110,926,34.378,34.305,-0.0482,-0.0221,9.7233,-0.0974,-1.6166,-0.3933
5810,1106,932,34.375,34.272,0.0872,0.0059,9.841,0.2716,-0.4611,0.6536
5815,1097,930,34.468,34.349,-0.0812,0.0014,9.752,0.4368,0.6485,0.5338
5820,1097,923,34.355,34.424,0.0022,0.0409,9.8323,0.4451,0.7515,0.1826
5825,1096,924,34.346,34.329,-0.0003,-0.0176,9.8214,0.6061,-0.2031,0.1421
5830,1097,924,34.419,34.301,0.0714,-0.0627,9.8437,0.1495,-0.2515,-0.4477
5835,1098,924,34.366,34.332,0.0386,0.0254,9.7857,-0.5289,-0.6366,-0.1714
5840,1092,924,34.464,34.301,-0.0157,-0.0054,9.7743,0.3806,0.1216,0.9997
5845,1084,924,34.415,34.297,0.0972,0.0384,9.708,0.1992,0.9004,-0.428
5850,1078,922,34.393,34.3,-0.0083,-0.0394,9.8391,-0.0422,-0.0055,-0.4891
5855,1085,920,34.314,34.365,0.1194,-0.0097,9.7773,-0.7569,-0.6632,-0.5819
5860,1075,917,34.476,34.277,0.0358,-0.0952,9.8696,0.2351,-0.3988,-0.1506
5865,1080,917,34.336,34.399,0.0611,-0.0079,9.7708,-0.9573,-1.1667,-0.9623
5870,1064,914,34.348,34.413,0.023,0.073,9.8358,0.1161,0.0085,0.2092
5875,1073,908,34.434,34.319,-0.062,0.0053,9.7999,-0.1927,-0.4758,-0.6346
5880,1059,908,34.44,34.303,-0.0455,-0.0378,9.7639,0.3678,-0.8826,0.662
5885,1071,905,34.4,34.289,-0.0499,-0.0131,9.6972,0.4905,0.4928,0.1311
5890,1066,905,34.347,34.382,0.0502,-0.0213,9.7783,0.3258,1.1435,0.135
5895,1059,903,34.298,34.286,0.0636,0.0178,9.8051,0.0197,-0.8116,-0.4526
5900,1041,899,34.387,34.364,-0.0149,0.0375,9.8131,-0.3514,-0.8406,-1.0529
5905,1041,889,34.456,34.284,0.0989,0.0552,9.7187,-0.2826,-1.0161,0.5091
5910,1041,889,34.467,34.415,-0.0013,0.05,9.78,-0.0032,-0.1285,0.7343
5915,1035,890,34.394,34.304,0.0068,0.0358,9.8811,0.3073,-0.1645,-0.0073
5920,1033,888,34.433,34.398,-0.0308,0.0285,9.8285,-0.0926,0.2631,-0.0227
5925,1023,883,34.456,34.376,0.0095,-0.0843,9.7661,0.2454,-0.0945,0.3514
5930,1017,880,34.366,34.376,0.0016,0.0974,9.757,-0.1506,-0.4671,-0.6177
5935,1004,879,34.315,34.436,0.0097,0.1217,9.8011,-0.082,0.3375,0.1722
5940,1003,878,34.437,34.297,-0.0489,-0.0046,9.717,0.7316,0.3587,0.3968
5945,999,881,34.437,34.426,-0.0813,0.0229,9.7724,0.3691,-0.1312,0.2418
5950,985,870,34.394,34.27,0.0028,-0.067,9.8418,-0.0974,0.0788,-0.6995
5955,969,876,34.436,34.418,-0.1253,-0.0211,9.7452,-0.0376,1.1559,1.0448
5960,965,868,34.372,34.334,0.0549,-0.0218,9.8524,-0.2432,-0.7765,-0.4585
5965,960,874,34.386,34.353,0.0494,0.018,9.8797,0.126,0.1273,-0.0533
5970,951,861,34.359,34.338,0.0016,0.0313,9.8147,0.4785,-0.3995,-0.0717
5975,943,867,34.326,34.224,0.018,0.029,9.8643,0.409,1.3821,0.526
5980,927,862,34.405,34.368,-0.0919,0.0682,9.8622,-0.8941,-0.8273,0.375
5985,921,856,34.468,34.298,-0.0911,-0.0649,9.7252,0.1967,-0.5861,0.3607
5990,910,858,34.399,34.347,0.0518,0.0141,9.7621,0.0191,-0.1297,0.4388
5995,898,859,34.424,34.424,0.0161,0.0727,9.7985,-0.2194,0.3831,0.2722
6000,882,855,34.333,34.39,-0.0493,-0.0131,9.7806,0.6422,0.2011,-0.2252
6005,872,851,34.378,34.275,0.0333,0.0889,9.7243,0.6845,-0.3801,0.4148
6010,868,858,34.408,34.222,0.0277,-0.0289,9.797,0.1035,-0.1873,-0.184
6015,864,848,34.298,34.255,-0.0051,-0.0221,9.7854,-0.1792,-0.0593,-0.0888
6020,847,845,34.434,34.348,-0.0868,0.0245,9.7906,0.7069,-0.3038,0.1366
6025,843,844,34.429,34.365,0.0253,-0.0214,9.7974,-0.2884,0.6493,-0.2094
6030,827,836,34.331,34.337,-0.0258,0.0217,9.7913,0.0215,0.0505,0.0384
6035,820,837,34.393,34.412,0.0511,-0.03,9.7999,0.0999,-0.47,0.5339
6040,811,840,34.404,34.328,0.0192,0.0436,9.823,-0.4411,0.0675,-0.7232
6045,795,840,34.386,34.349,-0.1066,-0.0218,9.8802,-0.4551,0.0878,-0.2039
6050,801,827,34.386,34.307,0.0243,-0.0226,9.7951,-0.4208,0.4597,0.9237
6055,785,824,34.464,34.287,0.0526,0.0353,9.868,-0.1721,-0.0931,-0.9562
6060,775,826,34.41,34.352,-0.0407,-0.1007,9.8505,-0.1201,1.0595,0.012
6065,775,822,34.385,34.308,-0.0057,-0.0439,9.8249,0.4669,-0.0517,0.2157
6070,768,813,34.434,34.393,0.0438,-0.0553,9.7706,0.1571,-0.4065,-0.3546
6075,753,809,34.328,34.304,-0.0252,-0.0096,9.8479,-0.5309,-0.4457,-0.1528
6080,764,806,34.379,34.335,0.0238,0.0505,9.8497,-1.1723,0.4959,0.2812
6085,748,802,34.433,34.364,-0.014,-0.0029,9.7551,-0.5697,-0.7862,0.9934
6090,758,791,34.376,34.258,-0.0299,-0.0834,9.8613,-0.2404,-0.6411,-0.4779
6095,742,789,34.363,34.299,-0.0311,-0.005,9.9198,-0.4679,-0.3843,0.8989
6100,754,778,34.427,34.383,-0.0434,0.0631,9.6987,1.145,-0.8004,-0.5187
6105,749,778,34.345,34.407,-0.0368,-0.021,9.7392,0.1008,0.6361,-0.4312
6110,756,767,34.398,34.338,-0.0063,-0.1116,9.8812,0.2326,-0.27,0.2399
6115,754,761,34.36,34.365,-0.0086,-0.0047,9.8839,0.1361,-0.185,0.2221
6120,752,759,34.331,34.434,-0.0965,-0.0858,9.7351,-0.025,0.2369,0.0631
6125,763,747,34.479,34.25,-0.1133,0.0006,9.7942,-1.1031,-0.1012,-0.3537
6130,761,743,34.292,34.424,-0.0069,-0.0056,9.7893,0.0117,-0.1938,0.547
6135,770,736,34.326,34.422,-0.0176,0.0234,9.8238,-0.6093,-1.1548,-0.1524
6140,777,730,34.412,34.387,0.0076,-0.0588,9.7698,-0.2066,0.6425,-0.6297
6145,774,724,34.417,34.326,0.0761,0.0817,9.803,-1.1913,0.392,-0.1354
6150,784,717,34.411,34.407,0.0359,-0.0106,9.777,0.0989,0.0062,-0.3796
6155,793,708,34.39,34.388,0.0709,0.0928,9.8336,-0.0114,-0.2721,-0.2525
6160,809,698,34.405,34.313,0.0192,0.0231,9.804,-0.2009,0.3166,0.0718
6165,817,691,34.346,34.37,0.0058,-0.0159,9.8144,-0.2616,0.4617,-0.3545
6170,826,690,34.4,34.36,-0.0138,0.0122,9.7453,-0.4453,0.352,-0.7414
6175,831,680,34.501,34.332,-0.0433,0.029,9.7996,-0.3773,-0.8562,0.141
6180,844,677,34.44,34.399,0.0281,0.0764,9.8006,-0.3472,-0.3557,-0.0037
6185,851,669,34.389,34.334,-0.0313,-0.0176,9.7273,-0.2359,-0.1952,-0.1871
6190,870,662,34.478,34.305,-0.0841,-0.0016,9.9174,1.092,-0.743,-0.568
6195,883,650,34.456,34.356,0.0547,0.0601,9.8428,-0.0124,-0.5057,-0.144
6200,892,652,34.345,34.361,0.0068,0.0691,9.7848,-0.9101,-0.2261,0.416
6205,911,646,34.382,34.381,0.0386,0.0362,9.8238,-0.6925,0.1543,0.5785
6210,910,648,34.449,34.431,-0.0334,0.0465,9.8314,0.4753,0.483,0.317
6215,937,637,34.282,34.351,-0.0534,-0.0446,9.7895,0.4274,0.1882,-0.2359
6220,941,635,34.515,34.394,-0.0157,0.073,9.8059,0.846,-0.6404,-0.2761
6225,970,636,34.448,34.23,0.0018,0.0854,9.775,-0.1774,0.8395,0.0391
6230,987,629,34.484,34.399,-0.0224,0.0752,9.7857,0.668,0.4858,-0.4023
6235,983,628,34.405,34.302,0.0197,-0.0771,9.8775,0.3157,1.0239,-0.6216
6240,1008,629,34.367,34.369,0.0397,-0.0418,9.8374,0.9518,0.64,0.0784
6245,1021,631,34.409,34.351,0.0681,0.1253,9.8298,-0.1896,0.6982,-0.1139
6250,1025,631,34.393,34.296,0.0372,0.052,9.761,-0.4306,-0.0116,0.334
6255,1043,626,34.427,34.222,0.082,0.0116,9.8963,0.2139,0.019,-0.3274
6260,1054,631,34.433,34.256,0.0019,0.0764,9.8338,0.4358,-0.3281,1.8714
6265,1057,632,34.408,34.33,0.077,0.023,9.7083,-0.558,1.7985,0.141
6270,1084,631,34.428,34.379,0.0174,0.0066,9.7011,0.0916,-0.8398,-0.5486
6275,1089,642,34.275,34.324,0.0363,-0.0086,9.8413,0.3006,-0.1404,-0.0062
6280,1114,639,34.36,34.43,0.0002,-0.0251,9.8054,-0.0839,0.1871,0.0479
6285,1121,640,34.4,34.333,-0.0153,-0.0828,9.8798,-0.0239,0.3797,0.3151
6290,1119,651,34.377,34.275,-0.0182,0.006,9.7586,0.0338,0.178,-0.1304
6295,1125,649,34.436,34.288,-0.0304,-0.0379,9.7873,0.3527,0.4119,0.6646
6300,1138,657,34.401,34.36,0.0551,-0.0212,9.8321,0.1306,-0.474,-0.5974
6305,1144,666,34.413,34.346,-0.0835,0.0288,9.8477,-0.4735,-1.2561,0.0908
6310,1159,671,34.362,34.256,0.0135,-0.0309,9.8369,-0.2105,0.1536,0.2935
6315,1168,679,34.377,34.356,-0.0284,0.0649,9.8389,-0.1195,-0.3674,-0.3496
6320,1169,689,34.433,34.263,0.0575,0.0554,9.8091,0.6568,-0.166,-0.0625
6325,1180,692,34.313,34.326,0.0229,0.0556,9.8038,0.5123,0.1521,1.1094
6330,1176,700,34.348,34.329,0.0159,-0.059,9.8058,0.5893,0.4812,0.067
6335,1168,713,34.495,34.411,-0.04,0.0312,9.7709,-0.0639,-1.452,0.6912
6340,1188,722,34.329,34.371,0.0227,-0.0011,9.8505,0.2672,-0.424,-0.1838
6345,1181,731,34.418,34.313,-0.0034,0.0056,9.8294,-0.4352,0.3894,0.5755
6350,1185,737,34.347,34.391,-0.0337,0.0754,9.8566,0.2779,-0.1015,0.1811
6355,1187,737,34.37,34.399,-0.01,0.0289,9.836,0.0128,-0.9701,-0.3857
6360,1190,757,34.428,34.266,-0.0809,-0.0923,9.8626,0.2073,-0.0408,0.1397
6365,1188,761,34.398,34.316,-0.0734,0.0888,9.7555,-0.0256,0.5508,-0.8828
6370,1184,778,34.362,34.376,0.0094,-0.0179,9.8854,0.2919,-0.8216,0.0943
6375,1190,783,34.414,34.362,-0.0632,-0.0717,9.8476,0.2442,-0.4408,-0.5766
6380,1184,789,34.427,34.39,0.0525,0.0673,9.8419,0.0403,-0.6931,-0.2406
6385,1187,795,34.425,34.296,-0.0952,-0.0305,9.8367,0.5661,-0.5453,-0.2974
6390,1177,806,34.371,34.277,0.0105,0.029,9.8609,-0.1487,-0.3443,0.2439
6395,1177,825,34.39,34.254,-0.0106,-0.0033,9.8132,0.2996,-0.6707,0.8639
6400,1179,835,34.481,34.303,0.0404,0.0507,9.8867,0.1055,-0.9214,0.4601
6405,1174,836,34.374,34.252,-0.0252,-0.0622,9.8382,0.2412,0.1789,-0.6246
6410,1173,847,34.42,34.35,-0.0327,-0.0552,9.8613,0.3445,-0.5758,-0.1114
6415,1171,856,34.385,34.288,-0.0476,-0.0127,9.8393,-0.2486,-0.2551,1.0001
6420,1160,863,34.434,34.365,-0.0118,-0.05,9.7251,-0.3065,-0.6588,0.1935
6425,1160,869,34.398,34.387,-0.078,0.0279,9.738,0.0227,-0.2098,-0.5274
6430,1153,880,34.38,34.356,0.0395,0.0896,9.7441,0.6436,-0.1978,-0.4073
6435,1147,884,34.446,34.317,-0.0662,0.0633,9.6997,0.847,-0.2027,1.1758
6440,1149,886,34.442,34.368,0.05,-0.095,9.8139,0.0371,-0.4823,-0.2678
6445,1148,896,34.471,34.31,0.0039,0.0184,9.8383,-0.7379,-0.3635,1.3498
6450,1141,902,34.384,34.343,-0.0495,-0.0474,9.8722,-0.0573,-0.6411,0.312
6455,1134,906,34.28,34.343,-0.0691,0.076,9.8164,0.3023,-0.9565,-0.1137
6460,1125,911,34.418,34.381,-0.0279,-0.0445,9.7698,-0.1314,0.222,0.5614
6465,1133,914,34.408,34.284,0.0272,-0.0345,9.7155,-0.4618,-0.7092,0.4187
6470,1128,915,34.341,34.342,0.0174,0.0204,9.8641,-0.5536,0.262,-0.6256
6475,1111,918,34.385,34.309,-0.0217,-0.1413,9.807,-0.0551,0.5898,0.0341
6480,1126,919,34.443,34.344,-0.0786,0.0174,9.7617,0.8941,0.2293,-0.2345
6485,1117,928,34.417,34.339,0.0233,0.0236,9.7904,-0.0049,0.7693,0.268
6490,1102,921,34.447,34.355,-0.059,0.074,9.748,0.0664,-0.1049,0.4172
6495,1108,924,34.347,34.346,0.0879,-0.067,9.8381,0.1088,1.2265,-0.1384
6500,1105,929,34.288,34.342,-0.0023,0.031,9.836,0.545,0.5169,0.1822
6505,1108,931,34.356,34.344,0.0176,0.0955,9.832,0.5841,-0.8994,0.1
6510,1108,927,34.394,34.361,0.0524,0.0169,9.8015,-0.2118,0.0537,-0.2975
6515,1103,931,34.49,34.232,-0.0231,-0.048,9.83,0.1044,-0.0231,0.9559
6520,1096,928,34.315,34.36,-0.0439,0.0225,9.9008,0.3967,0.1876,-0.7193
6525,1099,930,34.43,34.245,0.0516,0.0007,9.8011,-0.1073,-0.6628,-0.3418
6530,1090,927,34.458,34.389,0.0503,-0.0256,9.8047,-0.2582,-0.6006,-0.0266
6535,1084,922,34.442,34.287,-0.0572,-0.0348,9.8515,-0.9123,0.2337,-0.2905
6540,1098,920,34.461,34.323,0.0163,-0.0026,9.8954,-0.3494,0.6103,-0.5764
6545,1077,927,34.442,34.376,0.0186,-0.0448,9.7968,0.3493,0.056,-0.1874
6550,1080,920,34.493,34.379,0.0477,0.0805,9.7969,0.2764,-0.0377,-0.5449
6555,1077,918,34.308,34.343,-0.0516,0.0332,9.8271,-0.0776,-0.078,-0.113
6560,1075,913,34.374,34.289,0.04,-0.1101,9.7952,-0.8331,0.5017,0.291
6565,1071,912,34.462,34.3,-0.0045,-0.0948,9.7383,0.3617,-0.5003,-0.0309
6570,1076,915,34.376,34.367,0.0632,0.0222,9.912,-0.8446,-0.1874,0.3723
6575,1059,902,34.498,34.382,-0.0048,-0.0779,9.7265,-0.4135,-0.2003,0.0648
6580,1064,903,34.401,34.31,-0.0509,0.0008,9.8566,0.369,-0.0288,-0.3688
6585,1059,902,34.364,34.299,0.0026,0.0173,9.7897,-0.3736,0.1439,-0.3756
6590,1053,896,34.404,34.407,0.0203,0.0397,9.8011,0.9036,0.4971,-0.3032
6595,1042,891,34.351,34.349,0.0039,-0.0235,9.8389,-0.3951,-0.6857,-0.0279
6600,1052,890,34.351,34.288,0.0476,0.0304,9.7741,0.6781,0.0855,0.198
6605,1042,890,34.371,34.322,-0.0468,-0.0339,9.765,-0.1566,-0.1098,-0.5353
6610,1030,885,34.416,34.392,-0.0247,-0.0243,9.8367,-0.3972,1.1162,0.0107
6615,1029,888,34.418,34.335,0.0144,0.0408,9.8508,-0.3407,0.3159,0.3304
6620,1017,882,34.435,34.337,0.0131,-0.0064,9.7779,0.2753,0.7091,-0.0865
6625,1018,883,34.497,34.335,-0.0139,0.1067,9.8676,0.665,0.5781,0.0788
6630,1019,883,34.333,34.3,-0.0511,0.0201,9.7451,-0.5425,-0.2354,0.1458
6635,997,875,34.372,34.376,0.0156,-0.021,9.8542,-0.5668,0.7126,-0.239
6640,999,878,34.337,34.308,-0.0013,0.0532,9.8678,0.8716,-0.1898,0.1255
6645,991,873,34.465,34.382,0.0954,0.0042,9.8567,0.2763,-0.7908,0.3871
6650,975,873,34.359,34.428,-0.1002,0.0022,9.8054,-0.332,0.0491,-0.5394
6655,962,869,34.451,34.457,0.0055,-0.014,9.7564,0.5496,0.92,-0.0298
6660,953,871,34.449,34.335,-0.0459,-0.0911,9.8023,0.0081,0.1397,0.4719
6665,949,870,34.382,34.31,-0.0247,-0.0566,9.7624,-0.4437,0.5826,0.223
6670,939,863,34.312,34.407,0.0964,0.0324,9.8166,-0.2325,-0.3881,0.0446
6675,929,864,34.34,34.342,0.0027,-0.103,9.8189,-0.0171,0.1784,0.4757
6680,917,858,34.374,34.36,-0.0337,-0.0216,9.8006,0.72,-0.2008,-0.4716
6685,909,857,34.499,34.337,0.0312,0.0769,9.7988,0.3028,-0.1677,-0.7212
6690,897,859,34.442,34.401,0.0335,0.0015,9.7507,0.1082,0.7055,-0.2872
6695,889,856,34.424,34.28,0.0707,-0.0361,9.7883,-0.9547,-0.0421,-0.136
6700,887,855,34.438,34.198,0.0023,0.0078,9.8355,-0.0828,0.4928,-0.5675
6705,874,854,34.387,34.363,0.0342,-0.0309,9.7557,-0.4566,0.7884,0.3583
6710,855,850,34.452,34.387,-0.0346,0.089,9.8386,0.4449,-0.1554,0.6417
6715,845,846,34.347,34.321,0.0567,-0.0174,9.8298,-0.0016,-0.2141,-0.5842
6720,835,849,34.417,34.313,0.0543,-0.0802,9.7972,-0.3704,-0.0524,-0.6643
6725,821,841,34.354,34.295,0.026,-0.0301,9.7895,0.3465,0.4009,0.0189
6730,811,839,34.373,34.31,-0.0512,-0.0401,9.8901,-1.2103,-0.5163,-0.3571
6735,801,837,34.433,34.368,-0.0049,-0.0221,9.7725,0.5737,-0.7236,0.313
6740,791,833,34.343,34.473,0.071,0.0821,9.834,1.2419,-0.0924,-0.5785
6745,793,833,34.32,34.279,0.0384,0.0337,9.8084,-0.1041,0.0124,0.2614
6750,794,826,34.415,34.3,0.0421,0.0439,9.8086,-0.4867,-0.2515,-0.3201
6755,777,825,34.422,34.334,0.1205,-0.0267,9.906,0.3837,0.0199,-0.3811
6760,768,819,34.371,34.381,0.0079,-0.0264,9.8707,0.1698,0.1625,0.2838
6765,758,814,34.419,34.355,-0.0249,-0.088,9.8858,0.054,-0.7542,-0.7776
6770,758,808,34.381,34.36,-0.0055,0.0091,9.8652,0.1328,0.836,0.0619
6775,759,805,34.409,34.284,-0.1291,-0.0515,9.7787,-0.2809,-0.7532,0.1867
6780,745,799,34.431,34.272,0.0309,0.0822,9.7112,0.3715,-0.3834,0.2144
6785,759,794,34.448,34.295,0.0519,0.0821,9.852,-0.2985,-0.3147,-0.5259
6790,755,787,34.439,34.278,0.0569,-0.0421,9.8904,-0.0778,0.2793,0.0539
6795,738,776,34.424,34.374,0.0089,-0.0133,9.8015,0.433,0.0579,-0.345
6800,747,775,34.432,34.334,-0.0259,0.0376,9.8781,0.6243,-0.5229,0.0676
6805,748,769,34.502,34.401,-0.0267,-0.0576,9.8285,-0.6953,-0.3773,0.1247
6810,758,767,34.436,34.402,-0.032,0.0126,9.7525,-0.3648,-0.6551,0.0108
6815,751,759,34.387,34.321,0.0503,-0.0434,9.8336,0.1811,0.1868,0.0023
6820,754,750,34.478,34.308,0.0507,0.0054,9.749,-0.1834,-0.0218,0.5227
6825,756,741,34.432,34.342,0.0136,0.0398,9.7793,-0.4698,-0.3741,-0.4055
6830,765,735,34.326,34.279,0.0477,-0.0415,9.8092,0.0391,-0.7193,-0.8368
6835,770,726,34.422,34.315,0.0821,-0.0992,9.8215,-0.2668,-0.0759,0.0143
6840,768,718,34.407,34.304,0.007,0.019,9.8826,0.1021,-0.0347,-1.031
6845,792,715,34.423,34.343,-0.0288,-0.028,9.7692,-0.8024,-0.7023,0.8735
6850,793,706,34.483,34.42,-0.0779,0.0184,9.7969,0.2165,0.7515,-0.8074
6855,803,697,34.368,34.394,0.0462,-0.0352,9.7628,-0.5173,-0.0371,-0.8036
6860,814,698,34.461,34.399,0.0176,-0.0089,9.8958,-0.5084,0.7841,0.3208
6865,820,687,34.414,34.399,0.0176,-0.0601,9.7835,0.5641,0.6165,-0.029
6870,827,683,34.475,34.306,-0.0063,-0.0899,9.8345,0.0575,0.3029,-0.0888
6875,841,676,34.37,34.305,-0.0753,-0.0126,9.7516,1.4958,0.0824,0.3779
6880,854,670,34.396,34.335,-0.0566,-0.0219,9.8062,0.0742,0.1283,-0.0815
6885,874,661,34.446,34.328,0.065,-0.002,9.8025,-0.3853,-0.1163,0.2646
6890,876,660,34.335,34.354,-0.0492,-0.0869,9.7368,-0.2278,-0.0788,0.4016
6895,898,652,34.435,34.31,0.0268,-0.0473,9.891,-0.1529,-0.2781,0.3851
6900,913,645,34.452,34.339,0.0086,-0.0834,9.8069,0.16,0.0324,0.153
6905,925,647,34.276,34.357,-0.0543,-0.0911,9.8195,-0.2884,-1.1874,-0.1204
6910,936,638,34.401,34.379,0.0527,-0.0202,9.7882,-0.548,-0.0646,0.3422
6915,952,637,34.511,34.373,-0.0438,-0.0459,9.8471,-0.1308,-0.8189,-0.3482
6920,973,634,34.33,34.429,0.0013,0.0238,9.7811,0.4581,0.8041,0.327
6925,972,633,34.427,34.381,-0.0137,-0.0442,9.7462,-1.1729,0.1865,0.3502
6930,990,627,34.366,34.318,0.0084,0.0164,9.7463,0.2758,-1.0731,-0.3731
6935,999,628,34.523,34.382,0.04,0.0016,9.7589,-0.2964,-0.137,0.3064
6940,1022,627,34.49,34.278,-0.0362,0.0243,9.8819,0.0111,0.2908,0.501
6945,1027,628,34.424,34.445,-0.0617,0.0188,9.821,-0.2668,-0.5139,-0.0957
6950,1041,627,34.462,34.238,-0.0321,0.0597,9.8313,-0.0124,0.3306,0.1898
6955,1056,632,34.44,34.334,0.0026,0.0216,9.7225,-0.0823,0.7876,0.5015
6960,1065,632,34.45,34.366,0.0254,-0.0462,9.837,0.0926,-0.3864,0.4376
6965,1073,631,34.479,34.217,0.0285,-0.0749,9.791,-0.1082,-0.141,0.0838
6970,1095,633,34.439,34.372,-0.0582,0.0586,9.7357,0.4988,-0.2291,-0.0439
6975,1102,637,34.465,34.348,-0.028,0.0856,9.8251,0.2835,0.027,-0.3924
6980,1120,646,34.431,34.29,0.001,0.0861,9.7913,0.4117,-0.5938,-0.1381
6985,1123,647,34.417,34.346,0.0478,0.0296,9.8694,-0.5589,-0.3842,-0.3397
6990,1135,656,34.389,34.409,0.0111,0.078,9.7543,-0.4063,-1.0022,0.2584
6995,1133,649,34.423,34.373,0.0629,0.085,9.7672,-0.3712,-0.5464,-0.7883
7000,1139,660,34.337,34.364,-0.0151,0.0093,9.8828,-0.429,0.9407,-0.199
7005,1156,673,34.511,34.309,0.0606,0.0831,9.812,-0.0898,-0.5613,0.0659
7010,1154,673,34.418,34.258,-0.0133,0.046,9.7655,-0.1876,-0.6489,-0.3333
7015,1177,687,34.377,34.428,0.058,-0.0629,9.7599,0.267,-0.5508,1.1799
7020,1178,697,34.486,34.275,0.0028,0.0416,9.8365,-0.5712,-0.9648,0.5966
7025,1175,699,34.374,34.376,0.1037,-0.0738,9.7766,-1.0352,-0.0754,-0.1977
7030,1178,709,34.404,34.314,-0.0904,-0.0532,9.8581,-0.0111,0.6369,-0.211
7035,1189,719,34.486,34.396,-0.0071,0.0062,9.7862,0.4961,-0.3471,1.3256
7040,1191,727,34.4,34.264,0.0577,0.0429,9.7805,0.5473,-0.1117,-1.2984
7045,1192,738,34.423,34.359,-0.0312,-0.0175,9.8508,0.3891,-0.114,-0.073
7050,1189,747,34.472,34.392,0.0131,-0.0214,9.7708,0.7686,-0.8388,0.6992
7055,1190,756,34.498,34.352,-0.0139,-0.0014,9.7829,0.6122,-0.9577,-0.0075
7060,1177,766,34.352,34.354,-0.0338,-0.0201,9.7487,-0.7386,-0.1428,0.2713
7065,1190,775,34.347,34.349,0.0204,-0.0014,9.8062,-0.2196,-0.2779,0.0871
7070,1186,780,34.356,34.397,-0.0053,-0.0253,9.7672,0.2191,1.0753,0.2844
7075,1187,797,34.306,34.465,-0.0678,-0.0205,9.7524,-0.2515,0.1833,-0.2872
7080,1189,801,34.406,34.369,-0.0432,-0.0042,9.8495,-0.505,0.9422,-0.6414
7085,1176,816,34.311,34.358,0.0182,-0.0234,9.764,-0.1122,-0.1416,0.3197
7090,1182,822,34.367,34.376,0.0206,0.0158,9.7983,-0.518,0.6585,0.1317
7095,1176,833,34.429,34.333,0.0556,0.0898,9.7647,-0.6164,0.5657,-0.0406
7100,1171,835,34.479,34.414,-0.1404,0.0189,9.7764,0.3518,0.2423,0.7417
7105,1166,849,34.416,34.346,0.0176,0.0293,9.9071,-0.7337,0.1594,1.0887
7110,1180,856,34.392,34.297,0.0199,0.0155,9.876,-0.7147,-0.3639,0.4407
7115,1165,864,34.343,34.355,0.0453,0.0242,9.8427,-0.1812,-0.1145,-0.2024
7120,1161,872,34.302,34.286,-0.0443,0.0416,9.7844,-0.5254,-0.1737,1.1778
7125,1162,879,34.37,34.395,-0.0133,0.0159,9.8387,-0.0552,-0.4715,0.9269
7130,1161,884,34.435,34.376,0.0863,0.0236,9.8209,0.9043,0.1697,-0.1287
7135,1150,887,34.294,34.402,0.0274,-0.0301,9.8281,0.1384,-0.6315,0.5322
7140,1136,896,34.36,34.307,0.0022,0.0246,9.8196,-0.1042,0.2963,0.1348
7145,1145,900,34.507,34.336,0.0646,-0.0369,9.8496,0.5188,-0.3526,0.7152
7150,1138,906,34.474,34.214,0.0271,-0.0083,9.7012,-0.3336,1.8911,-0.0076
7155,1128,908,34.49,34.342,0.0021,-0.0939,9.8153,0.3824,-0.6388,-0.1665
7160,1134,916,34.398,34.373,-0.0277,-0.0297,9.7907,-0.5859,-0.2239,0.5707
7165,1123,920,34.446,34.338,-0.0204,-0.0562,9.8312,0.5238,0.2991,0.0192
7170,1122,921,34.413,34.33,-0.0421,0.0229,9.7515,-0.2144,-0.664,0.2436
7175,1115,927,34.399,34.389,-0.1546,0.0534,9.8283,-0.1638,0.2713,0.2604
7180,1110,925,34.369,34.3,0.0452,0.0505,9.7369,-0.2741,0.441,-0.2441
7185,1120,927,34.48,34.277,0.0177,-0.0157,9.7979,-0.4211,-0.5717,-0.2332
7190,1108,930,34.353,34.309,0.042,-0.0381,9.7841,-1.1366,-0.0893,0.5665
7195,1109,929,34.37,34.331,0.0198,-0.0207,9.7953,-0.1079,-0.3692,-0.2098
7200,1096,931,34.356,34.318,0.0175,0.0254,9.8488,-0.4118,-0.0053,-1.2029
7205,1095,931,34.444,34.297,0.0342,-0.0311,9.8355,-0.2554,-0.06,-0.7636
7210,1097,927,34.444,34.417,-0.0166,0.0661,9.7821,0.1146,0.1523,-0.0392
7215,1090,927,34.395,34.381,-0.0163,0.0193,9.8268,-0.0544,-0.0734,-0.2762
7220,1090,925,34.417,34.289,-0.0697,0.0402,9.8108,0.0366,-0.0741,0.4386
7225,1096,923,34.4,34.289,0.0176,0.0259,9.79,0.0309,-0.8504,-0.0313
7230,1097,922,34.368,34.338,-0.0035,-0.0146,9.8699,-0.5718,-0.2348,-0.2633
7235,1081,922,34.445,34.322,-0.0836,0.0183,9.8238,-0.2249,0.0903,-0.6267
7240,1083,922,34.422,34.399,0.0621,-0.0499,9.8858,0.0856,-0.2649,-0.9368
7245,1077,920,34.489,34.269,-0.0058,0.0452,9.8316,0.7797,0.2287,0.7214
7250,1089,913,34.46,34.313,0.0215,-0.0725,9.8215,-0.1467,-0.1411,-0.1619
7255,1081,915,34.413,34.336,-0.0122,-0.058,9.7847,0.1337,-0.1106,-0.3355
7260,1076,911,34.421,34.291,-0.0867,0.026,9.7882,-1.2264,0.0106,0.1328
7265,1069,908,34.368,34.396,-0.0228,-0.0025,9.7566,0.3516,-0.6833,-0.3393
7270,1071,908,34.46,34.355,0.0064,0.005,9.7427,-1.2763,0.1949,-0.0957
7275,1062,905,34.388,34.402,0.0423,-0.0422,9.9689,-0.3369,0.0106,0.2133
7280,1058,896,34.513,34.42,-0.0329,0.0598,9.8464,-1.3542,0.1306,-0.184
7285,1053,898,34.422,34.336,-0.069,-0.0511,9.8335,-0.4022,-0.1999,0.4494
7290,1043,896,34.338,34.394,-0.0724,0.0613,9.7342,0.1226,0.5091,-0.1377
7295,1044,896,34.378,34.378,0.0113,0.0403,9.7733,-0.8679,0.6572,0.169
7300,1037,885,34.464,34.355,-0.0342,0.011,9.7958,0.1698,0.8395,0.1364
7305,1026,884,34.524,34.364,-0.0317,0.0098,9.8022,-0.3368,-0.5913,0.3648
7310,1024,888,34.455,34.365,0.0178,0.0866,9.7963,0.1964,-1.0677,-0.2773
7315,1020,884,34.482,34.372,0.0003,0.0448,9.8194,-0.315,-0.3613,0.1442
7320,1012,881,34.437,34.24,0.105,-0.0204,9.8169,0.243,0.518,0.3024
7325,1005,875,34.44,34.333,-0.0238,-0.0566,9.8155,0.6431,0.6059,-0.2757
7330,1001,876,34.496,34.352,0.0198,0.0708,9.8448,-1.0992,1.18,0.3987
7335,995,882,34.388,34.306,-0.053,0.0485,9.8718,0.7788,1.2661,0.4328
7340,993,873,34.393,34.312,-0.0674,0.0189,9.7965,0.2418,-0.1108,0.9165
7345,973,874,34.379,34.376,0.0227,-0.0402,9.781,0.8725,0.9548,-0.4202
7350,966,876,34.38,34.352,0.0295,0.0179,9.7204,0.125,-0.3044,0.1392
7355,957,864,34.471,34.291,-0.0247,-0.0456,9.8521,-0.206,0.1899,-0.3263
7360,948,869,34.402,34.311,0.0097,-0.0432,9.9389,0.2137,1.9387,-0.5292
7365,940,867,34.433,34.388,-0.1062,-0.0092,9.6837,0.1772,0.228,-0.3783
7370,930,859,34.411,34.359,0.0013,0.0162,9.7477,0.3029,-0.6727,-0.5982
7375,917,864,34.384,34.353,-0.0997,-0.0502,9.7983,1.1875,-0.7271,0.3769
7380,896,859,34.437,34.346,0.0494,-0.0238,9.7772,-0.1671,-0.0801,0.9878
7385,899,856,34.455,34.341,0.0313,-0.047,9.8418,0.5968,0.2037,0.6986
7390,885,855,34.378,34.361,-0.0419,0.0389,9.8232,-0.4456,-0.3382,-0.8357
7395,868,852,34.334,34.293,-0.0267,-0.0421,9.8752,-0.1729,-0.5159,0.3199
7400,865,851,34.433,34.351,0.0752,-0.0431,9.7895,-0.0259,0.3285,-0.6831
7405,861,851,34.4,34.351,-0.0364,-0.0123,9.8013,-0.2025,0.5594,0.8062
7410,844,846,34.475,34.325,0.1206,-0.0787,9.7747,0.475,-0.2337,0.0248
7415,841,845,34.406,34.333,-0.0056,-0.0664,9.8237,0.6815,0.3981,-0.3513
7420,828,846,34.336,34.357,-0.0017,0.0395,9.7245,-0.0001,0.7297,0.3457
7425,822,836,34.396,34.359,-0.0796,0.0893,9.7918,-1.2184,0.0263,0.3058
7430,805,835,34.451,34.345,-0.1011,-0.0289,9.8354,0.2068,-0.3998,-0.2529
7435,803,834,34.327,34.438,0.0124,-0.055,9.7931,0.4727,-0.0172,0.9473
7440,788,838,34.409,34.403,-0.0193,-0.0281,9.8118,0.4842,0.9348,0.0918
7445,787,826,34.393,34.379,-0.0388,0.0085,9.7465,-0.4483,0.774,0.5778
7450,775,823,34.338,34.289,-0.0397,0.0324,9.854,-0.078,0.0387,0.1523
7455,767,818,34.388,34.353,0.0099,-0.0169,9.8266,0.4296,0.6419,-0.1822
7460,770,814,34.426,34.313,-0.0038,0.0213,9.8,0.5428,-0.3918,-0.9855
7465,763,806,34.372,34.422,-0.0478,-0.0957,9.8548,-1.1652,-0.0667,0.1914
7470,749,804,34.395,34.333,0.0662,-0.0022,9.8396,-0.5617,-0.3357,0.9106
7475,749,793,34.37,34.395,-0.0803,-0.0308,9.7178,0.5243,-0.0915,0.0516
7480,753,795,34.396,34.375,-0.0167,0.0125,9.8706,-0.0896,0.1243,0.4872
7485,746,786,34.435,34.378,0.0074,-0.0507,9.8828,0.3246,0.0309,0.5801
7490,749,782,34.372,34.311,0.0591,0.0611,9.7963,0.575,0.9864,-0.287
7495,748,772,34.459,34.291,-0.0331,-0.006,9.818,-0.3771,-0.3963,-0.3528
7500,757,771,34.421,34.305,-0.0497,-0.083,9.9212,-1.6635,-0.6833,0.0396
7505,752,768,34.413,34.324,-0.0461,-0.0396,9.7876,-0.0728,-0.3354,0.5034
7510,749,759,34.336,34.379,0.0137,-0.0032,9.6848,-1.0486,-0.2085,-0.3833
7515,750,748,34.373,34.291,0.0374,-0.0324,9.8099,0.1838,0.2542,0.0661
7520,767,746,34.388,34.293,-0.0294,-0.0259,9.7923,0.7878,0.6435,-0.5178
7525,762,735,34.362,34.373,0.0881,0.0929,9.819,-0.2938,-0.5096,0.6034
7530,773,732,34.416,34.339,-0.0376,-0.0277,9.7992,0.1779,-0.9215,0.8919
7535,778,719,34.345,34.315,-0.0843,-0.0563,9.8064,0.1173,-0.1914,0.0207
7540,794,717,34.424,34.44,-0.045,-0.0449,9.8126,-0.6736,0.0616,-0.6947
7545,791,712,34.363,34.415,-0.0273,0.0639,9.836,-0.1364,0.4299,0.2317
7550,802,702,34.471,34.337,-0.084,0.0685,9.8351,-0.2224,-0.3956,-0.0973
7555,808,696,34.398,34.429,-0.027,0.0273,9.74,0.6994,0.0013,0.4996
7560,823,692,34.42,34.386,-0.0192,-0.02,9.8178,0.3005,0.1005,0.1889
7565,835,686,34.394,34.333,-0.0456,-0.0117,9.7751,0.5805,-0.7026,0.3662
7570,851,673,34.466,34.339,0.0251,0.0858,9.843,-0.3542,-0.3718,-0.1495
7575,853,670,34.431,34.323,0.0176,-0.0392,9.8733,-0.5459,1.0682,0.5093
7580,872,674,34.388,34.319,0.0285,-0.0169,9.7684,-0.4189,-0.9977,-0.4481
7585,884,663,34.578,34.354,-0.0212,0.0145,9.7686,0.3412,-0.5846,-0.6091
7590,894,655,34.429,34.347,0.0589,-0.0248,9.785,-0.1164,0.454,0.7734
7595,915,648,34.425,34.309,0.0355,0.0377,9.7817,0.4426,0.0446,-0.44
7600,908,640,34.44,34.291,-0.0149,0.0046,9.6846,-0.1561,-0.4982,0.0389
7605,940,639,34.47,34.347,0.0155,0.03,9.7786,1.126,-0.2342,0.3327
7610,940,638,34.441,34.375,0.0688,-0.0269,9.827,0.4789,-0.501,0.1462
7615,959,627,34.377,34.288,0.0608,-0.0369,9.8312,0.2134,0.5898,-0.0517
7620,977,635,34.386,34.422,-0.0471,-0.0177,9.8179,-0.2927,0.3047,0.3985
7625,994,629,34.413,34.365,-0.0138,0.0374,9.8347,-0.3492,-0.9173,0.4751
7630,1012,630,34.409,34.329,-0.0318,0.0122,9.8947,0.5798,-0.2313,0.3773
7635,1027,628,34.451,34.303,-0.0164,-0.0035,9.8518,-0.5482,-0.4342,0.104
7640,1025,625,34.522,34.272,-0.0053,0.0104,9.8351,0.245,1.3605,-0.5919
7645,1053,621,34.41,34.284,-0.0523,-0.0328,9.7279,-0.688,-0.2474,0.8575
7650,1061,629,34.367,34.34,0.0036,0.0017,9.7608,-0.3043,-0.9591,0.207
7655,1069,629,34.424,34.359,-0.0885,0.0346,9.9278,-0.3477,-0.2143,1.0109
7660,1080,634,34.438,34.328,-0.0648,-0.0878,9.7776,-0.5955,-0.0684,-0.0787
7665,1094,628,34.466,34.328,-0.0983,0.022,9.8694,0.147,-0.1173,-0.1841
7670,1104,644,34.422,34.363,0.0217,-0.0207,9.849,-0.1162,-0.4391,-0.3293
7675,1115,646,34.424,34.333,0.0167,0.1064,9.8523,-0.2573,-0.2928,0.1962
7680,1121,650,34.411,34.356,0.0735,-0.0182,9.8091,0.6574,0.4333,-0.9085
7685,1133,657,34.432,34.319,0.0197,-0.0609,9.8108,-0.2232,-0.5476,0.4226
7690,1140,655,34.497,34.39,0.0552,-0.0052,9.8535,0.0331,-0.6753,-0.4396
7695,1141,665,34.353,34.323,0.0423,0.0362,9.7966,-0.0831,-0.4976,0.2134
7700,1163,673,34.302,34.338,-0.0249,0.0145,9.8976,-0.5932,-1.024,0.1286
7705,1165,680,34.486,34.314,-0.0156,-0.0678,9.8165,0.0377,0.3935,-0.3352
7710,1173,687,34.4,34.33,0.0602,-0.0164,9.7208,-0.0634,-0.7438,0.3122
7715,1175,699,34.382,34.367,-0.066,-0.0345,9.8245,0.6534,-0.031,0.7776
7720,1177,704,34.441,34.386,-0.0736,-0.0052,9.8284,-0.3021,0.2882,0.0844
7725,1174,712,34.398,34.315,-0.042,-0.0293,9.7965,0.1561,-0.0315,0.2153
7730,1184,711,34.441,34.271,-0.0621,0.0496,9.7898,0.5318,0.7601,1.1224
7735,1187,728,34.406,34.327,-0.0537,0.048,9.8566,-0.4175,-0.2844,0.6782
7740,1187,740,34.466,34.448,0.1039,0.0863,9.7801,0.1358,0.2174,-0.6734
7745,1183,744,34.345,34.352,-0.0105,-0.0366,9.7252,0.126,-1.017,-0.2972
7750,1189,759,34.404,34.403,-0.1003,0.0392,9.8361,-0.4771,0.2387,0.5052
7755,1194,765,34.414,34.362,-0.025,0.0158,9.8074,0.7926,-0.2625,0.7846
7760,1185,769,34.492,34.339,0.0293,-0.0111,9.7897,-0.046,0.2273,-0.3298
7765,1180,783,34.38,34.35,0.0507,-0.0062,9.8181,1.0974,-0.0371,0.3955
7770,1183,795,34.379,34.404,-0.0396,-0.1348,9.7617,-0.2964,-0.4781,-0.4157
7775,1183,806,34.403,34.37,-0.0474,-0.0569,9.8067,0.6081,0.6361,0.4644
7780,1178,809,34.423,34.291,-0.0533,0.0484,9.8046,0.4549,-0.3345,-0.0656
7785,1177,827,34.28,34.394,-0.01,-0.0517,9.7936,0.3914,0.1219,-0.5629
7790,1174,834,34.463,34.357,-0.0528,-0.0093,9.7997,-0.8078,-0.8853,0.2076
7795,1177,837,34.444,34.335,-0.0236,-0.0621,9.8153,0.1101,-0.6168,-0.3426
7800,1174,845,34.345,34.328,0.0545,-0.0074,9.8027,0.2459,0.4911,0.3845
7805,1177,850,34.449,34.388,-0.0124,0.0463,9.7773,0.5977,-0.215,0.3155
7810,1167,862,34.326,34.411,0.0747,0.0226,9.7517,-0.0023,-0.3278,0.6241
7815,1162,868,34.415,34.397,0.0105,-0.0014,9.8166,-0.2632,-0.67,-0.8284
7820,1159,883,34.4,34.389,-0.0754,-0.0991,9.8063,0.728,0.672,-0.4897
7825,1158,883,34.378,34.379,-0.0197,-0.1103,9.8549,0.0351,-0.3877,-0.0905
7830,1153,896,34.32,34.373,-0.0313,0.0015,9.8219,0.0627,0.781,-0.6791
7835,1145,889,34.452,34.351,0.0261,-0.0274,9.7967,-0.1005,-0.108,-0.3849
7840,1148,902,34.406,34.369,0.0058,-0.0248,9.809,-1.0855,0.1797,0.1432
7845,1133,907,34.176,34.402,0.0232,-0.0214,9.825,-0.4824,0.2003,-0.4652
7850,1126,915,34.51,34.366,0.0104,0.0449,9.8184,-0.5563,-0.2722,0.4239
7855,1127,916,34.298,34.346,0.0068,-0.0353,9.8483,0.2945,-0.4815,0.4817
7860,1125,917,34.381,34.389,-0.0609,0.0851,9.7502,-0.45,-0.169,-0.3376
7865,1119,924,34.345,34.376,0.0125,0.0316,9.8516,-0.0461,-0.2357,-0.4793
7870,1120,920,34.402,34.344,0.0213,0.0019,9.824,1.4701,0.1399,0.7972
7875,1107,926,34.379,34.385,-0.0037,-0.0447,9.7782,-0.3476,1.0674,-0.315
7880,1107,925,34.477,34.296,0.0416,0.111,9.7885,-0.2004,-0.6023,0.1414
7885,1107,927,34.452,34.327,0.0254,-0.0956,9.7945,-0.7385,-0.0002,-0.8567
7890,1105,926,34.367,34.345,-0.0274,-0.04,9.8206,0.0906,0.4542,-0.1377
7895,1103,931,34.489,34.437,-0.0057,-0.03,9.7876,-0.0864,0.0615,-0.2484
7900,1099,932,34.464,34.351,-0.068,-0.026,9.8226,0.1225,-0.4509,0.2265
7905,1096,929,34.463,34.342,-0.0238,-0.0321,9.788,-1.0571,-0.9933,0.1835
7910,1097,925,34.43,34.326,-0.0279,0.0319,9.8502,-0.0592,-0.5021,1.5649
7915,1093,928,34.407,34.419,-0.0392,0.0402,9.8797,0.9511,-0.1092,-0.0051
7920,1076,925,34.455,34.316,0.0539,0.0175,9.7727,0.2144,0.2881,0.1143
7925,1092,925,34.446,34.422,-0.0244,-0.0787,9.7964,-0.3332,0.0767,0.0247
7930,1086,925,34.426,34.331,-0.0425,-0.0642,9.7411,0.2388,0.1278,-0.3573
7935,1080,919,34.411,34.328,-0.0143,-0.0801,9.7312,0.5998,-0.1414,-0.0788
7940,1081,922,34.405,34.329,0.0292,0.0753,9.9574,-0.0106,-0.0181,0.5167
7945,1081,914,34.482,34.381,0.0515,0.0383,9.805,0.9168,0.8566,-0.1321
7950,1075,915,34.325,34.293,-0.0722,-0.0059,9.7662,0.2428,0.2445,-0.6114
7955,1075,914,34.466,34.328,0.0301,0.0652,9.8006,-0.4354,-0.6737,0.0952
7960,1068,910,34.446,34.437,0.0116,0.0157,9.7604,-0.8056,0.1174,0.347
7965,1067,902,34.356,34.33,-0.0336,-0.0283,9.8243,0.1769,-0.3974,0.0755
7970,1066,905,34.451,34.418,-0.0107,-0.0205,9.7587,-0.4672,-0.12,0.07
7975,1048,903,34.47,34.312,-0.0281,-0.0516,9.7692,-1.0887,-1.2522,0.2778
7980,1047,900,34.357,34.324,0.0036,0.0353,9.82,0.4666,0.1838,-0.1328
7985,1053,893,34.43,34.393,-0.1192,-0.0496,9.7303,-0.0001,-0.1113,-0.0956
7990,1049,891,34.389,34.324,-0.106,0.0636,9.8001,-0.1673,-0.5547,0.7218
7995,1027,895,34.367,34.388,-0.0384,-0.0073,9.8979,0.5134,0.3529,-0.224
8000,1041,892,34.439,34.308,0.0636,0.0531,9.8612,-1.1151,0.5286,-0.7294
8005,1040,888,34.427,34.423,-0.0185,-0.0132,9.8707,-0.191,0.0747,-0.7102
8010,1024,883,34.367,34.375,-0.0517,-0.0289,9.8307,1.0413,-0.6747,0.1646
8015,1015,882,34.281,34.459,0.0102,-0.0375,9.7931,0.3264,0.0321,-0.1457
8020,1008,875,34.381,34.421,0.0496,0.0015,9.7952,-0.7268,-0.5534,0.1387
8025,992,879,34.399,34.382,0.068,0.0228,9.7763,0.3193,0.3358,0.43
8029,997,878,34.437,34.397,-0.0688,-0.0087,9.7956,0.6376,-0.3699,0.115
8035,980,874,34.452,34.329,0.0046,-0.0538,9.8227,0.168,0.348,-0.3553
8039,972,872,34.455,34.366,0.0205,-0.0447,9.8937,0.2372,-0.3696,-0.3386
8045,961,874,34.412,34.475,-0.033,-0.0674,9.8504,0.1682,-0.6031,0.0835
8050,951,872,34.398,34.364,0.0525,0.0087,9.8025,0.2241,0.3015,-0.0593
8055,955,867,34.315,34.405,-0.0222,0.0032,9.766,0.204,-0.3347,0.2728
8060,939,859,34.412,34.42,-0.0157,-0.1118,9.8355,-0.4967,0.3411,-0.4747
8064,931,861,34.399,34.318,0.0504,-0.0082,9.7245,-0.5935,0.2124,-0.0243
8070,916,863,34.447,34.478,0.0862,0.076,9.7886,-0.9342,0.5456,-0.6772
8074,906,860,34.447,34.37,-0.0147,0.0817,9.7876,0.5355,-0.0392,-1.3886
8080,903,852,34.438,34.355,-0.0192,-0.0162,9.7479,-0.3488,-0.6845,0.1475
8085,896,861,34.418,34.325,0.0373,0.0966,9.766,-0.2987,0.1965,-0.0217
8090,881,856,34.336,34.369,-0.0064,-0.011,9.825,0.314,-0.3732,0.4238
8095,868,851,34.445,34.275,-0.0161,0.0313,9.7679,0.0843,0.1286,0.418
8100,861,848,34.389,34.365,0.0722,-0.0106,9.8068,0.6142,0.9685,0.4719
8105,841,848,34.391,34.391,-0.0859,-0.0438,9.8187,0.7768,0.1667,0.1964
8109,841,846,34.503,34.345,-0.0193,0.0614,9.75,-0.4472,0.1088,-0.0164
8115,814,844,34.446,34.396,0.0523,-0.0017,9.8913,-1.4953,0.8613,0.9958
8119,814,838,34.338,34.439,0.0488,0.0604,9.7934,-0.176,-0.2728,-0.8981
8125,806,842,34.373,34.271,-0.0332,-0.0487,9.7686,-0.7862,-0.2565,-0.6101
8130,800,832,34.439,34.38,0.0042,0.0111,9.7785,0.6238,0.3355,0.972
8135,788,827,34.457,34.346,-0.1017,0.004,9.7692,0.1956,0.2173,-0.4991
8140,787,826,34.406,34.353,0.0147,0.1066,9.824,-0.1335,-0.3155,-1.6432
8145,776,823,34.333,34.379,0.0205,0.0024,9.718,-0.2225,0.0132,-0.8677
8150,764,817,34.411,34.248,-0.026,0.0353,9.9084,-0.5169,-0.1171,-0.2493
8154,764,817,34.373,34.376,-0.043,-0.0233,9.8297,-0.0109,0.7428,-0.1719
8160,762,807,34.381,34.371,0.0087,-0.0618,9.8485,0.5742,-0.5575,0.3771
8164,761,799,34.374,34.376,-0.0206,-0.0454,9.775,0.2936,1.1003,0.1931
8170,762,799,34.473,34.384,-0.0392,0.0982,9.7543,-0.4084,0.2577,1.2546
8175,749,791,34.403,34.34,0.0232,0.046,9.7178,-1.0487,-0.6357,0.6314
8180,753,784,34.377,34.357,0.1049,-0.0131,9.8144,-0.0351,0.1356,0.0047
8185,752,782,34.394,34.357,-0.0604,0.0218,9.7623,-0.6099,-0.0772,0.0638
8189,738,779,34.436,34.349,-0.0504,-0.1066,9.8147,-0.4691,0.207,-0.008
8195,750,772,34.435,34.338,0.0617,-0.0988,9.686,1.2729,0.2156,-0.057
8200,747,762,34.405,34.277,-0.0374,-0.0032,9.7831,-0.2262,0.0873,0.2846
8205,745,757,34.42,34.384,-0.0323,-0.0407,9.7642,0.0565,-0.0872,0.4398
8210,755,745,34.366,34.301,-0.0027,0.0164,9.8282,-0.2811,-0.072,0.3337
8215,767,745,34.448,34.404,-0.0554,0.0336,9.8158,-0.0865,0.6063,-0.5521
8220,766,731,34.375,34.347,0.0507,0.0383,9.8492,0.1435,0.9048,0.0424
8225,773,727,34.454,34.363,0.0315,-0.0112,9.876,-0.1866,-0.5458,-0.6797
8230,789,723,34.418,34.28,0.0111,-0.0637,9.8432,-0.0295,0.0571,0.2684
8235,790,716,34.355,34.341,-0.0164,0.0077,9.8349,0.3043,-0.4733,0.862
8240,794,708,34.397,34.383,0.0346,0.033,9.8253,-0.2922,0.1071,-0.3523
8245,796,704,34.44,34.284,-0.0326,-0.0132,9.8503,0.3003,-0.0078,-0.4965
8250,806,691,34.428,34.45,-0.0954,-0.0572,9.806,-0.099,-0.0652,0.1773
8255,828,687,34.458,34.302,-0.0068,-0.0352,9.8274,1.3987,0.0132,-0.0038
8260,830,682,34.461,34.432,0.0438,0.001,9.9028,0.6977,0.1882,0.8623
8265,838,670,34.284,34.343,-0.1053,0.0954,9.8964,0.198,0.2719,0.1377
8270,859,661,34.405,34.332,0.0368,0.0313,9.885,-0.0187,-0.3721,-0.5426
8275,867,662,34.328,34.374,-0.0682,-0.009,9.8111,0.381,0.3384,-0.2339
8280,891,658,34.469,34.316,-0.0074,0.0161,9.8604,-0.6312,0.2843,0.0323
8285,901,658,34.427,34.321,0.0583,0.0134,9.8185,0.1249,0.7112,0.0779
8290,906,640,34.458,34.357,0.0565,-0.0504,9.8936,0.0103,-0.0,1.0235
8295,916,638,34.302,34.352,-0.0295,-0.0394,9.6879,0.2028,1.0658,-0.0459
8300,933,636,34.363,34.247,0.0326,-0.0174,9.7953,-0.2097,0.5197,0.7101
8305,957,640,34.456,34.388,-0.0154,0.0435,9.8551,0.3391,-0.8388,0.6416
8310,963,632,34.392,34.408,-0.0174,0.0096,9.8814,0.1756,0.3021,-0.3397
8315,970,631,34.371,34.355,0.0376,0.0269,9.7667,0.6233,0.9772,0.0699
8320,984,629,34.387,34.449,-0.029,0.0075,9.9211,0.6665,0.114,-0.0233
8325,1007,628,34.391,34.311,-0.0157,-0.0364,9.7788,0.7808,0.2089,0.5326
8330,1023,626,34.421,34.457,0.0234,0.0736,9.7978,0.2824,0.2239,0.5803
8335,1029,623,34.467,34.347,0.0304,-0.0249,9.7626,0.9811,0.6912,-0.293
8340,1048,626,34.363,34.355,-0.0365,-0.0721,9.7769,-0.4889,-0.9719,-0.2828
8345,1057,628,34.386,34.321,0.0609,0.0092,9.8398,-0.2386,-0.0675,-0.3151
8350,1071,628,34.473,34.446,-0.0265,-0.059,9.8627,-0.0533,0.7921,0.016
8355,1082,627,34.415,34.36,-0.0464,0.0248,9.8027,0.1634,-0.0481,0.2449
8360,1096,635,34.317,34.346,-0.0308,-0.0317,9.8393,-0.8587,-0.0066,0.3201
8365,1104,637,34.416,34.45,-0.0346,-0.0198,9.781,0.4099,0.8198,-0.5377
8370,1120,639,34.355,34.351,-0.0241,0.084,9.8284,1.0405,-0.3398,-0.2314
8375,1122,647,34.319,34.429,-0.0508,-0.038,9.7772,-0.6742,-0.3539,0.509
8380,1138,652,34.398,34.378,0.037,-0.0635,9.7923,-0.2219,0.634,0.2488
8385,1142,660,34.482,34.316,0.0502,-0.0865,9.87,-0.1223,-0.107,0.4712
8390,1151,662,34.399,34.353,-0.0297,0.0719,9.8379,-0.2486,-0.0741,-0.2551
8395,1166,674,34.393,34.23,-0.0295,0.0041,9.91,-0.2156,0.6158,0.4325
8400,1161,678,34.342,34.304,-0.0582,-0.0055,9.814,0.2027,0.5082,0.3147
8405,1172,684,34.329,34.421,-0.0418,-0.0246,9.8363,-0.4799,0.2184,0.1401
8410,1175,695,34.361,34.384,-0.0075,0.0081,9.8489,-0.2467,0.3212,-0.2161
8415,1179,701,34.478,34.367,0.0072,-0.0155,9.7677,-0.4526,1.0226,0.9161
8420,1189,709,34.458,34.406,-0.0042,-0.0037,9.772,0.4241,0.5478,-0.2169
8425,1180,714,34.492,34.283,-0.0585,-0.0775,9.8207,-1.329,-0.6038,-0.5361
8430,1184,725,34.432,34.282,0.0578,-0.0416,9.7782,-0.3464,0.3113,-0.2561
