timestamp_ms,ir_finger,ir_toe,temp_finger,temp_toe,ax,ay,az,gx,gy,gz
0,1044,717,34.066,30.469,-0.0303,0.0911,9.7958,0.9971,-0.3936,0.325
5,1058,711,34.118,30.381,0.0038,0.0863,9.8014,-0.3475,-0.2502,0.403
10,1066,713,34.102,30.446,0.0237,0.0034,9.7222,0.0356,-0.8237,0.6891
15,1083,718,34.111,30.399,-0.0212,0.0262,9.8621,-0.2048,-0.3109,-0.1159
20,1083,708,34.095,30.422,-0.0765,-0.0432,9.8405,-0.4185,0.03,0.1651
25,1095,705,34.17,30.41,-0.0355,0.0413,9.8082,-0.1703,0.0832,0.912
30,1109,704,33.975,30.459,-0.0064,0.0005,9.8071,0.6521,-0.0066,-0.2339
35,1111,709,34.106,30.403,0.0048,-0.0043,9.7763,0.7778,-0.0438,0.0311
40,1117,707,34.098,30.367,0.1182,-0.0393,9.8057,0.3357,-0.4132,-0.6578
45,1140,710,33.953,30.453,-0.0699,0.0539,9.7477,0.1903,-0.1333,-0.0854
50,1142,715,34.016,30.38,-0.075,0.0053,9.7538,0.002,-0.8334,0.1387
55,1147,718,34.003,30.32,0.043,-0.0659,9.7834,-0.3921,0.4936,-0.1459
60,1162,715,34.169,30.306,0.0382,-0.0369,9.8905,-0.608,-0.3294,-0.8722
65,1158,721,34.112,30.487,0.0363,0.0666,9.7245,0.3418,-0.3126,0.7649
70,1163,725,34.044,30.405,0.0469,-0.04,9.6994,0.2682,-0.9686,0.2366
75,1173,723,34.089,30.409,-0.0237,0.0537,9.8499,-0.0347,0.7992,0.2491
80,1170,719,34.069,30.353,-0.026,-0.0267,9.7862,-0.3244,0.6038,-0.2884
85,1179,725,34.173,30.321,-0.0057,0.014,9.7924,0.0772,-0.2781,-0.4401
90,1185,732,34.105,30.42,-0.0887,-0.0591,9.8018,-0.7906,0.5225,-0.0296
95,1190,733,34.091,30.333,0.078,0.0428,9.8952,0.0438,-0.337,0.0556
100,1190,739,34.103,30.416,-0.002,-0.0069,9.7507,0.1519,-0.3537,-0.5359
105,1193,737,34.013,30.345,0.0026,0.0237,9.854,-0.3277,-0.1387,-0.1298
110,1191,745,34.111,30.393,0.0284,-0.0524,9.7933,-0.4317,-0.3057,0.0623
115,1189,751,34.056,30.334,0.0233,0.0636,9.8207,-0.0598,-1.1668,0.5236
120,1191,752,34.144,30.348,-0.0244,-0.015,9.8158,-0.1736,-0.4576,-0.5387
125,1182,763,34.033,30.382,0.0543,-0.0076,9.7985,-0.7372,-0.2099,0.1707
130,1189,761,34.193,30.424,0.0016,-0.0391,9.8124,0.2255,-0.6444,0.3647
135,1180,762,34.114,30.379,-0.049,0.007,9.8468,0.1991,0.318,-0.4847
140,1176,772,34.171,30.384,-0.0448,-0.0316,9.8084,-0.3771,0.439,0.6128
145,1190,773,34.144,30.36,-0.1044,0.0748,9.7323,0.4908,0.2384,-0.0974
150,1169,777,34.07,30.365,0.0235,-0.0992,9.7792,0.4232,1.1255,0.0213
155,1177,780,34.136,30.406,0.0013,-0.1336,9.8782,0.1005,-0.0936,0.54
160,1162,787,34.102,30.42,0.0953,-0.0538,9.8984,0.5824,-0.3684,0.1468
165,1162,788,34.085,30.414,0.052,0.0813,9.7739,0.8592,0.4188,-0.9275
170,1163,800,34.14,30.438,0.0286,0.0104,9.8716,0.4198,0.2883,-0.6824
175,1155,798,34.088,30.494,0.0669,0.0404,9.8393,-0.2657,1.0109,0.1127
180,1152,808,34.075,30.383,-0.0313,-0.0387,9.8268,-0.7347,-0.218,-0.2222
185,1145,813,34.163,30.374,-0.0192,-0.0446,9.865,0.08,0.6136,-0.2308
190,1155,820,34.07,30.379,0.0027,0.0491,9.6982,0.3424,0.4206,0.786
195,1150,819,34.09,30.395,0.0671,-0.0057,9.7826,1.9516,0.8751,-0.2933
200,1151,829,34.08,30.419,-0.0165,0.0256,9.733,0.2972,-0.4084,0.2513
205,1134,826,34.185,30.395,0.0299,-0.0859,9.9159,-0.6823,-0.3944,-1.1191
210,1137,829,34.209,30.338,0.0851,-0.011,9.7494,-0.0827,0.2313,0.2344
215,1142,834,34.174,30.317,0.007,0.0782,9.6873,0.3092,0.2859,-0.719
220,1117,839,34.017,30.429,0.0773,0.0247,9.8133,0.1126,0.5696,-0.8381
225,1122,841,34.074,30.442,0.0193,0.0329,9.9094,-0.5719,0.6578,0.4125
230,1132,847,34.087,30.514,-0.0971,-0.0457,9.8056,-0.3605,0.1355,-0.3485
235,1115,846,34.084,30.386,0.0637,-0.0819,9.7751,0.3158,0.3545,-0.156
240,1110,849,34.068,30.342,-0.0306,0.0202,9.8585,0.154,0.1971,-0.3788
245,1120,853,34.121,30.301,-0.037,0.0023,9.7065,0.1264,0.178,0.2961
250,1102,854,34.118,30.389,0.0247,0.0264,9.7966,-0.7462,-0.3409,-0.5005
255,1105,852,34.054,30.412,0.0535,0.1811,9.8148,0.1872,-0.6098,0.0293
260,1101,859,34.059,30.438,0.0183,-0.0327,9.8746,-0.7978,-0.5052,0.2789
265,1106,864,34.168,30.408,0.031,0.0549,9.8148,-0.2221,-0.4273,-0.0615
270,1099,862,34.089,30.377,0.0197,-0.021,9.7851,0.3044,-1.0571,0.5881
275,1093,863,34.125,30.429,-0.0165,-0.0209,9.7831,0.1873,-0.4265,-0.4453
280,1097,859,34.092,30.353,0.0461,0.0183,9.8374,0.7588,0.8169,0.1881
285,1097,863,34.115,30.373,0.0088,-0.0853,9.8612,0.6684,-0.1856,-0.2444
290,1094,869,34.119,30.401,-0.1049,0.0367,9.7433,-0.5273,-0.1857,-0.5103
295,1087,872,34.043,30.364,0.0135,0.0341,9.8414,-0.1786,0.6562,0.803
300,1090,865,34.083,30.368,0.0109,-0.0062,9.7941,-0.2708,0.9378,-0.5694
305,1086,869,34.205,30.367,-0.0567,-0.0306,9.7997,0.4488,-0.1174,0.1714
310,1078,864,34.056,30.449,-0.0041,0.0939,9.7492,-0.6819,0.127,0.4251
315,1078,867,34.2,30.444,0.0321,0.0141,9.9361,0.051,0.5137,0.2751
320,1080,867,34.126,30.343,0.0344,-0.0132,9.8117,0.2238,0.4382,0.1211
325,1068,866,34.135,30.354,0.0461,0.0676,9.8828,0.0219,0.6922,-0.6679
330,1073,863,34.14,30.49,-0.0125,-0.033,9.7657,-0.3895,-0.6685,-0.5932
335,1061,860,34.038,30.461,0.0322,-0.0603,9.801,0.4662,0.3508,0.2895
340,1069,862,34.016,30.398,0.024,0.0229,9.7394,0.1035,-0.562,0.168
345,1058,862,34.07,30.429,-0.0954,-0.0012,9.824,-0.0556,-0.147,0.0092
350,1051,858,34.092,30.47,0.0761,-0.0179,9.734,0.6722,0.2456,-0.3105
355,1049,861,34.149,30.482,-0.0817,-0.0843,9.7282,-0.5157,0.1459,0.0168
360,1046,853,34.107,30.349,0.0198,-0.0254,9.7406,-0.1305,-0.3357,0.2233
365,1041,850,34.084,30.478,-0.019,-0.0133,9.8135,0.2097,-0.3238,0.4333
370,1036,855,34.125,30.473,0.0938,-0.0758,9.8772,-0.3137,-0.6679,-0.5454
375,1030,853,34.164,30.4,-0.0011,-0.0929,9.834,-0.3334,-0.0026,0.6703
380,1030,850,34.107,30.507,0.043,-0.0065,9.8216,-0.0636,0.0712,-0.1412
385,1021,850,34.063,30.456,0.0112,0.063,9.8027,0.1412,-0.6243,-0.3142
390,1008,851,34.164,30.38,0.0435,-0.0424,9.7598,-0.3738,-0.1356,-0.5209
395,1005,847,34.091,30.409,-0.0036,-0.0068,9.8064,-0.4382,-0.0691,0.6911
400,1007,848,34.075,30.436,-0.0133,0.0353,9.797,0.046,-0.7722,-0.6037
405,1002,848,34.062,30.412,-0.0032,0.0504,9.7879,0.4454,-0.4407,0.905
410,980,846,34.123,30.396,0.0393,0.0156,9.8214,-0.0085,-0.6957,0.2787
415,974,842,34.037,30.504,-0.0188,-0.0228,9.8425,-0.2416,0.1077,0.4902
420,970,842,34.137,30.444,0.0292,-0.0894,9.8366,-0.0853,0.2739,0.6771
425,957,838,34.052,30.401,0.0672,-0.1177,9.7842,0.2326,-1.0024,0.8994
430,955,841,34.105,30.378,0.0357,-0.0004,9.8554,-0.2823,-1.1634,0.779
435,942,834,34.1,30.376,0.054,0.0101,9.778,0.5839,0.7548,-0.474
440,925,839,34.031,30.459,-0.0302,0.0383,9.727,0.3042,0.0733,0.1866
445,920,839,34.061,30.419,0.0386,0.0576,9.7087,-1.0545,0.006,-0.6799
450,903,836,34.105,30.355,-0.0092,-0.0029,9.8019,-0.1951,0.3003,-0.1429
455,894,839,34.125,30.524,-0.0238,0.0379,9.8045,-0.7685,1.1767,-0.3454
460,899,834,34.161,30.35,0.0094,-0.0788,9.8296,0.0432,0.5765,0.1691
465,878,842,34.177,30.393,0.0771,0.0253,9.8426,1.0372,0.0155,0.1614
470,867,833,34.161,30.479,-0.0379,-0.0283,9.8004,0.7762,-0.3909,-0.6099
475,865,835,34.118,30.432,-0.0997,-0.0268,9.7661,0.5366,-0.8796,-0.1688
480,849,833,34.117,30.308,0.0114,-0.0685,9.8319,-0.074,0.5959,-0.23
485,839,828,34.081,30.458,-0.0279,-0.011,9.7218,-0.8226,0.1214,1.0377
490,830,828,34.16,30.379,0.0036,-0.0009,9.8453,1.1004,-0.4032,-0.4227
495,816,834,34.188,30.428,-0.0231,0.0375,9.8176,-0.4728,0.0865,-0.3836
500,810,827,34.094,30.412,-0.0286,0.0069,9.7268,-0.2159,-0.5947,-1.0253
505,809,829,34.153,30.372,0.0062,0.0804,9.7828,0.0184,-1.5485,0.0221
510,800,828,34.075,30.293,-0.0181,0.0393,9.8267,-0.2917,-0.0006,-0.147
515,782,820,34.091,30.415,0.0058,0.015,9.8326,-0.0269,0.6634,-0.6629
520,793,825,34.13,30.464,0.0905,0.0289,9.7992,0.6103,-0.3314,-0.128
525,779,823,34.131,30.465,-0.0946,0.0746,9.8729,-0.0408,0.0922,-0.0909
530,770,817,34.158,30.509,0.01,0.0374,9.835,-0.521,0.6564,-0.1211
535,766,821,34.147,30.379,-0.0175,-0.0036,9.8345,0.4421,0.7377,-0.2679
540,762,819,34.167,30.312,-0.0497,-0.0517,9.8375,0.3121,-0.4024,0.3367
545,763,816,34.1,30.391,0.0525,-0.003,9.8282,-0.2717,0.0983,-0.4447
550,748,820,34.184,30.404,-0.0284,0.0171,9.795,-0.1883,-0.006,-0.6809
555,750,812,34.107,30.416,0.0208,0.0003,9.8452,0.2895,0.2301,-0.7931
560,756,810,34.106,30.393,0.0537,0.0106,9.8391,0.3359,1.3139,-0.7664
565,741,815,34.131,30.409,0.008,0.0556,9.789,-0.1645,0.5163,-0.6505
570,740,803,34.122,30.393,0.0291,-0.0161,9.8052,-1.1471,-0.1388,0.4982
575,738,806,34.086,30.45,0.0595,0.0269,9.8474,0.0497,-0.5313,-0.44
580,749,797,34.044,30.408,0.0169,0.0665,9.851,-0.0141,0.6754,0.4758
585,758,799,34.13,30.36,0.0016,-0.0174,9.7868,0.2636,0.0276,0.2139
590,750,800,34.05,30.426,0.0549,-0.0025,9.7896,0.3818,1.1336,0.593
595,763,797,34.093,30.425,0.0179,-0.1011,9.8985,-0.9057,0.5471,0.0937
600,768,792,34.011,30.37,0.0015,-0.0269,9.827,-0.4243,0.0001,-0.8903
605,773,794,34.091,30.366,-0.0355,0.0807,9.7986,-0.4962,0.1508,-0.0292
610,774,786,34.07,30.358,-0.0223,0.0785,9.8487,0.1172,0.6197,-0.5413
615,783,777,34.031,30.403,-0.0114,-0.012,9.8432,-1.1668,-0.5633,-0.2833
620,780,787,34.096,30.399,-0.1111,-0.0499,9.7819,0.3299,0.03,-0.4271
625,799,778,34.132,30.436,-0.0585,0.073,9.8273,0.0905,0.7645,0.1668
630,811,765,34.118,30.361,0.0922,0.0559,9.818,-0.8225,0.036,0.2894
635,805,773,34.144,30.339,0.0017,0.0691,9.8102,0.6705,-0.8243,-0.5188
640,827,763,34.133,30.23,0.0413,0.081,9.831,-0.0664,-0.313,0.4956
645,822,770,34.054,30.382,0.0775,-0.0345,9.8391,-0.7345,-0.9152,-0.0752
650,842,756,34.067,30.436,-0.0053,-0.0217,9.8631,0.8411,0.5072,0.6619
655,851,756,34.111,30.299,0.0109,-0.0917,9.9315,0.5029,-0.7963,-0.1846
660,872,760,34.124,30.457,-0.0233,0.1239,9.7994,-0.1928,0.4372,0.2646
665,886,751,34.086,30.38,-0.0574,-0.0215,9.8235,0.4608,-0.7456,-0.3052
670,882,746,34.149,30.362,0.0313,0.0513,9.7911,0.5424,0.1628,-0.372
675,908,745,34.102,30.522,0.0568,0.1008,9.8646,0.7156,0.2889,0.3924
680,909,732,34.179,30.394,-0.012,0.0137,9.8253,0.2133,-0.0308,0.1446
685,924,736,34.003,30.486,0.0089,0.0597,9.7319,0.1917,0.2077,0.2547
690,946,732,34.186,30.421,-0.0025,0.0631,9.7957,-0.4137,0.5356,-0.038
695,959,732,34.161,30.443,0.0434,-0.0041,9.8158,0.3135,0.9715,-0.3817
700,966,725,34.087,30.371,-0.0253,-0.0207,9.7862,-0.2001,0.327,-0.0626
705,982,725,34.124,30.456,0.0533,0.0088,9.7514,-0.5667,-0.425,0.6528
710,996,722,34.118,30.255,0.0833,0.0606,9.6663,0.3681,-0.0852,-0.0886
715,1015,723,34.105,30.38,-0.1112,-0.0081,9.7855,-0.8759,0.4181,-0.1846
720,1031,721,34.109,30.412,0.0268,0.0583,9.7311,-0.3729,-0.1005,0.2381
725,1047,717,34.014,30.458,0.0283,-0.0974,9.8739,0.7334,0.7317,-0.5458
730,1046,720,34.193,30.384,-0.0797,-0.0137,9.6869,-1.0378,-0.9675,-0.5198
735,1057,715,34.144,30.36,-0.1141,0.0481,9.7265,-0.5156,-0.7796,-0.2272
740,1072,712,34.109,30.373,-0.0413,-0.0461,9.7916,0.4089,1.3816,0.447
745,1087,707,34.197,30.362,0.0731,-0.0057,9.8369,-0.2461,-0.8415,-0.3146
750,1086,710,34.086,30.419,-0.0075,-0.0102,9.8015,-0.056,0.3091,0.5461
755,1100,712,34.072,30.389,-0.0115,-0.052,9.8814,0.54,0.5428,-0.5166
760,1111,713,34.065,30.423,-0.0621,0.1482,9.737,-0.5456,-0.6347,-0.3854
765,1126,718,34.078,30.351,0.0261,0.0184,9.8126,-0.7836,0.679,0.1524
770,1140,712,34.125,30.461,0.0184,-0.0091,9.7824,-0.2804,0.25,0.9424
775,1143,713,34.145,30.358,0.0995,-0.0924,9.7952,0.2614,-0.7228,-0.1778
780,1145,712,34.124,30.494,-0.0468,-0.0964,9.7562,-0.2121,-0.3902,0.0824
785,1156,712,34.066,30.444,-0.0255,0.0954,9.7689,0.5416,-0.932,-0.4416
790,1158,719,34.038,30.452,-0.0166,-0.0122,9.8071,0.2751,-0.1299,-0.4075
795,1173,718,34.062,30.377,-0.0132,0.0199,9.7335,0.0066,-0.6683,0.3973
800,1179,722,34.185,30.353,-0.0748,-0.0771,9.8288,-0.3501,0.1654,0.4029
805,1169,724,34.197,30.4,-0.102,0.1033,9.8418,-0.1621,0.1997,-0.066
810,1179,726,34.048,30.422,0.0507,-0.0313,9.8511,0.013,-0.4498,-0.5451
815,1186,735,34.097,30.436,0.05,0.0246,9.8906,1.0181,-0.8409,-0.1714
820,1170,732,34.089,30.442,0.0668,0.069,9.8037,-0.058,0.0458,0.7151
825,1185,739,34.087,30.346,-0.0667,-0.086,9.826,-0.4762,-0.3849,-0.024
830,1180,736,34.015,30.422,0.0442,0.0427,9.9516,-0.0554,0.6296,0.1924
835,1183,738,34.158,30.528,0.0875,0.0264,9.8705,0.1387,0.6746,-0.3912
840,1181,742,34.026,30.452,0.0355,0.0114,9.798,-0.5065,-0.2727,-0.52
845,1199,749,34.156,30.403,-0.028,0.0346,9.7778,0.1672,-0.1521,0.1024
850,1183,754,34.102,30.419,-0.0374,-0.0374,9.8084,-0.3053,-0.1121,-0.1337
855,1186,763,34.108,30.368,0.1472,0.0203,9.7648,-0.3966,-0.0728,-0.8326
860,1188,763,34.2,30.376,-0.0259,-0.0548,9.8975,0.1778,-0.1947,-0.5485
865,1182,767,34.137,30.435,0.1083,0.0218,9.8005,-0.4658,0.059,-0.476
870,1176,773,34.057,30.374,0.0358,-0.06,9.7951,-0.0319,-0.7421,0.4307
875,1173,776,34.099,30.341,0.029,0.0022,9.7525,0.1088,-0.5139,-0.294
880,1177,777,34.154,30.357,-0.0904,-0.0574,9.749,0.2993,-0.113,0.4754
885,1167,786,34.084,30.444,0.0072,0.0772,9.7861,0.6307,-1.0245,0.228
890,1175,790,34.018,30.48,-0.0217,-0.0617,9.7741,-1.0866,-0.3577,0.0505
895,1163,796,34.141,30.376,-0.0438,-0.039,9.7591,0.7591,-0.2948,-0.9733
900,1167,798,34.122,30.346,-0.0403,-0.0023,9.7974,0.4532,-1.0466,-0.2576
905,1159,806,34.055,30.419,0.0147,0.0336,9.8302,0.0813,-0.1805,-0.2125
910,1158,818,34.1,30.402,0.1193,0.0445,9.7681,0.8899,-0.0418,-0.5185
915,1160,813,34.02,30.391,0.056,0.0861,9.8681,0.4328,-0.4088,-0.3244
920,1145,819,34.099,30.386,-0.054,0.006,9.766,0.3731,-0.4475,0.0472
925,1135,819,34.109,30.465,-0.0168,0.0429,9.8391,0.0467,0.3813,-0.3178
930,1138,824,34.127,30.428,0.0517,-0.0012,9.8269,-0.0436,-0.6112,0.1732
935,1131,833,34.086,30.359,-0.0268,-0.0587,9.731,0.0599,0.1713,0.0137
940,1135,829,34.078,30.343,-0.039,-0.0514,9.8049,-0.1677,-0.1197,-0.1037
945,1126,838,34.138,30.474,0.0468,0.0188,9.791,0.0132,-0.285,0.529
950,1126,846,34.154,30.558,0.0194,-0.0691,9.8009,-0.267,-0.5574,0.203
955,1123,841,34.046,30.425,-0.0056,0.0266,9.7258,0.459,0.0452,0.4638
960,1121,848,34.062,30.384,0.0286,0.0003,9.7917,-0.0272,0.2035,0.2265
965,1107,849,34.029,30.473,-0.0233,0.1076,9.8118,-0.1089,-0.2817,-0.0258
970,1118,849,34.071,30.378,-0.0557,-0.0343,9.8113,-0.0505,0.1971,0.8038
975,1111,855,33.966,30.448,-0.0809,0.1132,9.7815,-0.8226,0.1189,-0.2499
980,1108,855,34.072,30.408,0.0226,-0.0286,9.8479,0.3423,-0.4785,-0.2714
985,1110,859,34.107,30.362,0.028,0.1327,9.7611,-0.2037,-0.3852,-0.1925
990,1106,860,34.144,30.336,-0.0851,-0.0175,9.7891,0.3862,0.2473,-0.3985
995,1097,860,34.102,30.444,-0.0252,-0.0426,9.8611,-0.5387,-0.1313,0.1591
1000,1090,862,34.112,30.395,-0.0695,0.0112,9.854,1.0545,-0.2778,0.4632
1004,1092,867,34.154,30.339,0.0279,0.0574,9.8828,-0.8005,0.5467,-0.4816
1010,1094,861,34.06,30.471,-0.0186,0.0096,9.7743,-0.3336,0.2355,0.7798
1014,1092,869,34.114,30.407,0.0288,0.0655,9.9082,0.7199,-0.5922,0.0357
1020,1095,868,34.2,30.445,0.0699,-0.0965,9.7633,-0.2974,-0.6563,0.0923
1025,1080,869,34.04,30.303,0.022,0.0507,9.8248,-0.4352,-0.5319,-0.2333
1030,1090,869,34.099,30.351,-0.0532,0.0345,9.8296,-0.3919,-0.4749,0.5198
1035,1083,864,34.087,30.442,-0.0821,0.0246,9.9156,-0.265,0.1408,-0.5065
1040,1080,870,34.166,30.408,0.0067,-0.0254,9.8205,0.4476,-0.2499,0.1848
1045,1080,862,34.059,30.411,0.0413,0.0178,9.7948,-0.1468,-0.0974,0.4597
1050,1085,867,34.064,30.387,0.0158,0.0169,9.9112,0.3449,-0.3087,0.6285
1055,1075,864,34.151,30.439,0.0541,-0.0103,9.8459,0.6054,-0.0833,-0.6164
1060,1072,866,34.079,30.467,0.1032,-0.043,9.8258,-0.0699,0.4256,-0.5477
1065,1064,864,34.085,30.46,0.0258,0.0292,9.8217,0.4675,0.3553,0.1646
1070,1058,864,34.157,30.482,-0.0084,0.0479,9.7977,-0.1827,0.2564,0.9701
1075,1045,860,34.005,30.366,0.0317,0.0354,9.9406,0.3696,-0.0589,0.7194
1080,1050,860,34.113,30.453,-0.0263,0.0209,9.9123,0.804,0.1191,-0.6185
1085,1054,859,34.026,30.397,0.0355,-0.0701,9.9448,-0.7737,0.2047,-0.2571
1090,1039,851,34.124,30.379,0.0057,0.1545,9.7723,0.453,-0.3436,-0.4676
1095,1033,859,34.139,30.405,-0.0213,0.0161,9.747,-0.0571,0.0386,-0.1526
1100,1035,853,34.107,30.458,0.0599,0.0298,9.7965,-1.0493,-0.3884,-0.1585
1105,1029,851,34.081,30.457,-0.0299,0.0798,9.8605,-0.3821,0.2982,-0.6197
1110,1012,855,34.144,30.475,0.0102,0.0758,9.9109,-0.4081,-0.4795,-0.0975
1115,1004,849,34.044,30.354,-0.0187,0.0835,9.7656,0.605,-0.4156,0.8435
1120,1008,852,34.157,30.406,-0.0917,0.0114,9.7957,0.0847,-1.3079,-0.4382
1125,993,849,34.097,30.373,-0.0021,0.0978,9.8606,0.5348,0.0982,0.3279
1130,991,847,34.182,30.449,-0.0381,-0.0593,9.8108,0.0478,-1.0367,0.3521
1135,975,842,34.07,30.427,0.0955,-0.0044,9.8222,0.008,0.4145,0.4968
1140,967,843,34.174,30.409,-0.0352,0.0513,9.7175,0.7936,0.5168,0.1361
1145,967,840,34.061,30.293,0.0915,0.0348,9.8207,-0.7519,-0.0684,0.5291
1150,965,840,34.133,30.353,-0.0607,-0.1042,9.8293,-0.6512,-0.2403,-0.8154
1155,944,841,34.115,30.37,-0.0694,0.0591,9.8654,0.3637,-0.5697,-0.9831
1160,943,838,34.116,30.454,-0.09,-0.0427,9.8001,-0.6608,0.6263,0.7498
1165,934,839,34.171,30.44,-0.0418,-0.0534,9.7951,0.7581,-0.5836,0.0453
1170,915,840,34.04,30.412,-0.0134,0.0328,9.8796,0.0136,-0.4023,0.2766
1175,915,839,34.164,30.354,0.0573,-0.1386,9.7738,0.0456,-0.4704,0.2156
1180,905,837,34.033,30.405,-0.0179,-0.013,9.7933,0.3166,-0.4354,0.4768
1185,890,840,34.055,30.321,0.0272,-0.0173,9.7879,0.529,-0.3569,-0.4562
1190,882,833,34.17,30.404,-0.0264,0.0363,9.8153,-0.0675,0.3839,-0.368
1195,875,827,34.082,30.474,0.0488,0.0451,9.8139,-0.2275,-0.4823,0.1522
1200,862,834,34.089,30.409,-0.0156,-0.013,9.8495,-0.2221,-0.361,-0.0044
1205,852,832,34.063,30.283,-0.0146,0.0607,9.8166,0.1828,0.0981,-0.0023
1210,848,832,34.135,30.437,0.0047,0.0737,9.8087,0.7165,0.4427,0.3033
1215,834,834,34.105,30.442,-0.0255,0.0134,9.7482,-0.0938,-0.9265,0.0809
1220,824,829,34.067,30.403,-0.0068,-0.0196,9.8489,-0.4039,0.6209,-0.1993
1225,818,832,34.074,30.381,-0.0185,0.0755,9.7414,-0.5583,-0.0192,0.3539
1230,807,827,34.06,30.422,0.0391,0.0592,9.8363,-0.6643,-0.2596,0.052
1235,787,830,34.142,30.392,0.0918,0.0442,9.8593,-0.2213,0.1924,1.2026
1240,793,826,34.113,30.385,0.0064,-0.0453,9.8246,-0.4099,1.0112,0.3961
1245,777,827,34.126,30.461,0.0008,-0.0277,9.7935,0.2573,-0.6787,-0.2637
1250,773,827,34.165,30.348,0.0136,0.0649,9.733,0.7321,0.0473,-0.1865
1255,786,820,34.169,30.424,-0.1099,-0.0316,9.8051,-0.2874,-0.6019,-0.208
1260,774,822,34.058,30.399,0.024,0.002,9.8358,0.0932,-0.249,0.0608
1265,764,820,34.131,30.459,-0.0113,0.0022,9.8518,-0.3104,-0.709,0.41
1270,759,816,34.226,30.335,0.0017,-0.0121,9.7268,0.371,-0.0468,0.3675
1275,757,814,34.201,30.352,-0.1264,0.0105,9.7999,0.2035,-0.1073,0.0195
1280,749,819,34.084,30.415,-0.0213,0.0287,9.8154,0.6774,-0.045,0.312
1285,744,815,34.13,30.441,-0.0664,0.0107,9.7715,-0.0477,0.0374,-0.1331
1290,747,805,34.164,30.433,0.0026,0.0233,9.7955,0.7245,0.0003,-0.0339
1295,743,810,34.105,30.397,-0.0102,-0.0142,9.8429,0.2704,0.0002,-0.5545
1300,746,810,34.122,30.372,0.0179,0.0269,9.8124,-0.3697,0.3594,0.6802
1305,745,803,34.106,30.398,0.031,-0.0067,9.7715,0.0054,-0.251,-0.3465
1310,748,797,34.086,30.416,0.0197,-0.1584,9.7514,-0.2255,-0.2177,0.0351
1315,747,798,34.124,30.367,-0.0663,-0.0333,9.8645,-0.087,-0.2491,-0.0057
1320,755,798,34.058,30.322,-0.101,-0.0776,9.7635,0.0197,0.029,-0.1674
1325,758,791,34.044,30.464,-0.0375,0.0635,9.8482,0.8338,0.5199,0.1446
1330,771,791,34.09,30.431,0.031,0.045,9.7247,-1.4406,-0.1965,-0.2429
1335,766,784,34.15,30.454,-0.061,0.0113,9.8456,-0.4798,0.3404,0.4848
1340,780,779,34.069,30.365,-0.0458,-0.0201,9.8277,0.2817,0.5427,-0.5071
1345,786,780,34.207,30.311,-0.1042,0.0549,9.7448,0.049,-0.5393,-0.3495
1350,790,775,34.088,30.366,0.0454,-0.0101,9.8603,0.692,-0.1587,-0.29
1355,800,772,34.083,30.375,-0.0288,0.0518,9.8082,0.3693,-0.1903,-1.2544
1360,813,771,34.108,30.314,-0.042,0.0961,9.7941,-0.4338,0.2029,-1.0702
1365,828,776,34.116,30.435,-0.0038,-0.0685,9.839,-0.194,0.4065,0.2635
1370,834,767,34.129,30.454,-0.0367,0.0125,9.8558,-0.3558,-0.1075,0.6429
1375,847,759,34.164,30.444,-0.0174,-0.0273,9.7977,0.6128,-0.1848,-0.451
1380,850,753,34.15,30.416,-0.0054,0.0657,9.8395,0.7461,0.4875,0.6037
1385,859,755,34.13,30.301,0.056,-0.0954,9.8733,-0.335,-0.1994,-0.6216
1390,879,754,34.052,30.425,0.0446,-0.0673,9.8459,0.4909,-0.9544,-0.1968
1395,892,746,34.027,30.459,0.0075,0.1062,9.8445,0.4166,0.4095,-0.6011
1400,909,744,34.159,30.409,0.0369,0.0169,9.8506,0.9122,-0.543,0.1362
1405,917,737,34.178,30.412,0.009,0.0292,9.761,0.1344,0.1705,0.1075
1410,932,739,34.155,30.375,0.0604,-0.0263,9.891,-0.8276,1.0477,-0.85
1415,940,730,34.092,30.329,0.0,0.0531,9.7919,-0.7309,0.3895,-0.3232
1420,952,730,34.043,30.447,-0.0355,-0.0768,9.8863,-0.9288,0.0281,-0.8686
1425,970,731,34.144,30.505,-0.0084,0.007,9.8086,-0.3662,-0.5019,0.45
1430,982,724,34.171,30.491,-0.0571,-0.0302,9.8217,0.6216,0.497,-0.3107
1435,990,726,34.082,30.455,-0.0535,0.0893,9.7935,1.0979,0.5184,-0.1135
1440,1010,722,34.04,30.303,0.0161,0.0017,9.897,0.313,-0.4933,-0.2982
1445,1028,717,34.148,30.466,0.0366,-0.0738,9.7748,0.1658,0.4849,0.0558
1450,1039,721,34.165,30.4,0.0052,-0.0199,9.8723,-0.0465,-0.0385,-0.5726
1455,1049,713,34.069,30.445,-0.0501,-0.0294,9.7942,0.2927,-0.8287,0.5358
1460,1069,716,34.146,30.464,0.0579,-0.0511,9.7903,0.3927,0.5558,-0.3622
1465,1069,712,34.123,30.43,-0.0409,-0.069,9.7643,0.8295,-0.3294,-0.0411
1470,1093,711,34.099,30.355,0.0055,-0.0265,9.8585,-0.0198,-0.7002,0.2755
1475,1091,709,34.131,30.376,0.0154,-0.079,9.7857,0.2314,0.3992,0.9246
1480,1101,710,34.13,30.374,0.0775,0.0248,9.8306,-0.3486,0.0912,-0.0054
1485,1109,711,34.08,30.442,0.015,-0.0587,9.7303,0.1321,-0.1366,-0.8217
1490,1117,710,34.058,30.393,-0.0088,-0.0193,9.8494,-0.0539,-0.5266,1.0156
1495,1114,710,34.104,30.441,0.0318,0.0184,9.8012,-0.0296,0.546,-0.698
1500,1145,713,34.198,30.36,0.0446,-0.0166,9.938,0.441,-0.3871,0.0046
1505,1154,716,34.008,30.458,0.0289,-0.0222,9.7876,-0.1417,-0.3482,0.0704
1510,1150,717,34.15,30.434,-0.0369,0.004,9.7755,-0.365,-0.3467,0.3034
1515,1165,712,34.09,30.364,-0.0974,-0.0133,9.7778,0.303,-0.0065,1.2038
1520,1164,718,34.097,30.5,0.106,-0.0712,9.7429,0.5307,-0.3805,-0.3557
1525,1167,721,34.119,30.41,0.0023,0.0399,9.7833,0.3438,0.2822,-0.3178
1530,1167,717,34.086,30.449,-0.0029,0.1114,9.9108,0.3841,0.0992,-0.57
1535,1174,729,34.161,30.51,-0.0232,0.0332,9.8195,0.1824,-0.296,-0.56
1540,1190,728,34.131,30.402,0.0479,-0.0396,9.7981,0.8258,-0.468,-0.9685
1545,1187,730,33.998,30.405,-0.1104,-0.0546,9.7826,-0.1746,0.3176,-0.9342
1550,1185,733,34.091,30.451,0.0046,0.0521,9.8514,0.1002,-0.6522,-0.059
1555,1187,735,34.147,30.484,0.0488,-0.0743,9.8645,0.742,-0.2845,-0.6289
1560,1192,741,34.122,30.4,0.0041,-0.0383,9.8167,-0.1201,-0.216,0.4634
1565,1191,746,34.206,30.491,-0.062,0.004,9.8124,0.8569,-0.3658,-0.0052
1570,1193,748,34.153,30.412,0.0323,0.0039,9.8034,0.2788,0.6292,-0.1517
1575,1182,750,34.085,30.394,-0.0124,-0.0306,9.7421,-0.4993,0.4349,-0.0862
1580,1197,757,34.079,30.381,0.1041,-0.0319,9.805,-0.5139,-0.1644,-0.4127
1585,1190,758,34.071,30.468,0.1362,-0.0814,9.7502,0.1395,-0.4921,0.3703
1590,1181,768,34.095,30.345,0.0,-0.0274,9.9022,0.6317,1.3718,0.0857
1595,1174,771,34.247,30.368,0.062,0.0096,9.8317,0.1791,-0.9642,0.3473
1600,1186,774,34.092,30.416,0.025,-0.012,9.7953,0.4613,0.5928,0.0988
1605,1173,785,34.047,30.371,-0.0428,-0.0293,9.83,0.5765,0.4951,-0.3132
1610,1168,786,34.114,30.462,-0.0244,0.0056,9.8574,-1.0552,-0.2101,-0.0198
1615,1168,791,34.214,30.4,-0.0956,0.0476,9.8402,0.0013,0.0829,0.116
1620,1170,792,34.091,30.418,0.0722,-0.0284,9.8561,-0.2731,0.3774,1.0262
1625,1159,797,34.089,30.377,0.0879,-0.0372,9.8061,-0.2669,-1.0777,-0.3822
1630,1159,801,34.184,30.395,0.0641,0.0099,9.7949,-0.3678,-0.1387,0.2299
1635,1151,808,34.148,30.448,-0.1425,0.0279,9.7933,0.1417,-0.2497,0.164
1640,1151,810,34.159,30.374,0.0205,0.0009,9.8348,-0.0705,0.7837,-0.4071
1645,1130,820,34.052,30.438,0.0435,-0.0031,9.8453,0.0886,-0.4181,0.1059
1650,1135,820,34.113,30.465,0.0598,0.0865,9.7728,0.6338,-0.0095,-0.8918
1655,1144,821,34.137,30.431,0.0172,0.0259,9.8297,0.3827,-0.5338,0.2454
1660,1145,828,34.148,30.43,0.0718,0.0286,9.8255,0.5734,0.2622,0.4321
1665,1130,831,34.017,30.372,0.0282,-0.0803,9.763,0.6628,0.6784,-0.0873
1670,1136,835,34.122,30.407,-0.0471,0.0246,9.9198,-0.1173,0.3476,-0.0747
1675,1129,839,34.107,30.469,0.0045,0.0057,9.7551,-1.0811,-0.3067,0.4515
1680,1123,842,34.067,30.357,0.0463,-0.0417,9.8259,-0.497,-0.0169,0.2726
1685,1125,848,34.052,30.464,0.0407,-0.0414,9.7001,0.4655,0.2751,0.6146
1690,1112,847,34.129,30.415,0.0132,-0.055,9.8679,-0.1491,-0.5382,-0.8857
1695,1112,850,34.195,30.403,-0.1445,-0.0906,9.9554,0.0112,0.3002,-0.4958
1700,1113,858,34.045,30.455,-0.0923,0.0136,9.8347,0.563,0.4162,-0.0728
1705,1109,857,34.144,30.415,0.0173,-0.0517,9.7132,0.2656,0.0514,-0.2766
1710,1104,862,34.132,30.418,0.0638,-0.0025,9.7533,-0.4526,0.0986,0.67
1715,1101,865,34.108,30.446,0.0278,-0.0523,9.7643,-0.9192,0.4102,0.5079
1720,1098,861,34.076,30.385,0.0392,0.0311,9.8453,-0.395,0.1213,0.215
1725,1104,865,34.043,30.364,0.0547,0.1848,9.7069,0.2351,-0.1734,0.9629
1730,1093,864,34.173,30.362,-0.0277,0.0558,9.7891,-0.0482,-0.3109,-0.3741
1735,1086,868,34.152,30.415,0.0826,-0.0154,9.8005,0.0334,0.6356,-0.2964
1740,1096,867,34.208,30.379,0.0619,-0.0263,9.8381,0.5062,0.4733,-1.0148
1745,1098,865,34.133,30.318,-0.0089,0.063,9.8157,0.5992,0.3949,-0.2535
1750,1086,865,34.199,30.378,-0.0177,-0.1006,9.8127,0.7393,-0.7296,-0.3593
1755,1077,864,34.132,30.396,0.0072,0.029,9.8512,0.0722,-0.3801,0.498
1760,1083,867,34.174,30.387,0.058,0.0055,9.796,-0.7086,-0.1516,-1.5068
1765,1078,866,34.039,30.345,0.0126,-0.0451,9.7059,0.5924,-0.5704,-0.2853
1770,1080,861,34.08,30.419,0.0388,-0.0416,9.8159,-0.5238,0.4281,-0.3143
1775,1080,869,34.228,30.509,0.0422,-0.0096,9.7154,-0.4873,0.6584,-0.1509
1780,1064,866,34.095,30.371,0.0334,-0.0426,9.9168,0.6349,-0.0277,0.6169
1785,1066,862,34.029,30.432,0.032,0.0379,9.8774,0.1177,-0.5061,-0.3686
1790,1072,866,34.24,30.427,-0.0045,-0.0358,9.848,-0.4203,0.0407,0.5907
1795,1058,861,34.039,30.312,0.0073,0.0598,9.7784,0.0213,0.3192,-0.5314
1800,1062,858,34.07,30.42,0.031,0.1003,9.774,0.1892,-0.8897,-0.8399
1805,1057,859,34.094,30.438,-0.1015,-0.015,9.8893,0.5799,-0.4359,-0.309
1810,1052,860,34.131,30.323,0.0687,-0.0564,9.861,0.1155,0.9678,0.4643
1815,1055,863,34.089,30.377,-0.02,0.0545,9.8815,-0.1277,-0.1092,-0.4021
1820,1036,858,34.175,30.464,-0.0688,-0.0589,9.79,-0.7806,-0.5293,0.5882
1825,1028,861,34.13,30.43,-0.0257,-0.024,9.7888,0.1651,-0.1937,0.7869
1830,1031,855,34.021,30.499,-0.0304,0.0699,9.7955,-0.1612,-0.1587,-0.2619
1835,1015,851,34.144,30.332,0.037,0.0594,9.7898,-0.4623,0.0756,0.3448
1840,1013,848,34.143,30.396,-0.0189,-0.0581,9.8931,0.7193,0.0714,0.4483
1845,1011,848,34.072,30.426,-0.0801,-0.0191,9.8235,0.0207,0.0799,-0.3945
1850,998,855,34.075,30.422,-0.0427,0.0434,9.8183,-0.0779,-0.2352,-0.0554
1855,993,851,34.042,30.484,-0.0226,-0.0544,9.8588,-0.0357,-0.0911,-0.3272
1860,986,848,34.141,30.423,0.035,0.1,9.8055,0.1977,0.2952,-0.0977
1865,967,843,34.179,30.394,0.0872,0.0207,9.7797,0.9857,0.6652,-0.4528
1870,967,844,33.992,30.378,-0.0255,-0.0176,9.7132,0.211,0.4311,-0.9651
1875,972,840,34.137,30.41,0.1285,-0.0371,9.8283,-0.4017,0.1149,-0.3528
1880,950,837,34.07,30.364,0.0399,-0.0426,9.8438,0.283,0.0615,-0.5812
1885,939,841,34.078,30.423,-0.0152,0.005,9.8127,-0.2742,-0.5141,-0.128
1890,934,842,34.052,30.426,0.0038,0.0318,9.7265,-0.4838,0.8429,0.9531
1895,924,839,34.156,30.301,0.0429,0.0043,9.8498,0.4564,-1.238,0.4296
1900,924,839,34.223,30.393,0.0736,-0.0093,9.7244,-0.2613,-0.2652,0.3407
1905,900,834,33.955,30.38,0.0185,-0.0317,9.8478,0.335,-0.0724,-0.0701
1910,893,838,34.119,30.392,0.0178,-0.0214,9.7833,0.1656,1.0089,0.6931
1915,885,838,34.121,30.386,-0.0582,0.0972,9.9042,0.2727,-0.9602,0.2068
1920,869,835,34.051,30.435,-0.0073,0.0729,9.838,-0.7157,0.8889,-0.3645
1925,858,837,34.087,30.463,0.0694,0.0318,9.7928,0.3863,-0.6343,-0.5325
1930,863,833,34.051,30.422,-0.0111,-0.0251,9.8302,-0.9005,-0.8851,-0.6538
1935,840,826,34.097,30.404,-0.0523,-0.0763,9.8322,0.2719,0.2622,-0.8001
1940,833,827,34.079,30.453,0.0426,0.0354,9.863,0.1902,0.2762,-0.508
1945,828,833,34.136,30.365,-0.017,0.0149,9.8026,-0.1146,-0.0542,0.3257
1950,820,826,34.092,30.375,-0.0439,0.1002,9.8253,0.0228,0.3417,-0.0316
1955,810,828,34.114,30.455,-0.043,-0.0357,9.8363,0.7302,0.4074,0.1724
1960,808,823,34.046,30.47,-0.0171,0.0011,9.8566,-0.6509,0.6593,-0.3081
1965,797,828,34.149,30.426,0.0958,0.0183,9.8014,-0.0034,-0.1935,-0.4592
1970,781,826,34.123,30.391,0.0317,0.0787,9.8388,0.0865,0.1075,-0.206
1975,785,825,34.146,30.386,0.0061,0.0155,9.8302,0.8903,0.9133,1.3482
1980,785,823,34.104,30.375,-0.0106,-0.0371,9.8276,0.2814,-0.469,0.2383
1985,765,816,34.096,30.45,0.0301,0.071,9.816,0.3121,0.92,0.1559
1990,763,813,34.188,30.399,0.0144,0.0622,9.7863,0.7843,-0.2174,-0.3343
1995,754,815,34.118,30.417,0.0444,0.0654,9.7531,-0.0152,0.1543,0.0051
2000,765,820,34.153,30.447,0.066,0.0023,9.8164,-0.2318,-0.0854,0.5502
2005,751,813,34.168,30.345,0.0265,0.0394,9.8925,-0.1082,0.1666,-0.2238
2009,750,813,34.09,30.489,0.0444,-0.0079,9.7726,0.8079,0.1199,0.133
2015,755,811,34.123,30.39,0.0055,0.0064,9.8471,0.9454,0.0533,-0.1999
2020,749,811,34.102,30.443,0.0671,0.0685,9.8306,-0.6405,-0.0299,-0.6284
2025,753,812,34.203,30.332,0.0507,0.0288,9.8091,0.7141,0.5115,0.0176
2029,745,801,34.115,30.447,0.0586,0.0249,9.8417,-0.1264,0.3828,0.8672
2035,747,800,34.144,30.472,-0.0951,-0.0082,9.8619,0.4781,0.8998,0.1817
2040,748,799,34.125,30.421,-0.0258,-0.0063,9.8186,0.5798,-0.0661,0.2331
2045,755,797,34.038,30.276,-0.0323,0.031,9.6809,0.1527,0.7712,0.1495
2050,766,791,34.084,30.405,-0.0037,-0.0112,9.8235,-0.2129,0.612,-0.2291
2055,757,786,34.001,30.398,-0.0628,0.0426,9.8567,-0.9328,-0.0155,0.1825
2060,773,786,34.127,30.333,0.0103,0.0106,9.8228,-0.0377,-0.6331,0.7208
2065,774,787,34.176,30.391,-0.0401,-0.0667,9.8307,-0.3964,-0.113,0.3323
2070,775,785,34.105,30.428,0.0171,-0.0464,9.7581,0.0176,0.0842,0.408
2075,789,784,34.122,30.343,-0.0766,-0.0563,9.7006,0.3815,-0.0044,0.1666
2080,807,775,34.147,30.393,-0.041,-0.0387,9.8291,0.305,0.3803,-0.043
2085,809,769,34.158,30.397,-0.0105,0.0296,9.7753,-0.3678,-0.431,0.1248
2090,809,773,34.116,30.45,-0.0138,-0.0626,9.8472,0.9002,0.0258,-0.1949
2095,830,760,34.073,30.378,0.0161,-0.0568,9.8261,0.006,0.0649,-0.628
2100,843,765,34.098,30.319,0.0261,-0.0361,9.8474,-0.3132,-0.394,-0.4409
2105,847,757,34.173,30.417,-0.0024,0.0112,9.846,0.3018,0.6041,0.5968
2110,859,750,34.07,30.383,-0.0019,0.0247,9.7924,0.5062,-0.5928,-0.004
2115,869,756,34.179,30.448,-0.0605,-0.0093,9.6867,0.6221,-0.3476,0.6579
2120,888,750,34.075,30.362,-0.0127,0.0033,9.8935,-0.4624,0.2584,0.8126
2125,909,748,34.079,30.401,0.0247,-0.0279,9.793,-0.4146,-0.7492,0.595
2130,914,743,34.177,30.399,0.0133,0.0913,9.8732,-0.4764,-0.4799,-0.2119
2135,925,737,34.135,30.465,0.1141,0.02,9.8611,0.3225,0.0498,-0.3032
2140,939,737,34.099,30.442,-0.0012,0.0484,9.7312,-0.2974,0.9151,0.0749
2145,951,731,34.089,30.373,-0.0274,0.0684,9.7771,0.2877,-0.7918,0.5219
2150,964,730,34.224,30.468,-0.0138,0.0584,9.8288,0.1379,-0.4814,0.4684
2155,977,732,34.159,30.442,0.0073,0.0459,9.9019,-0.2591,0.4816,-0.6337
2160,982,720,34.151,30.445,-0.0053,0.0031,9.886,-0.0149,0.2583,0.64
2165,1002,719,34.042,30.439,0.0328,-0.0291,9.8535,0.0248,0.4131,-0.3794
2170,1020,719,34.107,30.414,0.0152,-0.0009,9.8261,0.1582,-1.2999,0.9734
2175,1035,716,34.054,30.419,-0.0132,0.0642,9.8383,0.2097,0.0573,-0.3516
2180,1041,716,34.046,30.391,0.0152,0.0317,9.7341,-0.2972,0.4049,-1.1765
2185,1054,717,34.092,30.366,0.0286,0.03,9.8119,0.6598,-0.4468,-0.1607
2190,1068,714,34.152,30.493,-0.0051,0.0683,9.725,0.9832,0.4491,0.6808
2195,1075,713,34.037,30.502,0.0094,0.0293,9.8253,-0.1609,0.016,0.0813
2200,1091,713,34.089,30.43,0.0632,0.0313,9.7848,0.5382,0.4572,-0.4172
2205,1094,704,34.129,30.412,-0.1014,-0.0076,9.8023,-0.867,0.2002,-0.705
2210,1105,713,34.161,30.329,-0.084,-0.019,9.8316,1.2452,-0.9307,-0.3953
2215,1114,708,34.168,30.39,0.0227,0.042,9.8256,0.4163,-0.4061,-0.771
2220,1131,714,34.11,30.374,0.0665,0.0453,9.9036,0.5769,-0.1782,0.8983
2225,1133,706,34.07,30.434,0.1135,0.0099,9.8483,-0.0715,0.4023,0.1758
2230,1145,712,34.078,30.363,-0.068,-0.0085,9.8593,0.4636,-0.3271,-0.4599
2235,1150,710,34.072,30.322,-0.0272,0.0046,9.8435,-0.4361,0.0144,-0.7614
2240,1159,715,34.136,30.433,0.0127,0.0506,9.7776,0.4906,-0.0176,0.4486
2245,1165,713,34.155,30.326,0.0027,0.01,9.7737,0.5023,-0.2813,1.0351
2250,1167,715,34.108,30.42,0.0891,0.0402,9.8325,-0.068,0.7236,-0.1664
2255,1174,725,34.103,30.376,-0.1011,-0.0042,9.7307,0.2881,0.1709,0.3116
2260,1174,726,34.15,30.441,0.021,0.0418,9.8206,0.4046,0.9633,-0.3638
2265,1174,726,34.055,30.442,-0.0579,0.0249,9.7414,0.3664,0.9633,-0.4051
2270,1186,728,34.171,30.435,-0.0437,-0.1373,9.7774,-0.2782,0.0471,1.1724
2275,1177,727,34.157,30.373,0.0389,-0.0272,9.8294,0.4369,-0.3475,-0.0037
2280,1182,737,34.165,30.312,-0.0276,0.0156,9.8063,0.0053,0.1937,0.3009
2285,1185,747,34.144,30.411,0.0208,-0.0119,9.8106,-0.2364,-0.714,-0.0857
2290,1187,745,33.997,30.43,0.0628,0.0548,9.7284,1.2368,-0.9007,-0.7651
2295,1197,744,34.168,30.45,0.0069,-0.0424,9.6854,-0.3204,-0.7179,-0.8181
2300,1187,751,34.193,30.391,0.0283,0.0527,9.7921,0.588,-0.3374,-0.2031
2305,1189,757,34.095,30.458,-0.0208,0.0373,9.8176,0.7962,0.4421,-0.2079
2310,1201,760,34.072,30.435,-0.0453,-0.0558,9.8038,-0.2318,0.2839,0.2366
2315,1178,768,34.209,30.405,0.0913,0.0798,9.6669,-0.7187,0.6487,1.083
2320,1187,769,34.081,30.368,-0.0027,-0.0347,9.8129,-0.6688,-0.0149,-0.4867
2325,1192,770,34.096,30.359,0.0826,-0.0292,9.8102,1.1994,0.1382,-0.2729
2330,1176,775,34.034,30.416,-0.0812,-0.0247,9.848,-0.1092,0.2606,0.7592
2335,1176,787,34.15,30.381,0.0938,-0.054,9.7794,0.1187,-0.2754,-0.0256
2340,1167,790,34.087,30.482,-0.0308,0.0271,9.7544,0.5341,0.3107,0.9212
2345,1165,797,34.184,30.394,0.1207,-0.0839,9.7792,-0.408,-0.4073,-0.0334
2350,1153,798,34.172,30.519,-0.062,0.0252,9.7971,0.8429,-0.7832,0.5034
2355,1160,802,34.108,30.378,-0.0623,-0.0159,9.7572,-0.5488,0.1231,-0.7248
2360,1162,806,34.143,30.395,-0.0966,-0.0169,9.8177,0.786,0.004,0.3123
2365,1160,811,34.148,30.503,0.0313,0.0087,9.763,0.4969,-0.6005,0.4619
2370,1141,816,34.119,30.435,0.0407,-0.0219,9.8195,-0.8858,0.1459,-0.0925
2375,1145,819,34.2,30.434,-0.0031,0.0836,9.7894,0.0309,0.2519,0.166
2380,1141,821,34.128,30.381,0.0263,-0.0452,9.8772,0.3243,-0.2959,0.2618
2385,1138,827,34.07,30.451,0.0035,0.0382,9.8276,0.0586,-0.3329,0.2879
2390,1135,833,34.179,30.563,-0.0465,0.0268,9.8552,-0.2018,0.2382,-0.4537
2395,1136,832,34.081,30.484,-0.0245,0.0585,9.7705,-0.1469,-0.4582,-0.0821
2400,1132,839,34.091,30.377,-0.0164,0.0971,9.8736,-0.2746,0.0962,-0.686
2405,1126,844,34.1,30.448,-0.039,-0.0523,9.8503,-0.3566,0.0013,-0.3059
2410,1119,842,34.136,30.453,0.0303,-0.0065,9.8047,-0.5368,-0.256,0.0491
2415,1112,851,34.101,30.405,-0.0384,-0.0488,9.8025,-0.1907,0.1481,0.4451
2420,1106,849,34.154,30.441,-0.0347,0.0241,9.7321,-0.0773,0.4808,-0.0632
2425,1116,849,34.129,30.411,-0.0683,-0.0138,9.7567,-0.1908,0.9474,0.095
2430,1114,855,34.213,30.452,-0.0769,0.0183,9.82,-0.3683,0.261,0.4245
2435,1099,856,34.106,30.441,-0.0449,0.0432,9.7831,-0.8883,0.4082,-0.077
2440,1108,862,33.971,30.469,0.0356,0.0545,9.8737,0.2872,1.0231,-0.505
2445,1107,863,34.173,30.516,-0.058,0.0052,9.7613,-0.3243,-0.0929,0.1008
2450,1090,865,34.186,30.387,-0.0575,0.0213,9.8797,-0.0448,0.3646,0.0897
2455,1095,866,34.043,30.381,0.0081,-0.039,9.7579,0.5562,0.5473,0.8785
2460,1093,867,34.057,30.404,0.0413,0.0528,9.7708,0.4402,-0.266,0.6771
2465,1086,864,34.19,30.439,0.0457,0.0742,9.8104,0.9892,-0.1019,-1.057
2470,1086,865,34.186,30.366,0.0581,-0.0758,9.7785,0.1715,0.092,-0.1885
2475,1089,865,34.147,30.384,0.022,0.02,9.8134,-0.0229,-0.2665,0.2455
2480,1083,865,34.156,30.476,-0.06,-0.0424,9.8128,0.6078,0.4564,-0.5621
2485,1079,864,34.124,30.405,-0.0799,0.0231,9.7803,0.6103,0.0305,0.0775
2490,1089,868,34.141,30.377,-0.0745,-0.0201,9.8311,-0.4391,-0.0522,1.2937
2495,1068,863,34.154,30.43,-0.0319,-0.0033,9.8047,0.3023,-0.1583,-0.2672
2500,1080,866,34.166,30.406,0.0479,0.0116,9.8562,0.916,-0.5204,0.0446
2505,1080,867,34.138,30.418,-0.0182,-0.0194,9.8111,-0.5122,-0.2009,0.0551
2510,1073,860,34.132,30.465,-0.0381,0.058,9.7429,0.5139,0.4957,0.9299
2515,1075,862,34.203,30.407,-0.0256,0.0372,9.8034,0.235,0.0478,0.4126
2520,1058,866,34.056,30.418,-0.0227,0.0663,9.837,0.5155,-0.3178,-0.4881
2525,1060,864,34.163,30.422,-0.0144,0.0875,9.8827,-0.0412,0.2206,-0.0749
2530,1054,857,34.038,30.422,0.0414,0.0383,9.7752,-0.5005,-0.4342,-0.3238
2535,1053,857,34.1,30.461,-0.0762,-0.0278,9.872,-1.0362,-0.2081,-0.3874
2540,1049,862,34.127,30.484,-0.0587,-0.0513,9.841,-1.2642,0.0033,-0.3095
2545,1030,851,34.075,30.357,0.002,0.1356,9.8095,-0.6503,0.6097,-0.1529
2550,1034,851,34.135,30.419,0.0642,0.0947,9.7381,-0.0138,-0.0282,-0.2406
2555,1026,857,34.148,30.506,0.0463,0.0108,9.8261,-0.0498,0.1618,-0.1509
2560,1027,855,34.106,30.386,-0.0201,0.0483,9.8617,0.3538,0.6177,-0.0977
2565,1009,855,34.028,30.375,-0.0471,-0.0405,9.7487,0.4694,0.6433,0.0819
2570,1012,851,34.059,30.44,0.0929,-0.0615,9.8696,-0.1592,0.7426,-0.1147
2575,1005,849,34.106,30.417,0.0299,0.1202,9.835,0.3405,0.875,0.2766
2580,992,851,34.232,30.445,0.0397,-0.0179,9.775,0.1971,-1.0679,0.7439
2585,995,845,34.136,30.46,0.0795,0.0626,9.8491,0.0137,-0.4342,-0.5037
2590,980,843,34.08,30.33,0.0563,-0.1326,9.8198,0.8766,0.0417,-0.4311
2595,964,843,34.082,30.385,-0.1324,-0.0192,9.8429,-0.3187,-0.358,-0.1576
2600,960,842,34.057,30.419,0.076,0.0475,9.846,-0.8829,-0.4349,0.2408
2605,954,848,34.117,30.428,-0.0047,0.0934,9.7135,0.2174,0.6695,-0.3874
2610,951,843,34.156,30.434,0.0244,-0.0312,9.795,0.1912,-0.3385,0.0668
2615,937,839,34.173,30.386,0.064,-0.0006,9.8154,0.4088,0.1555,0.4208
2620,935,839,34.183,30.456,-0.1543,0.0267,9.8055,0.7224,0.0309,0.0909
2625,907,839,34.173,30.421,0.0182,0.0143,9.792,0.6012,1.1547,0.0138
2630,904,840,34.126,30.363,0.1068,0.0163,9.837,-0.0942,0.2198,0.2569
2635,902,839,34.126,30.484,0.0235,-0.0544,9.6843,-0.7544,0.0629,1.3012
2640,890,837,34.138,30.423,-0.0235,0.0509,9.8446,0.6654,-0.6069,-0.5823
2645,879,835,34.166,30.436,0.0908,-0.0759,9.7829,0.0715,-0.2368,-0.1957
2650,870,837,34.241,30.418,-0.0208,-0.004,9.8062,0.0225,0.1502,-0.9569
2655,857,829,34.135,30.461,0.0745,0.0525,9.8851,-0.8018,-0.5696,-0.3686
2660,848,837,34.088,30.441,-0.0741,-0.0316,9.8603,-0.6623,-0.1463,-0.0871
2665,832,831,34.042,30.427,0.0248,0.0354,9.7897,-0.1754,0.226,0.2901
2670,829,831,34.155,30.473,-0.0426,0.0965,9.7161,-0.1382,0.312,0.337
2675,815,828,34.122,30.39,-0.0585,0.0409,9.9338,-0.0799,0.0873,-0.0996
2680,818,829,34.164,30.455,0.0506,0.0446,9.8607,0.6377,-0.4879,-0.2694
2685,800,827,34.086,30.349,-0.1155,-0.0679,9.8398,0.33,0.4787,-0.4106
2690,794,821,34.125,30.444,0.1053,0.0189,9.76,0.1808,0.1778,-0.0812
2695,790,829,34.129,30.474,0.0499,0.0252,9.7974,-0.1545,-0.1004,-0.3492
2700,778,827,34.05,30.453,0.0109,-0.027,9.8079,0.5218,-0.3086,0.5519
2705,776,826,33.96,30.388,-0.0219,-0.0533,9.8087,-0.1443,0.0959,-1.0005
2710,771,821,34.122,30.311,0.0584,-0.0019,9.8739,0.3479,0.5457,0.391
2715,774,824,34.076,30.444,-0.046,0.0296,9.8139,0.4568,0.6787,-0.0179
2720,763,817,34.087,30.385,0.0522,-0.0315,9.8119,-0.7061,-0.1151,-0.0368
2725,761,817,34.109,30.44,-0.044,0.0986,9.8598,0.3397,0.4346,-0.4553
2730,751,811,34.096,30.378,0.0118,0.0225,9.7667,0.6425,-1.3805,-0.2646
2735,744,812,34.128,30.502,-0.0111,-0.0412,9.9071,0.0564,-0.0485,-0.1666
2740,742,808,34.117,30.403,-0.0074,0.0151,9.7833,0.1607,0.7959,-0.2307
2745,750,809,34.18,30.438,0.0609,-0.0813,9.8256,-0.1584,0.7837,0.2528
2750,736,809,34.092,30.487,0.0474,-0.0025,9.773,-0.1719,-0.5667,-0.2506
2755,750,805,34.116,30.444,-0.0211,-0.0386,9.8326,0.1445,0.2734,-0.144
2760,749,806,34.134,30.427,0.0209,0.008,9.8521,-0.9202,0.5799,-0.0086
2765,754,802,34.163,30.349,0.0761,0.1311,9.8609,-0.0434,0.1212,0.5604
2770,748,801,34.241,30.318,-0.036,-0.0411,9.8395,-0.4955,0.0743,0.123
2775,760,794,34.078,30.426,-0.0336,-0.0715,9.8526,-0.1097,-0.323,0.1697
2780,766,794,34.134,30.379,0.0498,-0.0583,9.8763,0.5802,-0.1693,0.3577
2785,773,791,34.125,30.409,0.0151,0.054,9.8723,0.0177,0.6685,0.4556
2790,778,787,34.104,30.448,0.0184,-0.0772,9.8026,0.6304,-0.4436,0.2209
2795,773,788,34.079,30.442,-0.0093,0.0204,9.8655,-0.6751,-0.535,0.3938
2800,792,777,34.093,30.489,-0.0379,0.0054,9.836,-0.4363,-0.6084,-0.0502
2805,800,778,34.196,30.455,0.0293,0.0112,9.9254,0.0827,-0.168,-0.2911
2810,805,776,34.136,30.449,-0.0012,0.0164,9.8769,-0.5603,-0.5464,0.2635
2815,816,771,34.21,30.565,-0.0369,0.0022,9.8573,0.641,-0.0994,0.5896
2820,813,762,34.177,30.408,0.0414,-0.0188,9.8253,0.3447,0.2648,0.3223
2825,830,766,34.212,30.439,-0.0206,-0.0164,9.8097,-0.2349,-0.2859,-0.2099
2830,851,755,34.098,30.496,0.0235,-0.0254,9.7714,0.5149,0.4788,-0.4222
2835,853,755,34.106,30.535,0.0263,-0.0411,9.8493,-0.163,0.04,0.2484
2840,866,750,34.147,30.493,-0.004,-0.0087,9.7829,0.437,0.1701,0.2809
2845,882,753,34.296,30.349,0.0738,0.0131,9.778,-0.0237,-0.4771,0.7196
2850,897,748,34.148,30.42,-0.0786,-0.0352,9.9,0.1499,0.8175,-0.1388
2855,905,741,34.121,30.466,0.0013,0.1014,9.7907,-0.1981,-0.6015,0.2586
2860,918,737,34.162,30.41,0.0453,-0.0117,9.8061,0.2605,0.5579,1.4842
2865,932,737,34.12,30.43,-0.0581,-0.0389,9.8211,-0.529,0.5289,-0.3942
2870,932,732,34.097,30.418,-0.0112,0.0814,9.8159,0.5197,0.3517,-0.2373
2875,962,732,34.183,30.357,-0.0023,0.0839,9.787,0.1209,0.3648,-0.9614
2880,972,728,34.032,30.461,-0.0399,0.019,9.8601,0.9639,0.5988,-1.4535
2885,990,724,34.129,30.412,-0.0209,0.0468,9.7219,0.183,-0.108,-0.5982
2890,1001,725,34.149,30.345,-0.0238,0.0088,9.8288,0.7044,0.196,0.6706
2895,1015,723,34.212,30.438,-0.0245,0.0086,9.8322,-0.0805,0.505,-1.2594
2900,1032,716,34.127,30.477,0.0509,-0.0184,9.8129,-0.1223,-0.6547,-0.0616
2905,1034,714,34.156,30.367,-0.0621,-0.0331,9.6996,-0.5414,-0.2045,-0.8834
2910,1049,710,34.108,30.451,0.0064,-0.0039,9.9349,1.0119,-0.3816,0.2868
2915,1062,712,34.239,30.43,-0.0863,-0.0345,9.8202,-0.3183,-0.3429,-0.1014
2920,1076,713,34.141,30.46,0.047,0.0036,9.7619,-0.1492,-0.5121,-0.0303
2925,1085,709,34.135,30.446,-0.0665,-0.0043,9.7515,-0.9399,-0.4215,-0.8196
2930,1098,712,34.129,30.457,-0.0806,-0.0326,9.8822,-0.2532,0.478,0.4888
2935,1098,707,34.095,30.446,0.0054,0.0188,9.7325,-0.3009,0.2674,-0.2472
2940,1121,718,34.151,30.439,0.1285,-0.0317,9.8386,0.0232,-0.3695,0.0264
2945,1122,712,34.104,30.414,-0.0451,-0.0935,9.8244,-0.2321,-0.3054,0.4229
2950,1136,706,34.082,30.343,-0.025,0.0181,9.7136,0.2609,-0.1142,-0.353
2955,1150,713,34.144,30.413,0.0185,0.1048,9.7524,-0.1582,0.0877,-0.4793
2960,1146,715,34.149,30.321,0.0342,-0.0013,9.7495,0.7786,-0.5673,-0.6453
2965,1151,710,34.132,30.487,0.0067,-0.0422,9.8885,-0.1898,-0.2285,0.5141
2970,1162,718,34.129,30.428,-0.0143,-0.0571,9.8068,-0.099,-0.0299,-0.0217
2975,1164,720,34.122,30.372,0.0914,0.0053,9.8861,-0.3624,-0.0694,0.1235
2980,1168,723,34.078,30.466,-0.0139,0.0626,9.7504,1.0491,-0.7646,0.269
2985,1164,722,34.13,30.379,0.0218,0.066,9.7587,0.015,-0.9531,0.4158
2990,1182,723,34.143,30.417,0.0278,-0.0117,9.8867,-0.0542,-0.3922,0.6108
2995,1193,729,34.112,30.49,-0.0017,0.0166,9.8179,-0.357,0.1625,0.1947
3000,1182,732,34.188,30.499,-0.0279,0.0091,9.8329,-0.4053,0.2016,0.5989
3005,1189,731,34.146,30.499,0.0477,0.0124,9.8201,0.1843,-0.7941,-0.4629
3010,1187,736,34.157,30.455,-0.03,0.0031,9.8603,0.4882,-0.75,0.5018
3015,1190,739,34.031,30.473,-0.0442,0.0143,9.7512,0.9223,-0.936,-0.529
3020,1193,747,34.118,30.458,0.0294,-0.0606,9.8428,-0.3377,-0.141,-0.4822
3025,1186,751,34.046,30.415,0.0522,-0.0787,9.8358,0.293,-0.085,0.1372
3030,1182,752,34.205,30.465,0.0429,0.0131,9.8146,-0.2349,0.3036,0.3535
3035,1180,761,34.111,30.536,0.0445,0.0256,9.7887,-0.0351,-0.2009,-0.9019
3040,1191,764,34.212,30.332,-0.0281,-0.0041,9.7917,0.2539,0.4091,0.1252
3045,1192,770,34.081,30.367,0.0023,-0.0542,9.8589,0.5484,0.2589,-0.3803
3050,1178,768,34.226,30.391,-0.0167,0.0243,9.8264,0.6055,0.1565,-0.1308
3055,1173,772,34.206,30.505,0.0507,0.0132,9.8242,-0.1583,0.3046,1.2029
3060,1169,782,34.153,30.416,-0.0735,-0.0919,9.8639,0.7193,1.1081,-0.1723
3065,1170,781,34.029,30.449,0.002,0.004,9.8101,-0.2637,0.6385,-0.2551
3070,1166,794,34.159,30.41,-0.014,-0.0348,9.8566,0.2937,-1.1719,0.2095
3075,1167,794,34.103,30.371,0.017,0.0279,9.8297,-0.1494,-0.4438,0.1868
3080,1158,797,34.124,30.452,0.0272,-0.0469,9.8231,-0.333,-0.1202,0.1831
3085,1168,810,34.13,30.398,0.0728,-0.0093,9.8495,0.6616,0.8009,0.2687
3090,1160,811,34.172,30.436,0.0498,-0.0802,9.8272,-0.391,-0.0735,0.1046
3095,1157,817,34.136,30.372,0.1181,-0.028,9.8312,0.1817,0.0865,0.27
3100,1143,817,34.147,30.437,-0.0515,-0.0079,9.7654,-0.345,0.0677,0.4579
3105,1134,827,34.141,30.35,0.0464,-0.0687,9.7367,-0.6736,-0.1525,-0.488
3110,1138,827,34.174,30.489,0.0203,-0.0084,9.7894,-0.2067,-0.7873,0.121
3115,1141,824,34.188,30.44,-0.0291,-0.0386,9.7797,-0.0246,-0.1015,0.372
3120,1124,835,34.155,30.367,-0.0226,-0.07,9.8956,0.1079,-0.7357,-0.3733
3125,1133,840,34.116,30.432,-0.0211,0.0986,9.7338,0.2683,-0.0272,0.4058
3130,1126,841,34.181,30.439,-0.0164,0.0046,9.8303,-0.2311,-0.0447,1.2638
3135,1119,840,34.073,30.464,0.0044,0.0623,9.7179,-0.1259,-0.31,0.6676
3140,1119,843,34.144,30.431,-0.0432,0.0912,9.8096,0.1806,0.0185,-0.0359
3145,1117,855,34.154,30.455,0.0055,-0.015,9.8541,-0.0287,1.0349,0.5517
3150,1119,850,34.13,30.428,-0.0299,0.0167,9.7838,-0.0485,-0.1312,-0.8332
3155,1104,855,34.104,30.436,-0.0071,-0.1339,9.7447,-0.0872,-0.0795,-0.4444
3160,1115,863,34.104,30.424,-0.0887,0.0386,9.7573,0.0729,-0.3134,0.1072
3165,1110,858,34.202,30.456,-0.0123,-0.042,9.8152,-0.0607,-0.1714,-0.7284
3170,1101,860,34.203,30.428,0.0022,-0.0148,9.7992,-0.2485,0.1115,0.6576
3175,1103,869,34.122,30.455,0.0115,0.0694,9.7369,-0.48,0.1095,0.4621
3180,1095,868,34.147,30.455,-0.046,-0.0189,9.7667,0.3842,0.533,-0.0561
3185,1100,863,34.276,30.438,0.0279,-0.0198,9.7814,1.2998,0.6054,0.2004
3190,1097,872,34.141,30.4,0.0388,-0.069,9.7588,-0.5268,1.3852,-0.7812
3195,1090,862,34.109,30.488,-0.0105,0.0266,9.8158,-0.1357,-0.6725,0.9515
3200,1091,862,34.04,30.514,-0.0118,-0.038,9.8489,-0.0717,-0.0827,0.7572
3205,1082,868,34.193,30.327,0.0126,-0.028,9.9339,-0.2144,-0.1168,0.0766
3210,1087,862,34.227,30.43,0.0395,-0.0619,9.7102,0.7042,1.0624,-0.656
3215,1078,868,34.054,30.456,-0.0114,0.0008,9.8398,-0.0106,0.6506,0.0416
3220,1077,865,34.105,30.413,-0.0035,0.0391,9.8736,0.1646,0.4041,0.7758
3225,1069,868,34.177,30.422,0.0904,0.1059,9.8081,0.5435,0.2393,-1.3214
3230,1064,861,34.069,30.504,0.0819,0.0518,9.7054,0.3851,0.0806,-0.2182
3235,1072,868,34.143,30.449,0.1,-0.0109,9.8264,-1.258,-0.0621,-0.1301
3240,1069,869,34.145,30.44,-0.0246,-0.0385,9.8195,-0.1385,0.1063,-0.2783
3245,1055,864,34.14,30.433,-0.0155,-0.0064,9.7267,0.5267,0.2717,-0.6455
3250,1052,864,34.047,30.429,-0.0143,0.0353,9.8276,-0.1787,-0.0,-0.1313
3255,1054,863,34.06,30.459,0.0299,0.0724,9.826,-0.0161,0.0801,-0.4882
3260,1048,857,34.079,30.43,-0.0788,0.0299,9.7936,0.1836,0.1822,0.6309
3265,1051,864,34.193,30.412,0.0349,0.0683,9.8142,-0.7657,-0.4623,-0.4822
3270,1040,861,34.079,30.439,-0.0016,-0.0019,9.7692,0.0017,-0.4813,0.4863
3275,1035,856,34.111,30.446,-0.0093,-0.003,9.8307,0.0956,-0.8202,0.3277
3280,1034,852,34.12,30.418,-0.0429,-0.0532,9.7111,0.5251,-0.374,0.3793
3285,1025,855,34.153,30.397,0.0194,-0.007,9.7266,0.8222,0.0445,-0.443
3290,1016,854,34.149,30.443,-0.0975,0.0565,9.8107,0.4529,0.1995,0.0903
3295,1012,845,34.161,30.364,0.0139,-0.1236,9.8193,-0.5669,0.6402,-0.6593
3300,1005,851,34.116,30.385,0.0029,0.0215,9.8353,0.2785,0.1687,0.2503
3305,1005,848,34.119,30.424,0.0044,0.0181,9.8159,-1.0453,0.2107,0.4623
3310,995,851,34.231,30.499,0.0419,-0.0118,9.8234,0.0013,0.2443,0.0662
3315,985,851,34.125,30.396,-0.0826,-0.0227,9.7702,-0.4226,-0.3641,-0.1941
3320,978,844,34.051,30.439,0.0222,0.0576,9.7417,-0.0682,-0.1437,-0.0966
3325,970,837,34.065,30.345,0.0933,0.0454,9.726,-0.5979,0.2117,0.007
3330,953,841,34.214,30.43,-0.0501,-0.0175,9.7326,0.3875,0.2675,-0.7637
3335,941,849,34.053,30.541,-0.0308,-0.0051,9.808,-0.6214,-0.9134,0.5243
3340,933,838,34.194,30.407,0.0428,0.0704,9.8262,-0.3827,0.0842,0.4775
3345,928,843,34.071,30.343,-0.0487,-0.0056,9.8448,0.4768,-0.0436,-0.5318
3350,918,839,34.02,30.537,-0.0269,-0.0056,9.7768,-0.5375,-0.9361,-0.9108
3355,910,839,34.013,30.418,0.0128,-0.006,9.803,0.0399,0.3511,0.523
3360,901,838,34.163,30.491,0.0329,-0.0161,9.8564,-0.1942,0.6163,0.3328
3365,881,836,34.116,30.287,-0.0157,-0.0071,9.7659,0.1613,0.0762,0.1604
3370,883,837,33.987,30.462,0.0342,0.0822,9.8416,0.1305,0.4976,-0.0573
3375,865,835,34.12,30.423,-0.0038,-0.0193,9.7943,-1.0678,0.2104,-0.7404
3380,867,833,34.086,30.426,0.0367,-0.0014,9.7981,0.1852,0.3656,-0.1899
3385,860,822,34.108,30.448,0.1014,-0.029,9.791,-0.0259,0.5481,-0.1029
3390,841,832,34.126,30.406,-0.094,0.0793,9.8121,1.3451,-0.3217,-0.0087
3395,839,833,34.072,30.308,0.0098,0.0468,9.8388,-0.1942,-0.7811,0.0212
3400,828,830,34.095,30.473,-0.045,0.0839,9.7845,-0.0808,-0.4269,-0.5317
3405,814,834,34.231,30.46,0.0113,0.0214,9.7325,0.2938,0.6742,-0.4995
3410,808,826,34.229,30.416,0.0352,0.0159,9.7986,-0.1898,-0.3433,-1.0412
3415,791,827,34.129,30.389,0.0034,-0.0593,9.8895,0.0212,1.1897,0.7589
3420,787,827,34.181,30.352,-0.0402,0.0871,9.7608,-0.7204,0.4462,0.2798
3425,782,817,34.125,30.521,0.0988,-0.0157,9.7592,-0.1208,0.3787,-0.5104
3430,775,822,34.094,30.415,-0.0004,-0.0225,9.7745,-0.8747,1.3555,0.3913
3435,766,825,34.11,30.425,-0.0054,0.0395,9.8266,-0.4137,0.805,0.5622
3440,766,816,34.146,30.379,-0.0316,-0.0043,9.7762,-0.6354,0.0249,0.6294
3445,760,815,34.216,30.43,0.0287,-0.0162,9.775,0.4775,-0.108,0.3675
3450,753,818,34.091,30.516,-0.0022,0.0857,9.8522,1.0047,0.1491,0.1687
3455,749,813,34.158,30.383,0.0627,0.0557,9.8596,1.1747,0.1709,0.6659
3460,755,816,34.106,30.477,-0.0088,-0.0077,9.8171,1.0126,0.1128,0.306
3465,752,813,34.119,30.398,0.0524,0.0542,9.8411,-0.7195,0.0654,0.2708
3470,747,811,34.123,30.375,-0.0173,-0.0383,9.8011,0.2305,0.2356,0.453
3475,749,806,34.089,30.454,0.1184,-0.0537,9.8051,-0.7142,-0.0393,0.5475
3480,740,805,34.141,30.506,-0.0149,-0.0692,9.8063,-0.2573,0.6896,0.3467
3485,754,804,34.106,30.481,-0.0256,0.0238,9.8893,0.1161,0.5167,0.3868
3490,750,798,34.119,30.462,-0.0778,-0.0825,9.8403,0.3125,-0.5012,-0.7723
3495,761,799,34.102,30.32,-0.0108,0.0096,9.8811,0.0224,-0.3167,-0.1176
3500,755,794,34.204,30.467,0.0132,-0.0615,9.7599,0.3288,0.3003,0.3018
3505,760,792,34.174,30.483,-0.0159,0.0424,9.7876,0.8345,0.0379,-0.1575
3510,751,796,34.106,30.438,0.0609,0.0158,9.841,-0.0134,-0.1289,0.1268
3515,768,786,34.151,30.474,0.0337,-0.0038,9.8317,1.1683,-0.5641,-0.2116
3520,784,784,34.135,30.389,0.1079,-0.0693,9.8313,0.0492,-0.4899,0.4808
3525,789,780,34.201,30.416,-0.0592,0.0402,9.7662,0.7918,-0.2945,-0.2221
3530,785,775,34.129,30.431,0.0394,0.0082,9.8188,0.465,-0.4472,-0.3641
3535,804,772,34.132,30.412,-0.0075,-0.038,9.8734,-0.0105,-0.4043,-0.7685
3540,806,770,34.124,30.449,-0.0157,-0.0305,9.85,-0.2617,0.2729,-0.0239
3545,827,768,34.077,30.39,-0.0048,0.0414,9.6976,-0.4204,0.872,-0.0455
3550,836,769,34.176,30.364,0.0297,-0.0011,9.7512,0.0392,-0.0876,-0.6374
3555,849,757,34.038,30.485,-0.0502,0.0803,9.8203,-0.0644,0.2639,-0.1387
3560,846,762,34.12,30.372,0.0171,-0.0337,9.7765,-0.3088,-0.211,0.1012
3565,863,750,34.009,30.37,-0.0455,-0.0142,9.8474,-0.6783,0.784,-0.4178
3570,884,749,34.077,30.472,0.0041,-0.0543,9.7865,-0.8432,-0.6682,-1.2217
3575,887,746,34.183,30.376,-0.0343,-0.0009,9.8235,-1.0711,-0.0406,0.2858
3580,911,744,34.106,30.499,0.0273,-0.02,9.7619,0.3055,0.6676,0.3298
3585,912,742,34.192,30.364,0.01,0.0955,9.8958,0.76,-0.7574,-0.6405
3590,928,740,34.166,30.482,0.0636,-0.0025,9.7184,0.491,0.4282,0.9322
3595,942,734,34.101,30.404,0.0425,0.0352,9.7793,0.4205,-0.7148,0.3748
3600,955,728,34.135,30.406,0.1376,0.0107,9.7978,0.1412,-0.9147,-0.6602
3605,970,727,34.16,30.401,0.0083,0.049,9.8182,-1.0511,0.135,-0.2594
3610,981,725,34.151,30.477,-0.0197,0.0079,9.7403,-0.345,-0.1139,-0.5994
3615,993,724,34.216,30.42,-0.0184,-0.0833,9.7591,1.0466,-0.2502,0.8916
3620,1016,721,34.252,30.411,-0.0053,0.0017,9.7568,0.1804,0.463,-0.1151
3625,1019,717,34.124,30.367,0.1377,0.0643,9.7914,-0.1046,0.4348,0.1833
3630,1040,716,34.11,30.389,-0.0171,-0.025,9.713,0.5952,0.4682,-0.0055
3635,1048,712,34.09,30.424,-0.0689,0.0188,9.9503,0.2745,-0.0609,-1.2681
3640,1066,716,34.157,30.383,-0.045,-0.0258,9.7707,0.1785,-0.2408,-0.5461
3645,1083,710,34.131,30.472,-0.0004,0.0021,9.7529,0.4207,-0.1238,0.6134
3650,1089,712,34.159,30.343,-0.0224,0.0261,9.8244,-0.3198,-0.5796,-0.0427
3655,1092,714,34.041,30.486,0.0003,0.0308,9.8423,0.1762,-0.1877,0.2136
3660,1099,712,34.227,30.476,0.0071,0.0086,9.7964,0.2548,0.0419,-0.0255
3665,1100,710,34.152,30.511,0.0801,-0.1031,9.784,-0.6763,0.0073,0.0478
3670,1121,714,34.051,30.493,0.0075,0.1006,9.8736,-0.2398,-1.3344,0.1745
3675,1130,708,34.239,30.479,0.0581,-0.0623,9.7441,0.1623,-0.33,-0.7307
3680,1137,707,34.098,30.354,-0.0624,-0.1099,9.7715,-0.3547,-0.4469,0.6782
3685,1142,705,34.166,30.452,0.0303,0.0655,9.8162,0.1717,-0.3282,-0.1055
3690,1153,712,34.176,30.447,-0.0664,0.0782,9.8356,0.173,0.3342,-0.2557
3695,1162,718,34.078,30.4,-0.009,0.028,9.8047,0.1251,-0.6972,0.0406
3700,1164,715,34.152,30.414,0.1534,0.0641,9.774,0.1968,-0.4264,-0.2556
3705,1162,724,34.061,30.425,0.1342,-0.088,9.8488,0.5206,-0.9061,0.7743
3710,1171,720,34.077,30.479,-0.0209,0.005,9.7732,-0.3867,0.6833,-0.4418
3715,1169,720,34.173,30.361,-0.0409,0.0238,9.8027,0.8055,0.3598,0.067
3720,1177,724,34.099,30.423,0.103,0.0392,9.7514,0.5258,0.6092,0.9335
3725,1189,730,34.155,30.491,0.0626,0.0327,9.7934,0.1097,0.1679,0.0719
3730,1176,730,34.183,30.396,0.0709,0.0927,9.7866,-0.183,0.4349,0.0322
3735,1188,740,34.113,30.377,-0.0433,0.0157,9.8471,0.1402,-0.3433,-0.1214
3740,1195,744,34.203,30.42,-0.0942,0.0141,9.8715,0.4219,0.7591,-0.2999
3745,1189,744,34.096,30.448,0.064,-0.1078,9.8464,0.0832,-0.3035,-0.2122
3750,1180,748,34.043,30.506,-0.0464,0.132,9.8431,0.6148,0.2749,0.6524
3755,1186,752,34.176,30.399,0.0593,0.0647,9.8058,0.3424,0.3181,0.4781
3760,1198,753,34.128,30.436,0.0328,0.1095,9.7585,-0.2994,-0.0101,0.857
3765,1189,762,34.191,30.418,0.0666,-0.0755,9.837,0.5054,0.3264,-0.4401
3770,1175,767,34.078,30.406,0.0585,-0.0057,9.7333,0.3011,-0.1449,-0.5391
3775,1182,769,34.211,30.433,-0.0355,0.0451,9.819,-0.0723,0.0829,1.0389
3780,1166,771,34.094,30.437,0.1011,-0.0713,9.8474,-0.8954,0.4565,-0.1187
3785,1180,781,34.139,30.383,-0.002,-0.0256,9.7348,0.0335,-0.0053,-0.4769
3790,1177,781,34.168,30.44,0.017,-0.0058,9.7061,0.3159,-1.2502,-0.5518
3795,1177,799,34.13,30.465,0.0296,-0.1056,9.7453,0.0111,-0.2779,0.1966
3800,1172,796,34.051,30.48,-0.0914,-0.0168,9.8016,0.1053,0.1491,0.0793
3805,1161,800,34.134,30.466,0.0199,0.0052,9.8229,0.5979,-0.0213,-0.5342
3810,1166,801,34.102,30.514,0.051,0.0052,9.8467,-0.8194,0.7797,0.4752
3815,1154,814,34.12,30.459,-0.0268,-0.0211,9.9356,0.6879,-0.0539,-0.9516
3820,1154,814,34.17,30.416,-0.1185,0.0393,9.9034,1.9624,0.4197,0.5376
3825,1148,814,34.169,30.405,0.0035,-0.0006,9.7792,0.3205,-0.8301,-0.329
3830,1140,823,34.126,30.373,0.0402,-0.0855,9.7737,-0.0661,-0.4409,-0.4481
3835,1146,828,34.165,30.42,0.0394,0.0465,9.8328,-0.2721,-0.2205,-0.0909
3840,1134,827,34.209,30.503,0.0005,-0.0248,9.8087,0.2153,0.5245,0.3569
3845,1132,827,34.081,30.355,-0.0731,0.0365,9.7669,0.0178,-0.1685,0.0742
3850,1135,838,34.115,30.387,-0.0253,0.0755,9.7797,-0.4034,-0.2215,-0.7081
3855,1131,842,34.01,30.364,0.0364,-0.0875,9.7243,-0.4044,-0.1327,0.0996
3860,1126,842,34.134,30.492,0.0261,0.0418,9.7596,-0.1518,0.227,-0.3502
3865,1125,843,34.162,30.402,-0.0201,-0.0354,9.797,0.572,-0.7597,0.3153
3870,1114,851,34.111,30.49,0.0423,0.0244,9.8218,-0.3363,0.343,0.5679
3875,1114,851,34.09,30.397,0.0745,0.0487,9.7903,0.603,-0.3659,-0.3798
3880,1111,852,34.105,30.504,0.0418,-0.046,9.8356,0.4203,-0.4423,-0.1569
3885,1112,860,34.148,30.433,-0.11,-0.0919,9.8546,0.2338,-0.8214,-0.6675
3890,1103,858,34.034,30.461,-0.0725,-0.0116,9.7873,-0.231,-0.119,-0.4118
3895,1098,860,34.213,30.374,0.0104,0.0596,9.7232,-0.2411,-0.0669,0.1043
3900,1097,861,34.207,30.424,0.0863,0.0002,9.7736,0.5885,0.2624,0.1872
3905,1090,858,34.114,30.453,-0.0423,-0.0976,9.788,-0.035,-0.8412,-0.6853
3910,1103,868,34.157,30.348,0.0527,-0.0142,9.7881,-0.4456,0.5561,-0.3534
3915,1102,859,34.211,30.411,0.0103,-0.0416,9.7409,0.1607,0.1872,0.4505
3920,1090,866,34.192,30.357,0.0633,0.0279,9.8666,-0.1679,-0.0596,-0.0718
3925,1099,865,34.128,30.424,-0.0092,0.0403,9.839,-0.2651,-1.1603,-0.1034
3930,1086,866,34.084,30.501,0.0674,0.0783,9.815,-0.1183,0.7052,-0.0131
3935,1086,870,34.08,30.444,-0.0027,0.0053,9.7954,-0.8526,-0.7858,-0.4797
3940,1080,865,34.207,30.418,-0.0023,0.0442,9.8288,0.3382,0.3765,0.7084
3945,1076,865,34.116,30.513,-0.0453,0.0193,9.7664,-0.928,0.0795,0.8793
3950,1081,869,34.101,30.396,0.0245,-0.0197,9.7967,0.0432,-0.1692,0.4615
3955,1070,867,34.212,30.434,-0.1264,0.0741,9.7451,0.1383,0.2395,0.3579
3960,1068,859,34.14,30.405,-0.0129,0.1311,9.798,-0.0615,-0.6281,-0.9215
3965,1070,866,34.163,30.453,-0.0353,-0.0936,9.7747,0.5673,0.5217,-0.0391
3970,1068,864,34.156,30.368,-0.0189,-0.0345,9.7726,0.7274,0.3901,-0.3413
3975,1060,859,34.171,30.504,-0.0206,-0.0274,9.7683,-0.6378,0.0704,0.5441
3980,1060,859,34.145,30.45,-0.0015,0.0379,9.8075,-0.5465,0.196,-0.9872
3985,1053,863,34.121,30.435,0.0589,-0.051,9.8185,-0.876,-0.0274,-0.2414
3990,1047,857,34.185,30.439,0.0013,0.0563,9.7519,0.9196,0.8032,-0.4234
3995,1048,861,34.155,30.397,-0.0521,-0.0224,9.853,0.4808,-0.2853,0.3736
4000,1041,858,34.125,30.398,-0.1166,0.0108,9.8854,-0.838,-0.2685,0.1745
4005,1032,856,34.217,30.424,-0.11,0.0762,9.7464,-0.2682,0.4461,0.2756
4010,1034,858,34.145,30.441,-0.1121,-0.0514,9.7844,-0.507,0.1902,-0.4215
4014,1019,848,34.155,30.48,0.0014,0.0448,9.8368,0.3775,-0.2048,0.4028
4019,1021,856,34.163,30.419,0.0265,-0.0187,9.852,-0.1733,0.65,0.228
4025,1002,844,34.102,30.44,-0.0141,0.0255,9.7667,0.9467,0.3444,-0.0318
4030,1000,848,34.112,30.453,0.0331,0.0575,9.7749,0.0179,0.6299,0.6932
4035,992,846,34.12,30.46,-0.0054,-0.0273,9.8402,0.6164,-0.9762,-0.2661
4040,985,847,34.115,30.453,0.0282,-0.0273,9.7782,-0.0407,-0.9583,-0.6563
4045,978,841,34.095,30.424,-0.0572,-0.0198,9.8115,1.0255,0.2974,-0.7666
4050,974,845,34.199,30.397,0.0426,-0.0669,9.8818,-0.1393,-0.5674,0.0077
4054,958,848,34.103,30.371,-0.0094,0.0421,9.8157,0.4654,-0.603,0.2272
4059,945,843,34.13,30.496,-0.0817,0.0601,9.7995,0.1783,0.3478,0.6717
4065,945,836,34.04,30.492,-0.0702,0.0751,9.7637,-0.3772,0.6465,-0.0674
4070,930,839,34.193,30.419,0.0698,0.0092,9.8358,0.0372,-0.0956,0.3286
4075,924,839,34.19,30.395,-0.0276,-0.0861,9.7567,-0.8972,-0.7875,0.0356
4080,920,834,34.072,30.398,-0.0004,-0.0953,9.7558,-0.4332,-0.8566,-0.0113
4085,898,837,34.176,30.433,0.0388,0.0266,9.8146,0.1498,0.2391,-0.758
4090,896,834,34.153,30.366,-0.1085,0.0502,9.8087,0.0867,0.6747,-0.4284
4094,885,833,34.141,30.451,-0.0069,0.0044,9.7977,0.4298,-0.5152,0.1993
4100,872,834,34.133,30.411,0.063,-0.0208,9.7647,0.4933,0.0598,-0.2157
4105,863,829,34.18,30.482,0.0596,0.107,9.7486,0.6169,-0.1066,0.4357
4110,857,832,34.071,30.52,0.032,-0.0121,9.7945,0.4031,0.3542,-0.6572
4115,853,830,34.154,30.431,-0.0191,0.0254,9.9071,-0.3868,-0.2981,0.1951
4120,850,829,34.152,30.486,-0.0524,0.0273,9.8623,0.583,0.3245,0.5204
4125,828,832,34.064,30.384,0.0283,0.0051,9.8332,0.1065,-0.86,0.135
4130,810,830,34.158,30.393,-0.0047,-0.0982,9.8208,0.2035,-0.2278,-0.868
4135,815,827,34.271,30.367,-0.037,-0.0545,9.7878,-0.5541,0.2696,-0.6613
4140,799,830,34.161,30.411,0.0964,0.0613,9.7758,-0.6244,-0.3105,-0.0917
4145,786,826,34.08,30.448,0.0323,-0.0094,9.8225,0.4867,0.1035,0.3544
4150,793,824,34.134,30.342,-0.067,-0.018,9.8579,0.9561,0.2322,-0.3246
4155,779,823,34.168,30.46,-0.0186,0.0599,9.6977,-0.1664,-0.3627,0.0951
4160,771,817,34.198,30.429,0.0211,-0.0203,9.7517,-0.4569,0.0199,-0.7083
4165,761,821,34.088,30.426,-0.0203,0.1056,9.7538,0.1668,-1.1573,-0.3674
4170,756,820,34.151,30.448,0.0646,0.0635,9.7657,-0.6089,-0.4726,-0.8694
4175,764,815,34.213,30.367,0.0362,-0.0433,9.8492,0.7482,0.4376,-0.1805
4180,753,820,34.209,30.372,-0.0581,0.026,9.7173,-0.6576,0.6775,-0.0924
4185,761,819,34.159,30.518,0.072,-0.0129,9.7694,0.4368,0.9514,0.2056
4190,749,817,34.067,30.46,0.0191,0.0657,9.8221,0.6694,0.2233,-0.0087
4195,746,812,34.132,30.336,-0.0069,0.0118,9.8028,0.9935,0.9002,-0.7644
4200,736,811,34.061,30.469,0.0684,0.0794,9.838,0.0716,-0.5569,0.4879
4205,756,807,34.262,30.464,-0.0688,0.0332,9.8101,-0.6645,0.4216,0.2794
4210,754,804,34.104,30.426,0.0415,-0.0309,9.7547,-0.0879,0.7764,0.0907
4215,746,804,34.118,30.43,0.0599,-0.061,9.9094,-0.4324,0.3164,0.1997
4220,743,797,34.161,30.429,-0.0705,-0.0265,9.8089,0.3185,0.8088,-0.9057
4225,757,798,34.217,30.325,0.0004,-0.0738,9.7493,-0.008,0.2567,0.2013
4230,760,792,34.18,30.445,-0.0179,0.0348,9.844,0.2916,-0.4506,-0.3856
4235,770,794,34.165,30.471,0.0438,0.028,9.798,0.6341,-0.2148,-0.3732
4240,770,792,34.171,30.384,0.0242,-0.0363,9.8344,0.169,-0.8259,-0.5958
4245,783,783,34.161,30.434,0.0246,0.0476,9.8216,-0.1926,0.0575,0.0003
4250,783,782,34.136,30.384,0.0213,-0.0286,9.7781,0.0069,0.2153,0.0918
4255,788,778,34.158,30.365,-0.0074,0.0902,9.8663,-0.0745,-0.0988,-0.1698
4260,808,779,34.071,30.394,0.0161,0.088,9.8753,0.034,-1.0462,-1.4057
4265,811,769,34.097,30.367,0.0388,-0.0108,9.8575,0.1128,-0.0496,-0.7013
4270,821,771,34.157,30.445,-0.0391,-0.0291,9.7998,0.0914,0.5458,-0.0518
4275,838,766,34.173,30.393,-0.0721,0.0238,9.9072,0.5503,-0.113,-0.2581
4280,847,759,34.253,30.433,-0.0376,0.0706,9.8055,0.1007,-0.934,0.6184
4285,849,754,34.108,30.367,0.0773,0.0424,9.8456,0.0858,-0.111,0.4239
4290,867,756,34.142,30.372,-0.0852,0.0272,9.8033,0.5814,-0.5363,-0.0673
4295,875,751,34.11,30.459,0.0204,-0.0726,9.7432,0.051,-0.424,0.1095
4300,890,745,34.131,30.432,0.0091,0.027,9.7635,-0.7585,0.6198,0.7486
4305,898,741,34.235,30.374,-0.0036,0.0871,9.8108,0.3166,0.1806,0.0741
4310,908,751,34.167,30.474,0.0151,0.0235,9.7403,0.2594,0.2104,-0.4596
4315,932,736,34.084,30.39,-0.0826,-0.0026,9.8118,0.2495,-0.3894,0.1668
4320,941,731,34.117,30.479,-0.0594,0.007,9.9402,0.2115,-0.2899,0.5226
4325,959,734,34.156,30.476,0.0622,-0.0624,9.802,0.307,-0.0858,1.3413
4330,965,736,34.054,30.489,0.0706,0.0836,9.8357,-0.2106,-0.6025,-0.5913
4335,975,729,34.165,30.483,0.0076,0.0872,9.8359,0.1673,0.0664,-0.3627
4340,995,720,34.136,30.419,0.0162,-0.064,9.7936,0.081,0.9417,0.5405
4345,1013,726,34.125,30.41,-0.007,0.0175,9.7836,0.0003,0.1193,-0.2073
4350,1014,719,34.105,30.46,-0.0124,-0.0598,9.824,-0.0969,0.1497,-0.3353
4355,1032,715,34.113,30.469,-0.004,0.0947,9.7559,0.6259,0.3653,-0.1619
4360,1051,716,34.12,30.467,-0.0027,-0.0494,9.807,-0.1434,-0.3111,-0.1431
4365,1058,712,34.18,30.519,0.009,-0.0546,9.8664,-0.1664,-0.7495,-0.8169
4370,1068,714,34.185,30.464,-0.007,0.0173,9.7813,0.288,0.2014,-0.268
4375,1077,714,34.173,30.447,0.0007,-0.0268,9.7927,-0.2337,-0.2344,-0.1968
4380,1087,712,34.18,30.505,-0.0027,0.003,9.7683,-0.0481,-0.9278,-0.6437
4385,1096,710,34.129,30.48,-0.0417,0.0317,9.8641,-0.1459,0.8342,-0.8524
4390,1116,712,34.085,30.488,-0.0249,-0.0217,9.8679,0.1679,0.2265,-0.6649
4395,1117,707,34.133,30.484,-0.0628,0.0073,9.7655,0.8645,-0.0816,-0.1487
4400,1129,711,34.147,30.505,0.0047,-0.0184,9.9111,0.3142,0.4659,0.8812
4405,1125,712,34.1,30.459,-0.0673,0.0145,9.7707,-0.0667,0.3806,-1.1298
4410,1151,715,34.221,30.482,0.0213,-0.0896,9.9051,0.2881,0.6597,-0.1922
4415,1151,716,34.138,30.43,0.0235,0.0205,9.8784,0.3767,-0.4845,0.2882
4420,1154,716,34.158,30.421,-0.0193,-0.0301,9.7518,0.22,0.2475,0.0653
4425,1165,715,34.175,30.398,0.041,-0.014,9.8041,-0.0626,0.4414,-0.7016
4430,1172,722,34.073,30.409,0.0363,0.0264,9.8465,-0.469,0.1334,0.3528
4435,1168,723,34.178,30.398,-0.035,0.1175,9.7704,-0.2615,-0.3732,0.2373
4440,1176,722,34.093,30.43,0.0626,-0.1331,9.8195,0.9008,-0.7126,-0.344
4445,1177,729,34.231,30.408,-0.0972,0.0307,9.8914,-0.5893,-0.3004,-0.1403
4450,1190,726,34.151,30.425,0.0335,-0.0369,9.8661,0.641,-0.179,0.51
4455,1180,733,34.161,30.425,0.0589,0.0186,9.7715,0.2523,0.3449,0.0806
4460,1183,733,34.147,30.335,-0.0468,0.0884,9.8295,-0.5821,0.355,0.044
4465,1185,740,34.168,30.407,-0.1267,-0.0385,9.8264,0.1427,0.493,-0.0225
4470,1182,746,34.158,30.42,-0.0069,-0.0783,9.8492,1.1149,0.1894,-0.026
4475,1189,751,34.17,30.445,-0.0116,0.0446,9.7776,-0.2323,0.1601,-0.2436
4480,1180,759,34.161,30.473,-0.0758,-0.1423,9.7729,0.2677,0.1189,-0.444
4485,1183,753,34.148,30.457,-0.0292,-0.052,9.8942,0.4721,0.1219,-0.0887
4490,1188,762,34.081,30.414,-0.0472,-0.129,9.8683,0.4373,-0.4042,-0.0456
4495,1184,767,34.224,30.476,0.0293,-0.0303,9.8602,0.344,0.0649,-0.8874
4500,1183,766,34.093,30.454,-0.0347,0.0313,9.7916,0.3589,0.9635,0.5038
4505,1184,777,34.184,30.428,-0.0719,-0.0256,9.8377,0.516,-0.7748,-0.6117
4510,1182,778,34.11,30.443,-0.0201,0.0449,9.8584,0.6884,0.1939,-0.902
4515,1172,785,34.117,30.434,-0.0283,0.0656,9.8198,-0.832,-0.4487,-0.3654
4520,1181,786,34.145,30.338,0.0088,-0.0144,9.7194,-0.001,0.4361,-0.1596
4525,1172,791,34.169,30.449,-0.0173,0.0532,9.8856,-1.1984,0.0237,-0.1719
4530,1164,794,34.184,30.429,-0.0012,-0.046,9.8701,-0.0009,0.8268,-0.4966
4535,1164,794,34.096,30.528,-0.0411,-0.0917,9.7246,0.0853,-0.5865,-0.1323
4540,1157,808,34.228,30.391,-0.0219,-0.0142,9.7753,0.5293,0.7246,0.8692
4545,1147,806,34.158,30.449,-0.0145,0.0267,9.7484,0.5923,-0.4987,-0.8271
4550,1157,819,34.227,30.448,0.0406,0.051,9.8673,0.4464,-0.4454,0.3039
4555,1143,822,34.096,30.446,-0.0094,0.0651,9.8276,-0.3887,-0.2181,-0.2157
4560,1139,828,34.179,30.534,-0.0235,0.0645,9.7323,0.4656,0.0278,-0.3558
4565,1136,830,34.2,30.532,-0.0221,0.1043,9.8586,-0.0092,-1.7165,-0.111
4570,1140,830,34.189,30.422,-0.0048,0.0899,9.8007,-0.2278,-0.1909,-0.2745
4575,1142,842,34.087,30.399,-0.0265,0.0523,9.8423,0.0138,-0.4089,0.0244
4580,1128,843,34.249,30.451,-0.0586,-0.1004,9.8109,-0.0291,-0.1295,0.2173
4585,1130,844,34.162,30.518,0.0589,-0.0019,9.7537,-0.8854,-0.0626,0.0489
4590,1118,839,34.099,30.498,0.101,0.0232,9.8252,0.1073,0.6317,-0.0358
4595,1114,849,34.139,30.398,0.1204,-0.0144,9.8942,-0.9048,-1.2466,0.2712
4600,1117,853,34.16,30.504,-0.0772,0.1207,9.7482,0.1066,0.0761,-0.4199
4605,1116,856,34.132,30.49,-0.0181,0.0495,9.9373,-0.5366,0.4616,-0.4863
4610,1115,851,34.159,30.353,0.0249,0.0047,9.9055,0.8072,0.0859,0.1475
4615,1104,857,34.061,30.49,-0.0194,-0.0431,9.7684,-0.2545,-0.1196,0.1709
4620,1108,859,34.089,30.417,0.0092,0.0355,9.8345,0.4785,0.4213,0.0739
4625,1105,863,34.154,30.455,-0.0973,0.0265,9.7604,0.5974,-0.0604,-0.2825
4630,1107,862,34.104,30.38,0.068,0.0323,9.7876,-0.3681,0.2687,-0.3318
4635,1099,858,34.317,30.341,0.037,-0.0328,9.7327,-0.9154,0.1229,1.1138
4640,1098,861,34.123,30.428,-0.0462,-0.0929,9.8084,-0.6057,-0.3608,0.0484
4645,1096,867,34.195,30.509,0.0678,-0.0072,9.8886,-0.1952,-0.1237,0.0583
4650,1094,865,34.232,30.471,0.0926,-0.013,9.8079,0.3373,0.0969,0.1896
4655,1088,862,34.181,30.43,0.0893,-0.0159,9.6754,0.1245,-0.0684,-1.0994
4660,1082,868,34.125,30.459,-0.0792,-0.0074,9.8304,-0.2733,0.4458,-0.2562
4665,1087,866,34.112,30.482,-0.0431,0.0504,9.7482,-0.2761,0.0615,-0.5754
4670,1087,863,34.132,30.443,0.0084,-0.0298,9.7785,0.3121,-0.0328,0.3322
4675,1083,865,34.109,30.399,-0.074,-0.0301,9.8571,0.1565,-0.1708,-0.6843
4680,1083,869,34.176,30.498,0.0482,0.0078,9.758,0.4854,1.1619,-0.9035
4685,1066,859,34.124,30.5,-0.0193,-0.0212,9.7519,-0.2815,-0.2512,-0.802
4690,1070,863,34.191,30.419,0.0448,-0.0242,9.8552,-0.5284,-0.0501,-0.2524
4695,1063,861,34.218,30.434,-0.013,0.0325,9.7694,-0.008,-0.1346,-1.0964
4700,1059,858,34.205,30.454,-0.0334,0.0417,9.8062,0.4145,-1.4756,-0.5063
4705,1062,863,34.131,30.419,0.0618,-0.0097,9.7296,0.3636,-0.0443,-0.3984
4710,1055,863,34.099,30.457,0.026,-0.1694,9.8679,-0.5775,-0.1354,-0.7912
4715,1054,856,34.159,30.372,-0.0791,-0.1402,9.8136,-0.0169,-0.0142,0.0371
4720,1047,859,34.111,30.424,-0.0096,-0.0133,9.7248,0.0087,0.7621,0.1822
4725,1044,858,34.142,30.415,-0.0146,-0.0447,9.8063,0.2805,-0.1329,-0.3032
4730,1035,856,34.131,30.461,-0.0297,0.0058,9.8352,0.3361,-0.0437,-0.0654
4735,1032,853,34.151,30.409,0.0847,0.0511,9.8167,0.743,0.1481,-0.8844
4740,1014,847,34.082,30.41,0.0344,0.0903,9.7609,-0.3034,-0.8174,0.243
4745,1014,850,34.076,30.398,-0.057,0.0017,9.8193,-0.2487,-0.352,0.1713
4750,1008,849,34.111,30.418,-0.0626,-0.0134,9.811,-0.0221,0.1864,0.0224
4755,1009,847,34.113,30.42,-0.028,-0.0155,9.8939,0.4303,-0.6537,-0.8004
4760,999,844,34.117,30.467,0.0217,0.0023,9.7933,-0.2741,-0.1284,0.1799
4765,988,847,34.073,30.477,-0.0771,0.0004,9.8061,-0.5575,0.0061,-0.1798
4770,978,847,34.102,30.503,-0.0746,-0.031,9.7216,-0.1591,-0.449,0.788
4775,968,843,34.162,30.436,-0.0275,0.0281,9.7708,-0.0578,0.1287,-0.3132
4780,962,843,34.13,30.476,-0.0169,0.0396,9.7977,0.0408,0.3783,-0.3073
4785,953,838,34.12,30.386,0.0072,0.0262,9.8483,-0.3929,1.0724,-0.3845
4790,947,842,34.108,30.488,-0.1037,-0.0705,9.8438,0.8966,0.109,0.1116
4795,948,836,34.166,30.489,-0.0967,-0.1039,9.8163,0.9045,-0.6259,0.1168
4800,926,834,34.149,30.482,0.0745,-0.0475,9.8408,0.496,-0.1511,0.1529
4805,916,834,34.103,30.529,-0.0261,0.0107,9.878,0.0112,-0.1194,1.0184
4810,908,840,34.135,30.399,0.0269,-0.0482,9.758,-0.7039,0.1522,-0.3379
4815,901,837,34.062,30.461,-0.0041,-0.0753,9.7701,-0.1094,0.2224,-0.1293
4820,879,830,34.156,30.627,0.0046,0.0353,9.9143,0.023,-0.2988,0.3737
4825,877,836,34.141,30.524,0.0795,-0.0233,9.7519,-0.1814,0.1765,0.3667
4830,855,834,34.103,30.481,0.0359,0.0374,9.9059,0.4143,0.6161,0.7328
4835,855,834,34.129,30.54,-0.064,-0.0279,9.7951,-0.0665,-0.0584,1.2263
4840,849,832,34.09,30.552,0.075,0.0434,9.7993,-1.3502,0.3374,-0.0162
4845,831,832,34.14,30.462,0.0107,0.0901,9.836,-0.4134,-0.2463,0.2374
4850,823,827,34.139,30.546,0.0312,-0.0008,9.8583,-1.1836,-0.1094,-0.3494
4855,809,831,34.199,30.474,-0.1065,-0.0816,9.8082,0.6534,-0.5347,-0.2241
4860,815,829,34.129,30.361,0.0381,0.0102,9.7894,-0.5944,0.4496,0.3518
4865,799,825,34.121,30.443,0.0298,-0.0184,9.8744,-0.1492,0.0887,0.0105
4870,794,830,34.066,30.407,0.0029,0.0721,9.7385,0.036,-0.4299,-0.7359
4875,788,820,34.127,30.403,0.0957,-0.0079,9.8309,-0.5409,-0.1734,-0.2052
4880,777,824,34.222,30.422,-0.0589,-0.0914,9.7988,-0.1709,0.6453,-0.6939
4885,773,822,34.17,30.413,0.0185,0.0055,9.7957,0.2158,-0.6076,-0.5115
4890,759,821,34.139,30.518,-0.0784,0.0015,9.884,0.2198,0.3707,0.6354
4895,772,819,34.184,30.413,-0.0421,0.0354,9.8282,0.354,-0.7199,0.389
4900,766,821,34.18,30.302,0.012,-0.0142,9.7257,1.1011,0.1822,-0.21
4905,756,817,34.173,30.413,-0.1156,-0.0181,9.7956,-0.3538,-0.2931,0.6309
4910,755,810,34.2,30.445,-0.011,-0.0016,9.7629,-0.198,-0.6117,-0.504
4915,737,812,34.197,30.385,-0.0603,-0.0062,9.8033,-0.128,0.5455,0.2744
4920,743,814,34.248,30.386,-0.0215,0.0212,9.8407,-0.3702,0.7739,0.4464
4925,739,806,34.102,30.548,-0.0308,-0.0103,9.849,-0.3097,-1.441,0.1551
4930,747,804,34.136,30.456,-0.0074,0.0321,9.7948,-0.1258,0.2437,-0.2195
4935,746,802,34.188,30.556,-0.0459,-0.0205,9.8007,0.2323,-0.0361,-0.0963
4940,742,803,34.23,30.472,-0.0728,-0.05,9.7414,-0.3421,0.3186,1.0924
4945,744,804,34.149,30.429,0.1009,0.0298,9.8043,-0.2732,-0.334,0.018
4950,751,800,34.171,30.432,0.1366,-0.0212,9.8118,0.5189,-0.7376,-0.1497
4955,761,797,34.082,30.439,-0.0121,0.0278,9.7925,-0.6179,-0.8953,0.1116
4960,759,791,34.127,30.418,0.0473,0.0838,9.8757,-0.1233,0.3572,0.4646
4965,783,793,34.142,30.518,-0.0337,0.0604,9.8967,-0.3934,0.3336,-0.9434
4970,780,790,34.121,30.442,0.0145,-0.0753,9.7088,0.0092,0.1332,0.6805
4975,798,788,34.11,30.427,-0.0488,-0.0536,9.8223,0.3564,0.0963,0.437
4980,794,783,34.145,30.506,-0.0435,-0.0083,9.7582,0.0321,-0.0546,0.1836
4985,793,775,34.131,30.497,-0.0192,0.0313,9.8053,-0.425,0.2117,0.0233
4990,805,770,34.078,30.485,0.0169,-0.0119,9.8879,-0.2295,-0.6153,0.4585
4995,817,767,34.121,30.432,0.0407,-0.0211,9.756,0.1702,0.0654,1.3634
5000,821,767,34.23,30.354,0.0428,0.029,9.7721,-0.4987,-0.2675,-0.3866
5005,836,758,34.123,30.508,-0.0901,-0.0412,9.7674,0.461,0.303,0.2119
5010,845,757,34.12,30.437,-0.0179,0.0217,9.8386,1.3197,0.2084,0.075
5015,855,758,34.122,30.459,0.0878,0.1091,9.9431,0.1029,-0.2885,0.8499
5020,868,756,34.214,30.519,0.0492,0.0515,9.8225,0.043,-0.1729,-0.5434
5025,886,748,34.012,30.431,-0.0397,0.0792,9.8375,-0.0626,0.8037,-0.8237
5030,898,748,34.146,30.455,-0.0451,0.0668,9.7916,1.414,-0.7091,0.126
5035,911,749,34.133,30.425,0.0432,-0.0514,9.8288,-1.0468,0.6603,-0.4186
5040,928,743,34.167,30.433,0.0214,-0.0626,9.8304,-0.1016,0.9744,-0.6267
5045,938,737,34.107,30.386,0.0182,-0.0172,9.9151,-0.4688,0.4197,-1.4863
5050,946,738,34.146,30.494,0.021,0.0036,9.7538,0.3734,-1.0852,0.1488
5055,965,726,34.203,30.376,0.0371,-0.0275,9.8664,0.2059,0.2745,0.1756
5060,975,727,34.116,30.473,-0.0403,0.0809,9.8555,0.2746,-0.1037,-0.4599
5065,983,723,34.117,30.485,-0.0057,0.1056,9.8717,-0.107,0.5723,0.1479
5070,998,724,34.227,30.416,-0.0253,-0.067,9.7465,0.2914,-0.1995,0.1797
5075,1011,720,34.109,30.421,-0.0177,-0.0069,9.8006,-0.0364,-0.056,-0.5561
5080,1034,721,34.204,30.441,0.0846,-0.1274,9.812,-0.1515,0.3069,-0.0516
5085,1035,720,34.202,30.451,0.0253,-0.0988,9.792,0.1199,0.7475,0.0607
5090,1054,717,34.146,30.474,-0.0309,-0.0351,9.8498,0.4018,-0.2007,-0.325
5095,1059,717,34.249,30.437,0.0124,0.0429,9.7165,0.2398,-0.2004,0.2364
5100,1076,706,34.143,30.416,-0.0101,0.0641,9.7453,0.9836,0.4319,-0.6871
5105,1086,707,34.151,30.422,0.0837,0.0325,9.8627,0.0892,-0.8822,0.1849
5110,1094,712,34.177,30.509,-0.0334,-0.004,9.834,-0.0779,-0.3572,-0.3446
5115,1104,710,34.091,30.493,0.0511,0.0377,9.7482,0.3463,0.2271,-0.3351
5120,1110,709,34.121,30.407,0.0099,-0.0338,9.7128,-0.4488,-0.2746,-0.0388
5125,1123,715,34.15,30.418,-0.0307,-0.0094,9.7989,-0.4815,0.7678,0.0619
5130,1127,715,34.169,30.393,0.0598,0.0831,9.8569,-1.1371,-0.0626,-0.3074
5135,1140,710,34.14,30.444,-0.0018,-0.0935,9.7759,0.4682,-0.5853,0.5564
5140,1143,718,34.131,30.499,-0.0008,-0.0157,9.8073,-0.7005,0.2711,-0.2403
5145,1148,711,34.131,30.378,-0.0065,-0.0288,9.8062,0.6978,0.2952,0.2614
5150,1171,719,34.077,30.384,0.0379,0.0308,9.8149,0.4099,1.4835,-0.2628
5155,1164,716,34.135,30.472,-0.0236,-0.0668,9.8032,0.2778,-0.0637,0.4415
5160,1168,714,34.154,30.368,0.0278,0.0206,9.8192,0.2427,0.1468,0.557
5165,1177,723,34.096,30.435,0.0439,-0.0208,9.7347,-0.1996,0.6323,-0.6458
5170,1173,725,34.214,30.358,-0.0604,0.0069,9.8986,-0.44,-0.3231,0.4607
5175,1182,727,34.166,30.534,-0.067,-0.0162,9.7784,0.2978,0.119,0.463
5180,1183,735,34.092,30.416,0.1338,-0.0833,9.8668,-0.4498,0.3655,0.7628
5185,1186,733,34.259,30.441,0.037,0.043,9.7882,-0.4072,-0.3724,-0.6771
5190,1202,741,34.19,30.413,0.069,-0.0107,9.7943,0.2569,0.1732,0.8196
5195,1193,743,34.153,30.509,-0.0986,-0.0616,9.8784,0.5317,0.7801,-0.1838
5200,1190,745,34.174,30.486,-0.0416,0.0142,9.8171,-1.0848,0.2292,1.3274
5205,1188,750,34.17,30.443,0.0194,-0.0141,9.8577,-0.1376,-0.1802,-0.3602
5210,1182,752,34.211,30.403,-0.0052,0.1293,9.8315,-0.3143,-0.0169,0.0936
5215,1182,758,34.22,30.513,0.0373,0.0477,9.8125,-0.0832,0.0172,0.3668
5220,1176,766,34.213,30.397,0.0549,0.0213,9.8667,-0.1771,-0.1182,0.6354
5225,1182,769,34.026,30.498,0.0252,0.0427,9.7241,-0.3951,-0.1274,-0.3124
5230,1188,773,34.145,30.47,-0.0314,-0.0716,9.8561,-0.4445,0.6639,-0.0675
5235,1176,779,34.128,30.423,0.1264,0.13,9.8461,0.1899,-0.3329,-0.3857
5240,1174,784,34.219,30.453,-0.015,0.1369,9.7544,0.8064,-0.0295,0.6289
5245,1170,788,34.13,30.389,-0.0551,-0.0108,9.7628,0.9527,0.5857,-0.3676
5250,1162,794,34.058,30.358,-0.0657,-0.0074,9.8796,0.3424,0.113,0.2324
5255,1169,798,34.072,30.497,-0.0133,0.0364,9.8313,-0.8302,-0.3043,0.1371
5260,1155,799,34.192,30.43,0.057,0.0276,9.7986,0.503,-0.0238,-0.2257
5265,1158,804,34.205,30.57,-0.0753,0.019,9.8298,0.8293,-0.007,0.5197
5270,1159,809,34.129,30.38,-0.0464,0.0369,9.7995,0.6696,0.1945,0.7463
5275,1153,812,34.187,30.419,0.0527,-0.0162,9.8049,-0.2256,1.0258,0.0021
5280,1148,820,34.169,30.297,0.0675,0.0823,9.7472,0.1844,0.4988,0.8413
5285,1140,821,34.153,30.319,-0.0057,-0.0024,9.8076,1.0504,-0.9668,0.1767
5290,1140,827,34.177,30.379,0.0433,0.0107,9.7373,-0.146,-0.1448,0.0842
5295,1140,831,34.11,30.4,0.073,0.0761,9.829,-0.7649,-0.4912,-0.7365
5300,1135,836,34.188,30.421,0.015,0.0397,9.79,-0.2673,-0.0921,-0.2006
5305,1126,835,34.108,30.426,0.0075,0.0829,9.7319,0.1653,-0.4267,-0.6424
5310,1136,839,34.174,30.428,-0.0572,-0.1133,9.8251,-0.2622,-0.3639,-0.531
5315,1124,841,34.138,30.415,-0.0258,0.0521,9.8116,-0.0387,-0.0283,-0.4719
5320,1129,839,34.067,30.449,-0.0843,-0.0338,9.8259,0.422,-0.3397,0.0881
5325,1124,854,34.257,30.452,-0.0216,-0.0954,9.871,-0.0893,0.0128,0.3539
5330,1111,857,34.234,30.434,-0.0432,-0.0541,9.8347,-0.1281,0.4481,-0.7895
5335,1115,856,34.132,30.397,-0.0816,-0.114,9.751,0.2845,-0.3602,1.1683
5340,1115,861,34.164,30.37,0.0311,-0.0714,9.8745,0.1738,0.3216,0.0914
5345,1112,861,34.174,30.43,0.0776,0.0852,9.7769,0.3783,-1.1121,0.362
5350,1101,861,34.128,30.43,0.0338,-0.0648,9.8391,0.0253,0.149,0.0545
5355,1105,864,34.132,30.5,-0.1064,-0.0598,9.8151,-0.0069,0.0655,0.5703
5360,1101,860,34.085,30.488,0.0348,0.0173,9.7484,0.103,-0.5765,-0.3126
5365,1097,860,34.157,30.462,0.13,0.042,9.785,-0.6169,0.6433,-0.1583
5370,1097,866,34.109,30.47,0.0291,-0.0031,9.8603,-0.6746,0.1488,0.1609
5375,1088,863,34.106,30.351,0.0578,-0.0574,9.8301,-0.7433,0.969,-0.2149
5380,1096,867,34.055,30.442,0.0099,0.0072,9.8323,-0.8742,0.0319,0.9324
5385,1093,862,34.158,30.463,0.0652,-0.0213,9.8163,-0.8953,-0.3583,0.3022
5390,1080,866,34.145,30.478,0.0261,-0.0128,9.7251,-0.4837,-0.6632,-0.0085
5395,1085,866,34.191,30.475,0.0647,-0.0672,9.749,0.7258,0.0205,0.2826
5400,1090,867,34.223,30.461,-0.0838,0.0158,9.738,-0.1569,-0.4114,-0.0091
5405,1073,867,34.171,30.46,0.0545,0.0022,9.7485,0.9511,0.0971,0.1548
5410,1077,864,34.137,30.421,-0.0881,0.0469,9.7982,0.6885,0.5485,-0.2558
5415,1076,861,34.158,30.451,0.034,0.1169,9.8501,-0.3346,0.5521,-1.0646
5420,1068,866,34.189,30.509,-0.0604,-0.1053,9.7639,-0.4887,0.8224,-0.8169
5425,1069,865,34.124,30.402,-0.0953,-0.0263,9.7638,0.0464,-0.057,0.2212
5430,1058,859,34.104,30.524,-0.0878,0.0549,9.807,0.0491,-0.6978,0.2068
5435,1056,865,34.146,30.448,0.0411,0.1067,9.8698,0.221,0.772,0.7399
5440,1049,857,34.184,30.465,-0.0232,-0.0271,9.7341,-0.7059,0.1403,-0.3852
5445,1047,864,34.157,30.466,0.0679,-0.004,9.8245,0.2978,0.4692,-0.1008
5450,1047,855,34.251,30.462,0.0688,-0.0147,9.808,-0.8069,0.2565,0.4384
5455,1041,852,34.062,30.479,-0.0045,0.0283,9.6921,0.2891,-0.3716,0.3702
5460,1035,855,34.157,30.466,0.0717,0.0126,9.8273,-0.2024,0.3023,0.8921
5465,1022,852,34.036,30.435,-0.0037,0.0204,9.8056,0.5528,0.6007,-0.5159
5470,1018,849,34.193,30.398,-0.0658,-0.0367,9.8115,-0.5065,-0.3308,0.457
5475,1018,851,34.064,30.448,-0.0518,0.0766,9.7952,0.013,0.4978,0.3241
5480,1010,851,34.202,30.447,-0.0863,-0.0678,9.8027,-0.4379,0.3059,0.3572
5485,1003,842,34.16,30.406,-0.0177,0.0335,9.8622,-0.2915,0.9602,-0.3463
5490,987,850,34.163,30.412,-0.0073,0.054,9.8094,0.0891,-0.7533,-0.2568
5495,983,847,34.163,30.455,-0.0803,-0.0778,9.8875,-0.1589,0.5708,0.0179
5500,972,848,34.202,30.436,0.1097,-0.0329,9.8959,0.2405,0.1707,0.4164
5505,960,842,34.128,30.484,0.0194,0.0352,9.7834,-0.329,0.11,0.4386
5510,956,838,34.047,30.42,-0.0713,-0.067,9.7878,0.5814,-0.1966,-0.3584
5515,943,840,34.199,30.384,-0.0289,-0.0612,9.8451,-0.8145,-0.4017,-0.4289
5520,940,838,34.21,30.479,-0.001,0.0007,9.8508,0.4233,0.1682,0.0703
5525,931,838,34.188,30.41,-0.0025,-0.0781,9.7732,-0.0009,-0.092,0.5395
5530,925,837,34.095,30.373,-0.0398,0.0011,9.823,0.1153,0.2394,0.4214
5535,911,835,34.074,30.546,-0.0709,-0.0163,9.7349,0.4244,0.2654,-0.2502
5540,895,837,34.221,30.543,-0.0174,-0.0326,9.7591,-0.2188,0.2502,-0.5493
5545,887,836,34.153,30.434,0.078,-0.0723,9.7105,-0.1273,-0.8155,0.0694
5550,883,834,34.148,30.555,-0.023,-0.0066,9.765,-0.7521,-0.2347,-0.3979
5555,865,836,34.185,30.409,-0.0141,0.0836,9.864,-0.3906,0.3338,0.8042
5560,861,830,34.203,30.462,0.0254,-0.0451,9.7857,-0.2738,-0.212,-0.5961
5565,845,836,34.164,30.393,-0.0357,-0.058,9.8414,-0.0508,-0.0926,1.0039
5570,843,833,34.06,30.431,-0.0646,0.0152,9.8326,1.05,-0.1002,0.4708
5575,830,827,34.141,30.496,-0.0012,-0.0267,9.7336,0.4077,0.1643,-1.0382
5580,818,828,34.14,30.525,-0.0343,0.0049,9.9057,-0.3624,-0.7878,-0.2291
5585,820,831,34.127,30.439,0.044,0.0963,9.7565,0.1506,-0.3347,-0.599
5590,807,827,34.204,30.45,0.0069,0.0162,9.8411,-0.4767,-1.5739,-0.4021
5595,796,828,34.186,30.508,0.0548,-0.0283,9.7669,-0.552,0.6096,-0.2358
5600,798,822,34.127,30.408,0.0158,0.0438,9.8126,-0.1451,0.8368,-0.1025
5605,792,828,34.21,30.393,0.0676,0.0582,9.7474,0.3297,-0.3251,-0.9081
5610,776,823,34.08,30.399,0.0389,0.0167,9.8633,0.4367,-0.7338,0.3847
5615,773,823,34.147,30.416,0.0434,0.0004,9.7966,0.2452,0.1971,-0.5313
5620,765,827,34.103,30.453,0.0418,-0.0794,9.8444,0.4198,0.429,1.0135
5625,764,820,34.233,30.376,-0.0196,-0.0297,9.7927,-0.0847,-0.2726,1.0151
5630,754,814,34.112,30.483,-0.004,-0.0189,9.8378,0.6505,-0.0009,-0.2723
5635,752,818,34.202,30.405,-0.0321,0.0867,9.8096,-0.1351,-0.4944,-0.4988
5640,753,819,34.053,30.44,0.0341,-0.0427,9.9526,-0.0938,-0.0345,-0.3075
5645,756,816,34.084,30.391,0.0697,-0.0654,9.8392,-0.2053,0.68,-0.5143
5650,748,813,34.052,30.462,0.0515,-0.1131,9.6618,-0.2345,0.8743,-0.7131
5655,745,809,34.098,30.548,0.0504,-0.0246,9.8279,-0.1339,0.2692,0.0822
5660,750,806,34.148,30.56,-0.0433,0.0452,9.8949,0.0522,-0.168,0.5262
5665,750,804,34.081,30.427,0.0012,0.0538,9.8555,0.9758,-1.9022,0.2547
5670,758,801,34.111,30.469,-0.0035,0.0119,9.7716,-0.2504,-0.385,-0.4507
5675,757,796,34.157,30.419,0.0396,-0.0335,9.7535,-0.1145,-0.2672,-0.4131
5680,768,789,34.095,30.485,0.0878,-0.0054,9.7874,-1.5087,0.3042,-0.5742
5685,760,791,34.113,30.474,0.0169,-0.0119,9.805,-0.0904,0.2267,-0.0902
5690,765,789,34.221,30.454,-0.0001,-0.0253,9.8225,-0.7859,-0.1695,0.9901
5695,773,787,34.15,30.393,0.0119,0.0249,9.7901,-0.4876,-0.345,0.1658
5700,783,787,34.101,30.519,-0.0581,0.0798,9.8646,0.2338,-0.0032,0.2252
5705,784,783,34.171,30.423,-0.0122,-0.0166,9.8238,0.4499,0.4579,0.2544
5710,803,777,34.173,30.51,-0.0123,0.0768,9.844,0.8448,-0.0183,0.3399
5715,802,775,34.202,30.465,-0.001,0.0234,9.8462,-0.398,0.5499,-0.1115
5720,805,771,34.13,30.521,0.0818,0.028,9.734,-0.1644,0.8846,0.1098
5725,818,770,34.229,30.497,-0.1089,-0.0001,9.8722,0.186,-0.1817,-1.0925
5730,833,766,34.138,30.489,0.0497,0.0605,9.7966,-0.1904,-0.0194,0.0755
5735,840,754,34.033,30.373,0.0239,-0.0659,9.7967,-0.0575,0.5004,-0.2486
5740,851,756,34.213,30.506,0.1027,0.0187,9.8113,0.1777,-0.972,0.0232
5745,872,750,34.142,30.42,-0.0237,0.0651,9.8402,-0.7615,-0.291,-0.021
5750,886,753,34.133,30.421,-0.1313,-0.036,9.8162,-0.352,0.5423,-0.2161
5755,887,746,34.173,30.455,-0.0307,0.0164,9.7629,0.1731,-0.1878,-0.3065
5760,909,736,34.116,30.412,0.0016,0.0377,9.8466,0.3993,-0.4049,-0.1193
5765,912,740,34.194,30.291,-0.0578,-0.0445,9.7488,0.4493,0.8687,-0.3451
5770,930,733,34.036,30.525,0.0703,0.0803,9.7524,0.0841,1.0392,0.634
5775,951,735,34.155,30.372,-0.0163,0.013,9.7001,0.3871,0.0353,-0.0699
5780,955,726,34.12,30.407,-0.0422,0.0342,9.8477,0.085,-0.1374,-0.0656
5785,968,727,34.153,30.398,-0.0201,0.0359,9.8527,-0.2576,-1.2689,-0.074
5790,984,727,34.189,30.499,-0.0141,-0.0078,9.8296,-0.5149,0.6122,0.1389
5795,982,721,34.1,30.487,-0.0116,0.0927,9.7779,-0.0967,0.5005,0.9267
5800,1019,723,34.192,30.4,-0.0196,-0.0229,9.7587,0.2101,0.4376,0.8342
5805,1026,716,34.168,30.54,-0.0021,-0.0996,9.7941,-0.3183,0.4137,0.1972
5810,1038,721,34.161,30.479,-0.0529,-0.0207,9.7384,-0.0983,-0.7267,-0.6478
5815,1050,716,34.067,30.449,0.0389,0.0559,9.761,-0.54,-0.5844,0.5325
5820,1056,712,34.248,30.553,0.0387,0.0424,9.7383,1.029,-0.0952,-0.11
5825,1069,716,34.213,30.424,-0.0542,0.0388,9.8546,0.2128,1.0986,0.5928
5830,1078,710,34.159,30.371,-0.0502,0.0334,9.7513,-0.3366,-1.0606,0.7683
5835,1090,715,34.187,30.4,0.0588,0.1002,9.7703,-0.4186,-0.1181,0.4728
5840,1102,707,34.217,30.4,0.0462,-0.0083,9.7928,-0.8152,-0.1218,0.4271
5845,1118,710,34.19,30.496,0.0239,0.059,9.7055,-0.1088,-0.4329,0.7631
5850,1128,705,34.131,30.451,-0.0808,-0.1028,9.7725,0.5161,0.4128,-0.1651
5855,1126,709,34.074,30.467,-0.0129,0.0092,9.8051,-0.723,1.0791,0.227
5860,1136,711,34.16,30.4,0.0045,-0.0301,9.7805,-0.1647,0.4404,-0.4106
5865,1138,699,34.081,30.519,-0.0195,-0.0174,9.8248,0.1223,-0.8406,0.3166
5870,1153,710,34.132,30.414,0.0152,-0.124,9.8414,0.0977,-0.4764,-0.6077
5875,1151,717,34.148,30.432,-0.0317,-0.0498,9.7698,0.4762,-0.8961,0.2438
5880,1169,713,34.143,30.447,0.0448,0.0368,9.7745,-0.6187,-0.207,-0.4288
5885,1169,723,34.194,30.515,-0.0521,0.0541,9.7823,0.1479,0.5921,0.5827
5890,1178,721,34.161,30.454,0.0433,-0.0325,9.8784,0.0666,-0.1298,-0.3001
5895,1180,722,34.139,30.402,0.0293,-0.1437,9.7789,0.2062,-0.351,-1.1672
5900,1172,727,34.071,30.524,-0.0115,-0.0232,9.9269,-0.4521,-0.6646,0.0991
5905,1189,736,34.158,30.429,-0.0091,0.0272,9.7239,1.0047,0.2239,0.6049
5910,1186,736,34.162,30.431,-0.0106,0.085,9.8512,0.2472,-0.1782,0.2355
5915,1181,736,34.159,30.429,0.0976,-0.0459,9.8716,0.7736,0.8621,0.1418
5920,1187,740,34.102,30.335,0.0072,0.0495,9.8321,-0.0739,1.1629,-0.5742
5925,1195,744,34.079,30.548,0.0271,-0.021,9.753,-0.8191,-0.6748,-1.0836
5930,1181,752,34.23,30.469,-0.0294,-0.0612,9.8111,-0.2835,-0.8502,-1.2113
5935,1175,752,34.215,30.391,-0.0456,-0.0279,9.854,-0.2327,0.5991,1.179
5940,1171,757,34.068,30.471,-0.1132,-0.0144,9.7597,0.4287,0.1413,0.2864
5945,1186,758,34.097,30.501,-0.036,0.0231,9.8236,-1.0482,0.4709,0.0302
5950,1175,763,34.115,30.512,0.0327,0.0371,9.8985,0.633,-0.1204,0.7365
5955,1181,773,34.193,30.466,-0.1015,-0.0551,9.7944,-0.1953,-0.2518,-0.4831
5960,1173,777,34.213,30.371,-0.016,-0.0401,9.8531,1.3917,-0.1395,0.5646
5965,1168,784,34.195,30.456,-0.0262,-0.0979,9.7833,-0.1607,0.419,-0.3286
5970,1169,784,34.166,30.385,0.0165,-0.0028,9.761,-0.2304,-0.5827,-0.7134
5975,1173,793,34.1,30.419,0.0371,-0.0613,9.8768,-0.6243,-0.021,0.0601
5980,1158,796,34.106,30.528,0.0004,0.0766,9.7824,-0.5736,0.0126,0.4635
5985,1154,804,34.092,30.493,0.0612,0.0117,9.8063,0.5971,0.5603,0.0105
5990,1161,806,34.129,30.512,-0.1078,0.0359,9.84,0.3195,0.5652,0.0604
5995,1147,809,34.212,30.485,0.0096,0.0829,9.8782,-0.423,-0.2725,0.1613
6000,1151,820,34.271,30.488,0.0162,0.0751,9.7481,0.3815,0.6668,0.7196
6005,1146,822,34.161,30.398,-0.0261,-0.1019,9.8081,-0.0798,0.2315,0.1229
6010,1153,823,34.18,30.449,0.1389,0.0882,9.8608,0.2464,-0.958,0.7386
6015,1143,818,34.249,30.43,0.0365,0.0355,9.818,0.4602,-0.4288,-0.2034
6020,1137,831,34.173,30.382,-0.052,0.0175,9.8416,-0.0885,0.4303,0.6401
6025,1129,837,34.265,30.462,-0.0634,0.0014,9.813,-0.3471,-0.5433,-0.1319
6030,1126,836,34.289,30.463,0.0755,-0.0081,9.7588,0.7493,0.3522,-0.3539
6035,1131,837,34.176,30.485,-0.0957,-0.0379,9.8647,-0.1241,-0.3656,0.2457
6040,1126,849,34.136,30.459,-0.0174,0.0593,9.826,-0.3286,-0.0466,-0.137
6045,1124,846,34.248,30.394,0.0211,-0.0465,9.7479,-0.3092,-0.9284,0.8611
6050,1121,851,34.115,30.435,-0.0583,-0.0014,9.8149,-1.0232,-0.9053,0.1452
6055,1112,858,34.21,30.457,0.0678,0.014,9.8173,0.5211,1.1147,0.8525
6060,1114,856,34.156,30.371,-0.057,0.0193,9.8277,-0.5593,0.6779,-0.511
6065,1119,857,34.127,30.407,-0.1113,-0.0471,9.833,0.5576,0.145,-0.4358
6070,1104,857,34.168,30.479,-0.0218,0.058,9.8049,-0.1366,0.7364,-0.0511
6075,1109,862,34.179,30.498,-0.0129,0.0296,9.8229,0.4436,1.1391,-0.1302
6080,1099,859,34.219,30.474,0.0075,0.0451,9.8927,-0.0829,-0.965,0.1586
6085,1092,855,34.24,30.461,0.0721,-0.0097,9.8159,0.0411,-0.8,-0.4381
6090,1096,860,34.087,30.46,0.0097,-0.0042,9.7691,0.098,0.0802,-1.0169
6095,1090,866,34.116,30.413,-0.0281,-0.0143,9.8621,-0.5022,0.4186,0.1222
6100,1089,865,34.106,30.472,-0.0238,0.0053,9.793,-0.2378,-0.7692,0.0738
6105,1083,867,34.14,30.511,0.0425,0.0759,9.8799,-0.341,1.2508,0.0461
6110,1090,867,34.114,30.458,-0.0168,-0.0356,9.8348,-0.0997,-0.0264,0.2666
6115,1079,869,34.201,30.404,-0.009,0.0141,9.8889,-0.646,-0.6071,0.5901
6120,1076,864,34.154,30.342,0.0612,-0.1052,9.7936,0.6518,-0.2111,0.7452
6125,1077,864,34.16,30.481,0.0506,0.0086,9.8203,-0.1473,-0.5379,-0.0686
6130,1087,866,34.135,30.415,-0.0276,0.0299,9.7493,0.4835,0.4976,-0.443
6135,1069,863,34.24,30.392,-0.0274,0.1157,9.9021,0.0692,-0.2435,-0.2199
6140,1070,866,34.108,30.557,0.0189,0.0071,9.8246,-1.2051,0.0455,1.0106
6145,1070,865,34.165,30.453,-0.0397,-0.0667,9.8356,-0.2738,-0.8135,-0.1598
6150,1053,866,34.089,30.437,0.0358,-0.086,9.6876,-0.8246,-0.4482,-0.39
6155,1064,861,34.125,30.502,0.064,-0.0709,9.7995,0.4414,0.6683,0.7707
6160,1051,859,34.1,30.314,-0.013,0.0075,9.9308,0.7661,0.2789,-1.124
6165,1052,856,34.115,30.34,-0.0294,0.0795,9.8351,-0.4195,0.7933,0.1696
6170,1041,858,34.2,30.414,0.0288,-0.0983,9.7766,0.3297,-0.0143,0.8088
6175,1038,854,34.209,30.449,0.1224,-0.0121,9.8743,0.2644,0.788,0.4019
6180,1041,856,34.068,30.397,-0.0081,0.0071,9.8083,-0.1073,-0.1529,-0.3531
6185,1032,852,34.105,30.508,-0.0259,-0.0756,9.802,-0.2345,-0.4992,1.1841
6190,1026,857,34.202,30.466,0.003,0.0872,9.8052,-0.4625,-0.2029,-0.0376
6195,1010,859,34.151,30.469,0.0261,0.0646,9.8594,0.0162,0.2441,0.4044
6200,1014,853,34.248,30.429,0.0717,-0.0687,9.806,-0.3137,0.1473,0.62
6205,1013,845,34.089,30.433,0.0307,-0.0913,9.8169,0.1342,-0.7625,0.528
6210,996,846,34.194,30.403,-0.0394,0.064,9.8213,0.5495,-0.4932,-0.2711
6215,990,854,34.096,30.406,-0.0426,0.0022,9.8708,0.0512,0.116,0.4332
6220,992,850,34.169,30.442,0.0039,0.0354,9.771,0.4504,0.7718,0.239
6225,971,841,34.14,30.489,0.0312,0.0379,9.9044,0.6514,0.4025,0.255
6230,967,845,34.087,30.506,-0.05,-0.0312,9.8622,0.6252,0.537,0.3887
6235,954,845,34.157,30.368,-0.0876,-0.0118,9.8489,-0.3786,-0.1933,0.2214
6240,947,840,34.177,30.452,-0.0864,-0.038,9.837,-0.2199,-0.0792,-0.6661
6245,938,841,34.258,30.536,0.0599,0.0039,9.7663,0.7577,0.1621,0.0601
6250,939,840,34.168,30.504,0.0119,-0.0408,9.8146,-0.8583,0.8453,-0.1922
6255,929,835,34.143,30.513,-0.0141,0.0591,9.8194,-0.3701,-0.5266,0.2941
6260,915,843,34.154,30.429,0.0304,-0.0827,9.8675,-0.0741,-1.1176,0.7188
6265,904,836,34.115,30.605,0.0717,0.0169,9.8453,0.0017,0.2505,0.1968
6270,895,840,34.209,30.42,0.0162,-0.0248,9.8262,-0.1584,-0.3062,0.1722
6275,888,834,34.098,30.53,-0.0086,-0.0489,9.8059,0.3015,-0.5713,-0.755
6280,869,837,34.137,30.434,-0.0231,-0.0235,9.7668,0.0239,-0.5624,-0.5312
6285,863,829,34.187,30.487,-0.0091,0.003,9.8288,0.0998,-0.273,-0.2676
6290,851,837,34.211,30.52,0.0192,-0.063,9.827,-0.2913,-0.6013,0.0227
6295,847,828,34.17,30.523,-0.0631,0.0096,9.7824,-0.3131,-0.6369,0.1084
6300,826,835,34.142,30.415,-0.0016,-0.0594,9.778,0.3168,0.0987,0.0979
6305,822,833,34.113,30.428,-0.0074,-0.047,9.824,-0.1749,0.3543,-0.9022
6310,816,825,34.117,30.482,0.1041,0.0153,9.8573,0.0475,0.5098,0.3799
6315,810,827,34.269,30.431,-0.0272,0.0147,9.8006,-0.3943,-0.452,-0.0586
6320,796,824,34.092,30.38,-0.016,0.1188,9.7625,-0.2868,-0.4353,0.3529
6325,797,827,34.218,30.483,0.0426,0.044,9.8159,-0.3338,-0.2775,-0.122
6330,788,830,34.165,30.374,-0.0234,-0.0527,9.7816,0.1627,0.3769,-0.1664
6335,775,825,34.154,30.524,0.0919,-0.0253,9.7963,0.2297,-0.301,0.1769
6340,767,821,34.089,30.479,0.0083,-0.0501,9.8041,0.4623,-0.537,-0.1236
6345,770,820,34.165,30.513,0.0033,0.0454,9.8797,-0.4279,-0.4595,-0.2331
6350,769,822,34.124,30.421,0.0768,0.0022,9.847,-0.0537,-0.0763,0.3563
6355,757,821,34.161,30.494,-0.0478,0.0759,9.7623,0.6621,-0.9378,-0.2398
6360,758,817,34.083,30.466,0.018,0.0381,9.827,-0.1323,-0.76,-0.4864
6365,751,811,34.21,30.376,0.0267,-0.0092,9.8081,0.8516,0.5838,-0.4999
6370,744,814,34.242,30.408,0.0345,0.042,9.8215,-0.0039,-0.0435,0.3099
6375,743,810,34.259,30.499,0.0181,-0.0012,9.844,0.8184,0.5812,-0.0371
6380,747,807,34.132,30.42,0.0064,-0.0739,9.7528,-0.4547,0.0097,1.0363
6385,742,806,34.138,30.42,-0.004,-0.068,9.7724,0.3238,0.4381,0.3251
6390,745,808,34.113,30.435,0.011,0.0569,9.7422,0.867,-0.0794,-0.1936
6395,749,802,34.197,30.556,-0.0673,0.0004,9.7587,-0.4932,0.2585,0.3273
6400,761,802,34.157,30.4,0.0012,0.0369,9.8368,0.6684,-0.3563,-1.2225
6405,753,793,34.133,30.46,0.0266,0.0716,9.8409,0.1705,-0.3858,-0.1729
6410,765,795,34.198,30.522,0.0429,-0.075,9.779,-0.624,-0.1132,-0.7848
6415,772,793,34.207,30.472,0.0731,0.0375,9.8329,-0.4755,-0.727,-0.8981
6420,769,787,34.108,30.416,0.0061,-0.0651,9.6975,0.8788,0.2773,0.3632
6425,771,783,34.171,30.416,0.1044,-0.0189,9.8439,0.095,-0.2404,-0.7571
6430,782,788,34.244,30.432,-0.0271,0.033,9.7295,-0.5366,-0.4645,0.0382
6435,793,782,34.145,30.467,-0.0188,0.0687,9.7658,-0.0536,0.5522,-0.3872
6440,797,774,34.221,30.426,-0.0244,0.0994,9.9456,-0.2032,0.4946,0.3353
6445,806,771,34.284,30.494,0.0443,-0.0306,9.8112,0.3202,0.1379,-0.1888
6450,817,767,34.117,30.518,-0.0119,-0.0382,9.8264,0.4788,0.274,1.1492
6455,826,766,34.078,30.342,0.0557,0.0694,9.7682,-0.4379,0.1579,-0.219
6460,837,762,34.144,30.457,-0.0281,0.0082,9.8532,-0.0427,0.0659,-0.8013
6465,847,756,34.149,30.449,-0.0465,-0.0524,9.7781,0.6339,-0.0344,-0.1325
6470,860,753,34.172,30.479,0.0512,-0.0327,9.8339,-0.5196,0.6654,-0.4275
6475,866,750,34.224,30.474,0.0155,-0.058,9.7705,0.1378,-0.046,0.3177
6480,891,752,34.095,30.461,-0.0611,-0.0005,9.7544,-0.0309,0.126,0.0976
6485,901,741,34.1,30.51,0.1074,-0.0346,9.8604,-0.8336,0.1226,-0.437
6490,914,743,34.18,30.521,-0.0256,-0.0047,9.8756,0.2124,0.0001,0.1185
6495,925,737,34.144,30.432,0.0876,-0.0042,9.8159,0.0886,0.907,-0.1791
6500,939,737,34.097,30.369,0.0531,0.0034,9.8387,0.3552,1.4637,0.2838
6505,955,731,34.056,30.456,0.0348,0.0297,9.8197,-0.7146,0.1521,0.1624
6510,969,730,34.244,30.435,0.1039,-0.0719,9.7811,0.5054,-0.4452,1.0407
6515,985,724,34.126,30.548,-0.0479,0.0307,9.8521,-0.2551,0.327,-0.1679
6520,987,722,34.21,30.453,-0.0502,-0.0094,9.9017,0.6573,-0.5387,-0.3496
6525,1007,725,34.199,30.431,0.0571,-0.1268,9.8325,-0.3201,0.0404,0.4953
6530,1020,716,34.109,30.438,-0.1109,-0.046,9.8226,-0.5975,-0.5415,0.2079
6535,1034,722,34.247,30.462,-0.0087,0.0335,9.6966,-0.6532,0.1696,0.16
6540,1045,717,34.21,30.503,0.0432,0.0446,9.8085,0.0733,0.4431,0.7598
6545,1054,710,34.157,30.492,-0.0752,-0.0305,9.7808,-0.5841,-0.3987,0.3568
6550,1059,716,34.157,30.491,-0.062,0.0825,9.7778,-0.797,0.8893,0.2521
6555,1074,710,34.177,30.436,0.0457,-0.0015,9.7183,0.0503,0.8459,0.8755
6560,1084,712,34.185,30.499,-0.0523,0.0019,9.7676,0.5673,-0.5915,-0.3179
6565,1103,713,34.188,30.45,-0.0119,-0.0247,9.8212,-0.2419,-0.0945,0.0509
6570,1110,711,34.141,30.502,0.0666,0.0261,9.8277,-0.8644,-0.4797,0.189
6575,1117,715,34.12,30.408,-0.0302,0.1056,9.7515,0.7464,0.5028,-0.0693
6580,1122,712,34.19,30.396,0.0302,-0.0804,9.7998,0.4485,0.164,0.1696
6585,1138,710,34.132,30.415,0.0464,-0.038,9.8091,-0.655,0.22,-0.4944
6590,1142,715,34.238,30.414,0.0807,-0.0503,9.9159,-0.1041,0.63,0.129
6595,1149,715,34.122,30.414,0.0868,0.0334,9.863,0.192,-0.0084,0.3834
6600,1146,716,34.253,30.481,0.0055,-0.0059,9.8348,-0.5376,1.0705,-0.0912
6605,1145,715,34.092,30.477,0.0295,0.0499,9.8001,1.2409,-0.8562,-0.7113
6610,1170,721,34.063,30.433,0.0028,0.0714,9.864,0.3682,0.4268,0.7252
6615,1179,717,34.19,30.347,-0.0093,-0.0649,9.9003,0.7129,0.6323,-0.0592
6620,1174,723,34.18,30.395,0.0498,0.0325,9.8293,0.2787,0.4037,-0.0973
6625,1182,726,34.052,30.401,0.0004,-0.0654,9.8338,-0.7956,0.4878,-0.518
6630,1180,728,34.192,30.456,0.0039,0.0243,9.832,0.0758,-0.6149,-0.58
6635,1185,733,34.177,30.417,-0.0787,-0.0563,9.8562,0.2743,-0.5583,-0.9747
6640,1188,738,34.128,30.465,0.0046,0.0076,9.8292,-0.5195,0.5022,-0.468
6645,1177,743,34.139,30.419,0.0521,0.0245,9.8016,-0.6164,-0.5697,-0.1551
6650,1193,738,34.147,30.465,-0.0936,-0.028,9.8304,-0.4552,0.1075,0.1857
6655,1185,750,34.123,30.493,0.0103,0.0433,9.7697,0.3034,-0.006,-0.3188
6660,1182,751,34.214,30.478,-0.0062,0.0097,9.7175,-0.0409,0.6939,-0.3271
6665,1185,758,34.2,30.47,0.0363,0.0374,9.8654,0.4113,-0.3099,0.0185
6670,1183,766,34.309,30.491,0.0459,0.039,9.8241,-0.0763,0.5596,1.096
6675,1184,766,34.139,30.44,-0.0313,-0.0042,9.9121,-0.0157,0.5769,0.8989
6680,1185,766,34.158,30.454,0.0017,-0.0192,9.8244,-0.2203,0.0425,-0.0418
6685,1173,773,34.145,30.486,-0.0451,0.0217,9.8141,-0.4741,-0.0428,0.4692
6690,1178,780,34.208,30.44,0.0226,0.1034,9.7708,-0.2482,1.0945,0.2897
6695,1179,786,34.187,30.41,-0.0639,-0.0411,9.8621,0.7083,-0.2404,0.2505
6700,1175,791,34.11,30.378,-0.0413,-0.0512,9.8592,0.9765,-0.1064,0.0468
6705,1166,796,34.138,30.438,0.0368,0.0391,9.7616,0.5112,0.1522,-0.4644
6710,1165,802,34.151,30.477,-0.0445,-0.0342,9.8973,-0.488,-0.5774,0.3214
6715,1162,800,34.118,30.475,-0.0585,-0.0497,9.7837,0.3986,-0.7625,-0.1136
6720,1148,806,34.164,30.442,0.0953,0.0777,9.817,0.4345,0.0071,-0.3378
6725,1159,808,34.186,30.443,-0.001,-0.0263,9.8601,0.1914,-0.0705,-0.3474
6730,1149,816,34.191,30.491,-0.0281,0.055,9.7339,-0.1644,-1.1545,0.1316
6735,1142,821,34.276,30.49,0.0059,-0.029,9.8164,0.2797,0.0774,-0.2469
6740,1128,831,34.157,30.402,0.0932,-0.0049,9.8612,0.1527,-0.5554,1.3492
6745,1135,826,34.164,30.549,-0.0037,0.0105,9.8316,-0.0793,0.2395,-0.3406
6750,1134,833,34.143,30.447,-0.0457,-0.0659,9.861,0.4957,-0.5235,1.0141
6755,1126,833,34.201,30.429,0.0628,-0.0008,9.7283,-0.0367,0.1305,0.9147
6760,1126,843,34.204,30.411,-0.0282,-0.022,9.8427,0.5154,-0.0177,0.0201
6765,1129,842,34.254,30.457,-0.0044,0.0279,9.8597,0.1124,-0.0791,0.774
6770,1123,844,34.106,30.533,0.0589,-0.0322,9.8403,-0.2428,0.2838,0.6858
6775,1120,850,34.169,30.574,-0.0977,-0.0351,9.8228,-0.3636,0.5546,0.2104
6780,1120,851,34.161,30.443,0.0007,0.0514,9.9321,0.0397,0.8707,-0.1767
6785,1111,845,34.153,30.475,0.1031,0.0531,9.8385,0.8678,-0.4488,-0.6252
6790,1109,854,34.203,30.434,-0.1315,0.026,9.8374,0.3158,0.1564,-0.2865
6795,1108,862,34.18,30.483,0.002,-0.114,9.7987,-0.408,0.4301,-0.0106
6800,1108,859,34.064,30.47,0.0127,0.029,9.7313,0.3225,-1.0355,0.1215
6805,1106,867,34.162,30.458,-0.073,0.0962,9.7633,-0.2756,-0.2938,0.2467
6810,1099,858,34.189,30.517,0.0445,0.0057,9.7303,0.5374,-0.6753,-0.5984
6815,1102,866,34.181,30.424,0.0793,-0.0211,9.783,0.5816,0.5082,0.5941
6820,1096,864,34.128,30.472,-0.0299,-0.0422,9.8616,0.3198,0.5305,0.1483
6825,1091,865,34.124,30.476,-0.0401,-0.064,9.8262,-0.4594,0.0132,-0.2018
6830,1095,859,34.127,30.536,-0.1044,0.0822,9.7977,0.0336,0.2386,-1.0368
6835,1099,864,34.198,30.502,0.041,-0.0478,9.85,0.2608,-0.9773,-0.0025
6840,1074,868,34.169,30.418,-0.0185,0.019,9.7572,-0.4394,-0.454,-0.0809
6845,1088,866,34.164,30.502,0.0161,-0.0312,9.8214,0.5302,0.0706,-0.4365
6850,1086,863,34.199,30.401,-0.0814,-0.0767,9.7801,-0.0501,-0.0139,-0.0424
6855,1079,864,34.148,30.4,-0.0004,-0.0306,9.7297,0.7199,-0.5049,0.0957
6860,1078,865,34.072,30.493,0.0184,-0.0788,9.824,-0.0987,-0.19,-0.5126
6865,1076,866,34.17,30.514,-0.082,0.0155,9.8585,-0.1419,-0.1226,-0.0727
6870,1066,866,34.181,30.488,-0.0103,-0.0157,9.7259,-1.3271,0.7475,-0.0389
6875,1074,862,34.182,30.477,-0.0759,-0.0472,9.8476,-0.4903,-0.3575,-0.6665
6880,1065,859,34.2,30.363,0.0879,0.0239,9.7857,-0.5851,-0.2411,-0.3407
6885,1054,868,34.213,30.504,0.0386,0.0228,9.793,-0.6975,-0.7187,0.1272
6890,1043,856,34.149,30.51,0.0414,0.0631,9.749,0.8676,-0.2197,0.157
6895,1053,853,34.186,30.482,0.0351,-0.0287,9.7602,0.3068,0.4913,-0.1381
6900,1050,857,34.1,30.546,0.0146,-0.0048,9.7782,-0.615,-1.0336,0.1495
6905,1043,853,34.214,30.425,-0.0072,-0.0568,9.7763,0.6017,-0.1127,-0.2848
6910,1041,856,34.204,30.453,0.0254,0.1025,9.8225,-0.7773,-0.2956,-0.2911
6915,1032,857,34.146,30.442,0.0957,0.0328,9.8435,-0.2681,-0.2617,0.3891
6920,1030,854,34.199,30.444,-0.0811,-0.0197,9.8331,0.3213,-0.4966,-0.8599
6925,1016,850,34.112,30.531,-0.021,-0.0285,9.8583,-0.3108,0.3108,1.1719
6930,1014,852,34.129,30.529,0.0616,0.0083,9.8137,0.0666,0.9767,-0.623
6935,1001,847,34.163,30.454,-0.016,-0.0608,9.8837,-0.0115,0.3228,-0.4223
6940,993,853,34.119,30.426,-0.057,-0.0018,9.7746,1.0096,0.8538,0.5504
6945,987,844,34.125,30.504,-0.0344,0.0712,9.8659,0.5865,0.4477,-0.7034
6950,985,849,34.148,30.439,0.0221,-0.0505,9.8504,0.093,0.8375,1.0859
6955,984,840,34.134,30.469,-0.0587,0.0241,9.8686,0.6339,-0.7709,0.4653
6960,964,845,34.148,30.516,-0.0417,0.012,9.7971,0.2178,-0.1516,-0.5599
6965,947,842,34.162,30.49,-0.0486,0.0077,9.8763,-0.4586,0.9981,-0.1488
6970,941,846,34.168,30.539,0.0857,0.0101,9.8174,-0.1669,0.3356,0.4103
6975,941,837,34.166,30.501,0.0235,0.0374,9.7575,-0.2373,0.306,0.3176
6980,930,839,34.23,30.39,0.1021,-0.0012,9.8411,0.4329,-0.1322,-0.1551
6985,925,840,34.246,30.492,0.0374,0.0716,9.7945,0.1165,-0.6035,0.5493
6990,895,835,34.063,30.473,0.1473,-0.0872,9.738,0.8092,0.2868,-0.7654
6995,901,835,34.217,30.436,-0.0038,0.0263,9.7956,-0.5259,-0.1364,0.0896
7000,892,836,34.21,30.445,0.0655,0.0514,9.7896,0.8043,-0.006,-0.3792
7005,885,838,34.185,30.537,-0.028,0.0895,9.8068,1.1192,0.447,-0.886
7010,865,835,34.135,30.493,0.0055,0.0567,9.8661,-0.0098,-0.5298,0.1505
7015,854,834,34.19,30.539,-0.0054,0.1073,9.7292,-0.0775,0.9937,0.4265
7020,846,831,34.147,30.413,-0.036,-0.049,9.8463,-0.1834,0.9257,0.0514
7025,840,833,34.144,30.481,-0.0595,0.0415,9.8025,0.6967,0.4822,0.4157
7030,827,828,34.117,30.43,-0.0341,0.0645,9.7818,0.1576,0.5125,-0.8995
7035,818,830,34.185,30.505,0.0046,0.0123,9.7515,0.3731,0.533,-0.1706
7040,815,825,34.196,30.552,-0.0278,-0.0122,9.8481,-0.1923,0.5424,0.5439
7045,803,825,34.126,30.456,-0.051,0.1008,9.826,-0.5046,-0.4575,-0.3698
7050,803,824,34.159,30.418,0.0256,0.0696,9.861,-0.2992,-0.4423,-0.2989
7055,785,827,34.123,30.499,-0.1082,0.0118,9.8217,0.7146,0.5105,0.0408
7060,784,823,34.212,30.441,-0.088,-0.0685,9.6856,0.4078,-0.4023,0.0232
7065,774,827,34.189,30.415,-0.0349,0.0032,9.8403,-0.3035,0.0568,-0.0686
7070,768,817,34.181,30.536,-0.0144,0.041,9.8916,-0.5139,0.0997,0.3395
7075,759,819,34.057,30.455,-0.017,-0.026,9.7677,0.4801,-0.1363,-0.2004
7080,761,819,34.09,30.468,-0.0524,-0.0189,9.7963,0.5004,-0.5054,0.6453
7085,755,815,34.134,30.526,-0.0051,0.0549,9.8769,-1.1379,-0.5194,-0.3654
7090,753,820,34.234,30.419,0.0767,-0.1021,9.8256,0.5049,-0.7897,-1.197
7095,753,811,34.104,30.368,0.068,0.0516,9.7417,0.3536,0.5136,0.0219
7100,753,811,34.129,30.478,0.0527,0.0491,9.8377,-0.691,-0.2053,-0.0574
7105,745,815,34.154,30.53,0.0005,-0.0664,9.8092,-0.7083,1.0409,-0.388
7110,748,802,34.149,30.453,-0.0613,-0.027,9.7276,-0.9298,-0.1274,0.1354
7115,746,809,34.254,30.491,-0.0374,0.0146,9.7306,0.2295,-0.5089,0.2467
7120,752,801,34.148,30.414,-0.0718,0.0833,9.8335,-0.0099,-0.3342,0.001
7125,754,802,34.105,30.429,-0.0426,-0.0606,9.6985,0.5517,-0.2772,-0.3183
7130,763,796,34.179,30.388,0.0114,0.0276,9.7797,0.9411,-0.056,-0.4868
7135,753,794,34.166,30.501,-0.0202,0.0213,9.9115,0.2711,-0.1008,0.8919
7140,756,792,34.109,30.474,-0.0308,-0.0482,9.7441,0.7072,0.6966,0.4008
7145,765,789,34.222,30.415,0.0379,0.0382,9.8553,-0.4988,-0.3854,0.804
7150,779,784,34.185,30.474,-0.0581,0.0362,9.7592,0.2245,0.1078,0.32
7155,789,785,34.243,30.355,-0.0514,-0.0221,9.8411,0.3248,0.6738,-0.288
7160,789,777,34.235,30.521,0.0821,0.0674,9.8522,-0.315,-0.8104,-0.1424
7165,794,774,34.203,30.443,-0.0467,-0.0227,9.8191,-1.1228,-0.0087,0.7419
7170,810,773,34.135,30.535,-0.0182,0.0575,9.771,-0.5954,0.4294,-0.5417
7175,825,770,34.131,30.413,0.0482,0.0008,9.7841,0.2003,0.1383,0.5275
7180,827,770,34.121,30.477,-0.0229,0.0717,9.951,-1.1922,0.563,-0.3027
7185,839,763,34.163,30.49,-0.0415,0.0769,9.8719,-0.664,0.1018,-0.7652
7190,849,758,34.155,30.452,0.042,-0.0685,9.818,0.1802,0.7425,-0.366
7195,861,758,34.32,30.48,0.022,0.0103,9.7742,0.2565,0.3868,-0.1829
7200,871,755,34.252,30.503,0.0385,0.0422,9.7504,-0.3658,0.1796,-0.4206
7205,876,748,34.168,30.53,-0.0569,0.0117,9.8559,0.4556,0.2628,-0.3952
7210,898,744,34.171,30.544,-0.0178,-0.0205,9.8176,-0.7224,0.0661,-0.5877
7215,908,743,34.184,30.491,0.0475,-0.0273,9.7987,-0.574,-0.5386,0.3323
7220,914,742,34.109,30.532,-0.0476,0.0404,9.7099,-0.9434,0.1931,0.3682
7225,940,734,34.164,30.392,-0.0148,0.0366,9.8519,-0.403,1.2852,-0.7514
7230,952,729,34.214,30.428,0.0155,-0.0325,9.7678,0.2773,0.7917,-0.8625
7235,963,728,34.152,30.515,-0.0588,0.0153,9.7979,-0.8588,-0.408,-0.1619
7240,985,725,34.137,30.44,0.016,-0.0159,9.7498,0.2136,-0.3799,-0.2052
7245,992,727,34.021,30.48,-0.0403,-0.0412,9.8138,-0.4359,-0.1439,-0.008
7250,1003,718,34.188,30.595,0.0653,-0.0684,9.7942,-0.7362,0.3253,0.3485
7255,1022,715,34.199,30.447,0.0727,0.0115,9.7799,-0.2701,-0.3942,0.0309
7260,1026,718,34.27,30.453,0.0033,-0.0561,9.81,0.8073,-0.7898,-0.2037
7265,1049,716,34.182,30.46,-0.0686,-0.0429,9.7812,0.1484,-0.7494,0.4187
7270,1048,716,34.188,30.523,-0.0098,0.0,9.8343,-0.2366,-0.0682,0.7846
7275,1061,706,34.145,30.487,0.0513,-0.0202,9.8099,0.8774,-0.1976,-0.0096
7280,1071,715,34.189,30.414,-0.0293,-0.1015,9.7456,-0.2341,0.097,0.5014
7285,1093,710,34.172,30.504,0.1124,0.0546,9.785,0.1383,0.6897,-0.6248
7290,1088,712,34.155,30.582,0.0504,0.0492,9.8184,0.5324,0.0563,-1.331
7295,1095,713,34.208,30.455,-0.0103,-0.0017,9.8213,0.5001,-0.3541,0.6493
7300,1115,711,34.121,30.452,-0.0211,-0.0243,9.7897,-0.1397,-0.0538,-0.4299
7305,1121,709,34.149,30.511,0.0938,-0.0207,9.8143,-0.0556,0.5028,0.2499
7310,1140,713,34.122,30.429,0.0077,-0.01,9.7119,0.1689,0.3194,-0.4001
7315,1138,711,34.167,30.493,0.0144,-0.0584,9.7869,0.1683,0.0643,0.6304
7320,1146,712,34.188,30.494,0.0482,-0.0605,9.9026,0.0197,-0.4785,-0.4374
7325,1145,715,34.089,30.536,0.084,-0.0704,9.8549,-0.0796,1.2421,0.4193
7330,1163,715,34.247,30.474,0.0733,-0.028,9.7552,-0.1751,-0.4712,-0.2934
7335,1171,719,34.14,30.554,-0.1231,-0.0452,9.7798,-0.1913,-0.3139,0.5555
7340,1163,724,34.173,30.402,0.0439,0.0955,9.8025,-0.237,-0.5801,0.5295
7345,1180,723,34.205,30.477,-0.0054,0.0244,9.8045,-0.1818,-0.3572,-0.6256
7350,1176,721,34.241,30.51,0.0104,-0.0727,9.7614,-0.3734,0.429,-0.5511
7355,1188,728,34.212,30.425,-0.024,0.0257,9.7713,0.9739,0.5519,-0.7147
7360,1187,733,34.215,30.475,0.047,-0.0516,9.7797,0.2179,0.7638,-0.3942
7365,1185,734,34.162,30.4,-0.0458,0.04,9.8238,0.1413,0.3974,0.7943
7370,1187,734,34.172,30.485,-0.0038,-0.0189,9.755,-0.1689,-0.0455,-0.5445
7375,1187,741,34.108,30.449,0.0393,0.0835,9.7944,0.1569,-0.3718,-0.5998
7380,1190,751,34.085,30.513,0.0141,0.0471,9.8945,-0.4524,0.0073,0.3983
7385,1187,749,34.144,30.524,0.0159,-0.0226,9.7232,0.1745,0.2323,1.2582
7390,1179,756,34.169,30.413,0.0333,-0.0694,9.8078,-0.1835,0.0922,0.4806
7395,1188,760,34.075,30.495,0.0481,0.1189,9.882,-0.1617,0.8476,-0.3597
7400,1177,764,34.084,30.463,-0.0803,-0.0158,9.806,0.2026,-0.4538,-0.4181
7405,1174,765,34.149,30.514,-0.0648,0.0513,9.8532,-0.4467,-0.255,0.2068
7410,1181,775,34.123,30.428,0.0485,0.0049,9.8234,0.275,-0.774,0.7591
7415,1172,777,34.175,30.468,-0.0289,0.0446,9.8449,-0.0546,-0.2375,0.3587
7420,1176,783,34.157,30.473,-0.0763,0.0325,9.8348,0.2015,0.3086,-0.2681
7425,1179,786,34.245,30.544,-0.032,-0.0037,9.8719,-0.9146,-0.377,-0.0843
7430,1173,791,34.175,30.368,0.0725,-0.0732,9.848,-0.0128,0.1652,-0.2001
7435,1167,791,34.146,30.393,0.0737,0.0421,9.8464,0.3713,-0.1197,-0.356
7440,1165,802,34.174,30.492,0.0032,-0.0774,9.788,0.0193,-0.1939,-0.1545
7445,1152,809,34.12,30.456,0.0451,-0.0436,9.9671,-0.2958,-0.3752,0.5178
7450,1152,810,34.158,30.496,-0.0153,0.0081,9.7859,0.1417,-0.3169,0.3471
7455,1148,816,34.182,30.427,0.0373,0.0266,9.8701,0.0969,0.0912,0.7713
7460,1146,817,34.177,30.497,0.0358,-0.0375,9.8555,-0.2199,0.6126,0.8692
7465,1144,823,34.179,30.45,-0.0282,0.0469,9.8353,-0.6166,-0.9128,-0.4319
7470,1143,826,34.129,30.364,-0.0592,-0.0151,9.76,0.4068,-0.1147,0.6424
7475,1145,832,34.314,30.499,-0.0281,-0.0211,9.7954,0.2045,0.2054,-0.5413
7480,1128,835,34.16,30.504,0.0052,0.0599,9.7917,-0.7709,-0.6472,-0.3053
7485,1132,840,34.216,30.51,0.0441,-0.1247,9.8495,0.0959,0.8396,-0.2982
7490,1127,836,34.114,30.41,0.0138,0.026,9.8409,-0.3367,0.1877,0.6438
7495,1121,845,34.202,30.42,0.0165,-0.001,9.7525,-0.0729,-0.6732,0.3949
7500,1109,850,34.224,30.383,0.0541,-0.0026,9.7476,0.053,0.4057,0.1872
7505,1119,846,34.082,30.483,-0.0409,-0.0387,9.8064,0.188,0.4248,0.0129
7510,1113,856,34.142,30.412,-0.0485,-0.0139,9.8462,-0.6004,0.1093,-0.4395
7515,1106,855,34.13,30.471,0.1146,0.0165,9.7897,-0.7248,0.0944,0.8821
7520,1101,853,34.248,30.395,0.0063,-0.0379,9.8036,0.5953,-0.2281,0.8336
7525,1098,860,34.166,30.478,0.0542,0.0635,9.7835,0.5486,0.184,-0.5526
7530,1094,856,34.114,30.549,0.0597,0.0089,9.9056,0.7083,-0.3007,-0.6067
7535,1104,867,34.187,30.462,0.0076,-0.0099,9.7642,-0.1098,0.2002,0.4141
7540,1103,865,34.151,30.355,0.0815,-0.0468,9.748,0.1171,-0.5867,-0.0366
7545,1090,867,34.124,30.43,0.1108,0.0544,9.7813,0.0612,-0.3694,0.119
7550,1099,864,34.169,30.507,-0.0141,0.029,9.8344,-0.098,0.3565,1.6428
7555,1094,868,34.093,30.474,0.0405,-0.0073,9.7889,0.0295,-0.105,-0.3365
7560,1098,864,34.172,30.418,-0.009,0.0762,9.7851,0.4461,0.2924,0.3978
7565,1091,869,34.196,30.453,0.0813,-0.0231,9.8409,0.7665,-0.3997,0.4264
7570,1081,867,34.245,30.412,0.0645,0.0394,9.8062,-0.3988,0.1928,0.2054
7575,1075,868,34.118,30.469,-0.091,0.0595,9.8498,0.7679,0.8694,0.1851
7580,1080,869,34.146,30.392,-0.0596,0.0162,9.8628,-0.3535,0.1838,-0.7992
7585,1083,868,34.112,30.459,-0.0045,0.0036,9.8798,-0.5335,-0.386,0.3863
7590,1082,865,34.158,30.398,0.0561,0.0193,9.8436,0.3236,-0.2968,0.5656
7595,1064,866,34.164,30.523,0.0592,0.0854,9.7666,0.7149,0.2538,-0.478
7600,1064,860,34.194,30.478,-0.0154,-0.0031,9.7024,-0.1054,0.1013,-1.2767
7605,1058,865,34.193,30.578,-0.0091,-0.0568,9.8149,0.0817,-0.4694,0.5765
7610,1066,867,34.129,30.539,0.004,-0.1556,9.7896,0.0213,-0.4731,-0.1237
7615,1062,861,34.228,30.393,0.0052,0.0252,9.7669,-0.7244,0.7408,-0.6283
7620,1049,856,34.123,30.462,-0.0152,-0.096,9.7498,0.2178,-0.4567,-0.7731
7625,1053,860,34.135,30.376,-0.0338,0.053,9.8038,0.7109,0.0758,-0.4681
7630,1039,856,34.107,30.479,-0.0847,0.0145,9.8585,0.3646,0.5974,0.3926
7635,1034,856,34.148,30.473,-0.0524,-0.0191,9.7882,0.0491,-0.1057,0.0274
7640,1038,861,34.13,30.5,-0.0646,-0.0047,9.8367,-0.0016,0.1983,-0.6471
7645,1018,854,34.185,30.522,0.011,-0.0103,9.8436,0.7738,-0.0882,0.9496
7650,1024,850,34.14,30.544,-0.0133,0.0067,9.7459,-0.2429,-0.573,0.3723
7655,1012,850,34.181,30.482,0.0102,0.0209,9.7611,-0.7407,0.9223,-0.0252
7660,1006,846,34.078,30.495,-0.0655,-0.0506,9.8507,-0.1818,0.3123,-0.8538
7665,998,844,34.062,30.507,0.002,-0.0134,9.7588,-0.9178,-0.345,-0.4319
7670,988,851,34.036,30.537,-0.0744,0.0056,9.7833,0.942,0.1571,0.0463
7675,994,849,34.275,30.475,-0.0936,-0.0768,9.829,-0.0932,0.9993,0.5947
7680,972,840,34.208,30.491,0.0457,0.0482,9.821,-0.0337,-0.0559,-0.2782
7685,961,842,34.147,30.469,-0.0102,-0.0202,9.7686,-0.171,-0.126,-0.0231
7690,961,838,34.146,30.488,0.0627,-0.0419,9.7012,0.1403,-0.3879,0.0419
7695,951,839,34.215,30.453,0.02,-0.0311,9.761,-0.8411,0.6197,0.7834
7700,928,841,34.227,30.446,0.1033,-0.018,9.7686,0.4983,0.9493,0.2873
7705,929,840,34.22,30.442,0.0234,0.0262,9.8486,0.3773,-0.3088,0.6181
7710,913,839,34.157,30.41,0.0699,0.0041,9.7134,-1.0878,-1.1114,-0.0412
7715,907,836,34.14,30.49,0.0688,-0.0571,9.7161,-0.4386,0.3848,0.5559
7720,898,836,34.227,30.482,-0.0062,0.0095,9.7598,-0.337,-0.2341,-0.2659
7725,888,843,34.229,30.398,0.0468,-0.0637,9.8777,0.387,-0.3211,-0.0143
7730,877,835,34.125,30.492,0.0188,0.0805,9.8657,-0.162,0.1719,0.2997
7735,873,837,34.262,30.524,0.0141,0.0403,9.8892,0.7774,0.8716,0.5201
7740,858,839,34.104,30.476,0.0225,0.0394,9.9154,-0.0972,-0.6766,-0.0852
7745,853,838,34.199,30.443,-0.0281,0.0472,9.7594,-0.2701,0.0829,-0.2181
7750,837,829,34.185,30.51,0.0274,-0.0024,9.8103,-0.0677,-0.1455,0.1247
7755,838,834,34.202,30.486,0.0364,-0.005,9.8341,0.1391,-0.1312,-0.3306
7760,819,826,34.146,30.53,0.0271,-0.0194,9.7703,0.2834,-0.4252,-0.3224
7765,815,833,34.162,30.415,-0.0753,-0.0561,9.8056,-0.0865,-0.29,0.1571
7770,811,825,34.219,30.451,0.096,0.0896,9.835,0.2597,0.6634,-0.7547
7775,798,823,34.196,30.466,-0.0137,0.0264,9.7699,-0.2683,0.4264,-0.7707
7780,790,830,34.144,30.475,-0.0027,0.0327,9.8139,-0.0825,-0.9076,-0.2529
7785,783,820,34.072,30.456,-0.0915,-0.029,9.8847,0.1999,0.5718,-0.6819
7790,777,825,34.145,30.466,-0.0038,0.0114,9.8979,0.1965,-0.8458,-0.2386
7795,774,828,34.189,30.426,0.0277,-0.0437,9.8397,1.2739,0.2158,-0.1507
7800,763,822,34.202,30.402,-0.0348,0.0625,9.7353,0.9115,0.0218,-0.3008
7805,761,819,34.218,30.462,0.0169,0.1201,9.871,0.5603,-0.403,-0.3995
7810,753,819,34.185,30.435,-0.0599,0.0013,9.7814,-0.9687,-0.3169,-0.4155
7815,753,815,34.177,30.49,-0.0011,0.0402,9.783,-0.0753,0.0122,0.2942
7820,746,813,34.168,30.524,-0.0471,0.1067,9.7784,0.8678,0.1512,-0.6356
7825,756,813,34.25,30.471,0.0183,0.0548,9.8099,-1.1797,-0.1452,1.0531
7830,751,812,34.219,30.512,0.0455,0.1267,9.7848,-0.0558,-0.6078,-0.149
7835,739,807,34.138,30.438,-0.0593,0.0304,9.7384,-0.1462,0.9346,0.3442
7840,750,808,34.272,30.498,0.032,0.0452,9.8106,-0.282,0.8462,0.8634
7845,751,807,34.094,30.5,-0.1132,-0.0181,9.7928,0.3375,0.0342,-0.4286
7850,751,809,34.065,30.497,0.0293,-0.0408,9.7178,0.4597,-0.8428,-0.7118
7855,749,795,34.181,30.506,-0.0308,-0.0443,9.7296,0.0147,0.0965,-0.6744
7860,753,797,34.071,30.372,-0.0246,0.0381,9.7539,0.5737,-0.1242,-0.2222
7865,765,791,34.182,30.421,0.0841,0.0603,9.7993,-0.0452,-0.1918,-0.6548
7870,768,790,34.134,30.49,0.0787,-0.0307,9.7884,-0.5097,0.4323,0.2803
7875,773,791,34.161,30.308,0.0082,0.0389,9.8046,-0.6847,-0.1523,0.2268
7880,778,782,34.207,30.496,-0.0196,0.0936,9.8514,0.6986,-0.772,0.1504
7885,793,783,34.236,30.528,-0.0037,0.0044,9.7783,-0.3126,-0.4127,-0.2399
7890,798,781,34.167,30.432,0.0647,0.0361,9.8298,-0.2101,-0.5998,0.1297
7895,798,771,34.159,30.536,0.037,0.0508,9.9054,-0.4275,-0.1623,-0.3731
7900,810,769,34.178,30.483,0.0013,-0.0328,9.8168,-0.0122,-0.0245,-0.242
7905,824,762,34.13,30.427,0.056,-0.0536,9.7895,-0.6689,0.1596,-0.8183
7910,838,767,34.13,30.548,0.0019,0.0035,9.7386,0.2495,0.2754,0.3123
7915,854,761,34.109,30.441,0.0433,0.0532,9.7777,0.2034,-0.2117,-0.3925
7920,857,761,34.166,30.546,0.0373,-0.0146,9.8263,0.5458,-0.5908,0.6232
7925,874,751,34.242,30.439,0.0533,0.0851,9.7893,0.0668,0.9051,0.4087
7930,885,751,34.12,30.429,-0.0182,0.0553,9.7389,-0.301,-1.0256,0.8085
7935,883,743,34.111,30.39,0.0077,0.0914,9.724,0.4558,-0.2123,-0.6644
7940,906,741,34.228,30.439,0.0146,-0.0108,9.8013,0.0917,-0.8897,0.4184
7945,918,737,34.127,30.428,0.0512,-0.0915,9.7977,-0.4511,-0.6917,-0.5468
7950,926,738,34.149,30.53,-0.0215,-0.0014,9.7819,0.5704,-0.0492,-0.5566
7955,949,734,34.175,30.483,-0.0185,-0.0099,9.8527,0.2332,-0.6205,-0.0366
7960,959,731,34.169,30.498,-0.0786,0.0017,9.7992,0.4981,0.0674,0.3052
7965,968,727,34.284,30.492,0.0047,0.017,9.7383,0.6087,0.1737,-0.1576
7970,980,723,34.125,30.488,-0.0282,0.0162,9.8304,0.3172,0.735,0.2325
7975,993,722,34.177,30.504,-0.0207,0.0079,9.7893,0.4659,0.2673,-0.0994
7980,1007,720,34.183,30.508,-0.0237,-0.0465,9.7698,-0.5779,-0.2248,-0.627
7985,1027,717,34.172,30.529,0.0085,-0.056,9.8036,-0.386,0.3946,0.3257
7990,1036,711,34.184,30.559,0.0859,-0.0771,9.8394,0.3945,-0.0575,-0.0963
7995,1048,711,34.103,30.397,-0.0162,0.1011,9.8509,-1.1332,-1.1613,0.6991
8000,1064,710,34.183,30.46,-0.0566,-0.0771,9.7834,-0.486,-0.3074,0.6051
8005,1075,710,34.143,30.505,0.0714,-0.0607,9.7212,-0.4875,1.0612,0.3
8010,1080,713,34.192,30.394,0.1146,0.038,9.922,0.5172,-0.582,0.0035
8015,1091,711,34.179,30.445,-0.0034,0.0599,9.745,-1.1481,-0.19,0.6553
8020,1107,712,34.171,30.545,0.0724,-0.0161,9.8444,0.9731,0.6922,-0.2548
8025,1114,709,34.21,30.519,-0.042,-0.0639,9.8132,-0.044,-0.4951,0.0675
8029,1119,710,34.159,30.579,0.0057,0.0185,9.8064,-1.0539,-0.4078,0.7186
8035,1133,708,34.19,30.456,-0.0458,0.0033,9.8421,-0.1718,0.4024,-0.4179
8039,1140,712,34.19,30.466,0.0125,0.0329,9.7195,-0.0868,-0.2041,-0.4606
8045,1147,716,34.194,30.497,-0.0224,0.0381,9.8785,-0.3257,-0.3393,0.2198
8050,1158,719,34.131,30.487,-0.0341,0.0651,9.7695,0.1888,-0.0389,0.4723
8055,1154,717,34.159,30.413,-0.0274,-0.092,9.8434,-0.5327,-0.0689,0.7858
8060,1170,715,34.17,30.453,-0.0186,-0.0577,9.7202,-0.4515,0.3199,-0.2657
8064,1169,722,34.061,30.382,-0.0617,0.0684,9.8259,-0.3886,-0.1872,-0.6694
8070,1182,725,34.105,30.501,0.0524,-0.0164,9.7653,-0.4216,-0.4849,0.8091
8074,1171,729,34.201,30.473,-0.0831,-0.0353,9.8382,-0.0485,-0.7974,-0.5309
8080,1176,728,34.132,30.594,0.14,0.0669,9.7894,-0.4071,0.2404,-0.1129
8085,1184,734,34.18,30.481,-0.0378,-0.0082,9.7892,0.6228,-0.1569,-0.0513
8090,1184,733,34.119,30.546,0.0156,0.0097,9.8924,-0.4479,-0.1054,-0.9234
8095,1186,739,34.091,30.444,-0.0442,0.0343,9.7429,-0.203,-0.2883,-0.0548
8100,1186,743,34.108,30.41,-0.0273,-0.0015,9.7649,-0.5834,0.2038,0.2423
8105,1194,740,34.269,30.469,-0.0149,0.032,9.7862,-0.4834,-0.4213,-0.3361
8109,1188,755,34.125,30.47,0.0232,0.0799,9.8379,0.0737,-0.6308,-0.2795
8115,1193,748,34.262,30.448,-0.0397,0.0391,9.79,-0.0587,0.7344,-0.2019
8119,1183,758,34.172,30.414,-0.1204,0.016,9.8714,-0.2369,-0.5046,0.2029
8125,1186,761,34.104,30.475,-0.0001,0.0482,9.8361,-0.0272,0.4789,-0.1373
8130,1185,763,34.287,30.445,0.0769,0.0566,9.7266,-0.3721,0.6344,0.4839
8135,1175,769,34.216,30.486,-0.0426,-0.0203,9.7826,-0.1546,0.2793,-0.3063
8140,1185,776,34.192,30.502,0.0321,-0.0107,9.7783,0.593,-0.1214,-0.6585
8145,1167,781,34.121,30.459,0.0007,0.0217,9.7899,-0.2875,-0.9459,0.4119
8150,1176,783,34.159,30.519,0.0321,0.0227,9.8515,-0.2413,-0.2001,-0.7012
8154,1174,793,34.193,30.522,0.0427,0.012,9.82,-0.8089,0.1834,-0.3248
8160,1171,789,34.119,30.397,0.0126,0.0046,9.8953,-0.3809,-0.4066,-0.0337
8164,1165,796,34.108,30.456,-0.0016,0.0967,9.8152,-0.3085,-0.3502,0.935
8170,1166,802,34.157,30.472,0.049,-0.0273,9.8205,0.4034,0.6413,0.4289
8175,1158,810,34.136,30.405,0.0778,0.0314,9.8146,-0.5721,0.401,0.4205
8180,1155,813,34.171,30.521,0.0238,0.0754,9.8013,0.4916,0.3162,0.3707
8185,1153,816,34.238,30.487,0.0493,0.0514,9.8195,0.1453,-0.117,-0.3352
8189,1149,820,34.133,30.503,-0.009,-0.0233,9.7981,0.0073,-0.1828,-0.1378
8195,1138,829,34.13,30.462,0.012,-0.0426,9.8498,0.4221,0.5995,-0.0203
8200,1133,827,34.168,30.48,0.0289,0.0366,9.8288,-0.1113,-0.0164,1.0934
8205,1132,831,34.163,30.398,-0.0213,0.0572,9.8225,-0.1794,0.0869,0.5561
8210,1136,838,34.227,30.456,-0.047,-0.0809,9.8018,0.2279,0.4079,0.42
8215,1123,840,34.179,30.492,0.0393,-0.1312,9.8009,-0.1156,0.1943,-0.1022
8220,1119,843,34.261,30.465,0.0933,0.067,9.8171,0.2531,0.2276,0.2658
8225,1120,842,34.24,30.545,0.0525,-0.0282,9.8878,0.2638,0.2721,0.0073
8230,1133,848,34.157,30.55,-0.0216,0.0162,9.8074,1.3748,0.2137,0.7616
8235,1109,853,34.227,30.417,0.07,0.0851,9.7973,0.6224,0.1802,-0.1694
8240,1100,853,34.204,30.422,-0.0336,0.0699,9.8199,0.156,-0.6545,0.2627
8245,1115,854,34.19,30.491,0.0598,-0.0225,9.8229,-0.1121,0.1055,-0.3673
8250,1112,862,34.122,30.461,0.0631,0.0201,9.8641,-0.2673,-0.3617,-0.1056
8255,1099,861,34.156,30.51,-0.0288,-0.0113,9.8465,-0.4386,0.543,0.3702
8260,1099,859,34.107,30.505,0.0183,-0.0085,9.7518,-0.1429,0.6084,-0.3224
8265,1098,869,34.215,30.537,-0.0481,-0.0195,9.813,0.4858,-0.8874,0.0828
8270,1093,863,34.192,30.528,0.0092,-0.033,9.8158,0.7142,-0.2459,1.0612
8275,1089,864,34.215,30.515,0.0204,0.0557,9.7368,-0.5431,0.8272,-0.1565
8280,1097,871,34.195,30.46,-0.045,0.0356,9.8349,-0.8636,-0.8259,0.0743
8285,1092,868,34.19,30.446,0.0168,-0.0292,9.7532,0.4898,-0.5706,-0.4056
8290,1081,869,34.164,30.401,-0.0181,-0.0407,9.836,-0.6472,-0.0913,0.5198
8295,1084,865,34.068,30.476,0.1027,0.0151,9.8638,-0.1789,-0.5097,-0.4347
8300,1089,872,34.186,30.53,0.0985,-0.0052,9.8888,0.1183,-0.3651,-0.0946
8305,1086,867,34.229,30.439,0.0412,-0.0207,9.8653,-0.2155,0.2114,0.7581
8310,1066,865,34.122,30.394,0.0176,0.1169,9.8676,0.4946,0.5346,0.1599
8315,1072,868,34.222,30.498,0.056,0.0703,9.8175,-0.0272,-0.3959,0.7403
8320,1065,860,34.235,30.513,-0.003,-0.0226,9.8182,-0.8902,0.4913,0.0384
8325,1068,865,34.218,30.487,0.0236,-0.0651,9.8417,-0.3375,0.3715,-0.4066
8330,1063,862,34.176,30.527,0.0182,-0.0119,9.7853,0.0876,-0.3325,0.5756
8335,1060,864,34.142,30.48,0.0029,0.0629,9.7974,-0.3041,0.0661,-0.051
8340,1054,861,34.174,30.435,-0.0049,0.0432,9.7594,-0.1835,0.3474,-0.6459
8345,1061,861,34.149,30.439,-0.0127,-0.0024,9.7146,0.1425,-0.1281,0.4943
8350,1052,853,34.097,30.467,0.0237,-0.1255,9.7965,-0.0959,-0.6389,-0.0166
8355,1047,857,34.204,30.451,0.0429,0.0193,9.8354,-0.1895,-0.0266,0.0774
8360,1034,856,34.208,30.474,0.0046,0.0904,9.856,-1.0101,0.3837,-0.6942
8365,1034,855,34.255,30.461,-0.0384,0.0269,9.8315,0.3546,0.5271,0.5838
8370,1023,854,34.215,30.517,0.0468,0.0055,9.8288,0.0192,0.2046,-0.2745
8375,1011,852,34.206,30.521,0.0932,0.0354,9.8357,-0.0211,-0.4235,0.4657
8380,1016,851,34.078,30.503,-0.0398,0.0128,9.7348,0.3237,0.4091,0.3988
8385,1004,844,34.159,30.388,-0.1144,-0.0108,9.8233,0.5776,-0.2086,0.1952
8390,1004,852,34.109,30.414,0.0074,-0.0664,9.85,-0.1938,-1.3464,1.1304
8395,1001,846,34.238,30.438,0.0777,0.0189,9.7491,-0.0496,-0.9511,0.0163
8400,987,851,34.167,30.502,0.0049,-0.0192,9.8008,0.3393,0.1089,0.2417
8405,972,843,34.215,30.384,-0.0136,-0.0642,9.8302,0.808,0.4104,-0.5771
8410,974,842,34.125,30.482,-0.0244,-0.027,9.7923,0.551,-0.6518,-0.1185
8415,956,849,34.258,30.54,-0.0061,0.0068,9.8441,0.5713,0.9023,-0.5484
8420,953,841,34.106,30.399,-0.0013,-0.0193,9.7549,0.6263,-0.3869,-0.2259
8425,943,839,34.187,30.454,0.012,-0.0392,9.8165,0.5961,0.5352,-0.2622
8430,926,843,34.176,30.534,0.0185,-0.0049,9.8408,0.5465,-0.0291,0.0844
8435,925,835,34.196,30.458,0.0159,-0.032,9.8582,0.161,0.3691,0.415
