timestamp_ms,ir_finger,ir_toe,temp_finger,temp_toe,ax,ay,az,gx,gy,gz
0,1039,651,34.365,34.472,-0.0956,-0.0383,9.868,0.3178,-0.0323,-0.2057
5,1052,650,34.296,34.354,-0.01,0.0328,9.7919,-0.3004,0.2422,0.0141
10,1070,649,34.416,34.434,0.036,-0.0078,9.7821,-0.6792,0.109,0.2769
15,1072,655,34.336,34.343,0.0203,-0.0321,9.7252,-0.0365,0.2653,-0.0213
20,1079,663,34.357,34.357,0.07,-0.0064,9.8372,-0.3733,-0.8191,-0.0365
25,1095,661,34.234,34.447,-0.0031,0.0947,9.845,0.3654,-0.1223,0.0702
30,1110,673,34.27,34.387,-0.0325,-0.0039,9.8288,0.4585,-0.0483,-0.275
35,1112,678,34.259,34.408,0.0298,-0.0374,9.7822,-0.3224,0.729,-0.4691
40,1121,678,34.375,34.414,-0.0231,-0.0042,9.8081,0.3401,0.2448,0.9089
45,1133,687,34.336,34.424,0.0101,0.006,9.8213,-0.6936,0.2723,-0.1758
50,1132,691,34.303,34.392,0.0128,0.0191,9.7522,0.3284,-0.1524,-1.2881
55,1144,697,34.347,34.273,0.0299,0.0219,9.8546,0.2832,0.0604,0.0488
60,1154,708,34.393,34.326,0.0842,-0.0616,9.7822,-0.15,-0.7721,0.1849
65,1152,707,34.342,34.383,0.006,-0.0034,9.7569,0.1941,-0.1443,0.6521
70,1165,725,34.299,34.335,0.0309,0.0118,9.7744,-0.5052,-0.0053,0.0344
75,1168,724,34.436,34.363,-0.0494,-0.0032,9.7655,0.2311,0.5745,-0.4463
80,1171,729,34.332,34.449,-0.0116,-0.0097,9.6711,0.8562,-0.7382,0.7059
85,1166,745,34.411,34.418,0.0446,-0.0045,9.8158,0.1923,-0.4899,-1.2854
90,1182,751,34.347,34.448,-0.0753,0.0132,9.8263,0.1242,-0.0127,0.9689
95,1185,761,34.434,34.369,0.0062,0.0351,9.8301,0.1801,0.2865,-0.1227
100,1176,766,34.362,34.431,-0.0068,0.0403,9.8604,0.1612,-0.3078,-0.2811
105,1182,774,34.294,34.33,-0.0164,-0.0616,9.8429,0.5014,-0.3721,-0.2433
110,1197,786,34.314,34.399,-0.0249,-0.0071,9.7975,0.2338,0.4037,-0.0024
115,1192,792,34.215,34.314,0.0374,-0.1058,9.8456,-0.629,0.8712,0.141
120,1186,796,34.309,34.373,0.0694,0.0649,9.7491,-0.3964,-1.0174,-0.1919
125,1189,803,34.326,34.389,-0.0641,0.0674,9.7985,-0.4548,-0.1237,0.123
130,1189,813,34.298,34.392,-0.001,0.0133,9.8706,0.4324,0.2404,0.6121
135,1188,821,34.382,34.403,0.0019,0.0108,9.8794,-0.2343,0.0399,0.0815
140,1181,828,34.333,34.357,-0.1397,-0.003,9.8105,-0.2634,0.6039,-0.2044
145,1183,841,34.348,34.36,0.0151,0.0708,9.8529,0.0045,0.1712,0.2919
150,1181,842,34.307,34.449,-0.0361,0.1007,9.7663,-0.1942,0.0844,0.9764
155,1179,849,34.353,34.344,0.022,0.0303,9.8322,-0.8995,-0.4445,0.1457
160,1174,861,34.302,34.401,0.0702,-0.023,9.7398,0.3114,0.5275,0.7985
165,1174,861,34.314,34.404,0.0018,-0.0297,9.847,-0.5946,-0.2624,0.1524
170,1179,866,34.416,34.365,-0.0261,-0.0289,9.8425,-0.5516,0.7644,0.312
175,1169,872,34.293,34.423,0.0185,0.1077,9.7564,-0.271,-1.0335,-0.5203
180,1176,879,34.267,34.335,-0.0179,-0.0656,9.8239,-0.5947,-0.0829,0.0652
185,1165,884,34.338,34.393,0.0942,-0.061,9.7346,0.0383,-0.2945,-0.1126
190,1175,890,34.315,34.357,-0.0687,0.0093,9.831,-0.2153,-0.0692,-0.5679
195,1161,895,34.272,34.416,-0.0542,0.0153,9.8226,0.0586,-0.2367,-0.1775
200,1164,901,34.357,34.386,-0.0058,-0.0125,9.8555,0.6278,-1.3317,-0.2863
205,1155,900,34.297,34.401,0.0481,0.0363,9.8282,-0.0326,-0.3072,-0.2333
210,1144,906,34.322,34.445,0.0781,-0.0882,9.821,0.9227,0.1576,-0.1966
215,1152,910,34.372,34.363,-0.0512,0.0795,9.7744,0.7433,0.2436,-0.21
220,1142,908,34.404,34.327,-0.0575,0.0166,9.8429,-0.7905,0.1817,-0.0585
225,1129,910,34.339,34.372,-0.0109,0.0802,9.8451,0.3965,-0.9821,-0.0374
230,1131,913,34.238,34.334,0.1608,0.0042,9.7888,0.5031,0.1964,-0.2483
235,1136,914,34.269,34.39,-0.1033,0.0137,9.7507,0.6851,0.1344,0.0569
240,1133,919,34.335,34.398,0.0114,0.0213,9.8242,0.0323,-0.1217,0.4417
245,1125,925,34.365,34.398,0.0426,0.0793,9.7858,-0.8247,0.2528,0.1612
250,1118,923,34.271,34.338,-0.0259,0.0635,9.8359,-0.488,-0.1964,-1.4352
255,1130,924,34.318,34.326,-0.0291,-0.0105,9.7437,0.2796,-0.2121,0.2561
260,1121,918,34.354,34.38,-0.0389,-0.0601,9.697,0.4156,0.0834,0.361
265,1117,923,34.301,34.479,-0.0054,0.0096,9.7492,-0.0397,-0.6701,-0.2325
270,1097,922,34.227,34.38,-0.0282,-0.0993,9.8668,0.3751,-0.5778,0.6996
275,1118,923,34.369,34.394,0.0263,-0.0746,9.8004,-1.0562,0.6041,-0.9248
280,1105,921,34.277,34.316,-0.013,0.0275,9.7608,-0.5695,-0.4315,0.5464
285,1100,922,34.325,34.258,-0.0099,0.0002,9.792,-0.1162,0.7321,-0.8606
290,1101,925,34.321,34.33,0.0174,-0.0146,9.8348,0.2905,-0.402,-0.0218
295,1101,915,34.334,34.371,-0.0379,0.0482,9.8505,0.5771,-0.1476,0.1282
300,1091,921,34.366,34.4,-0.0453,0.0077,9.7956,0.4391,-0.0447,-0.1855
305,1092,913,34.375,34.397,-0.0073,-0.0731,9.8581,0.1638,0.3823,-0.2273
310,1096,913,34.351,34.376,0.0384,-0.0814,9.7673,-0.8954,0.2989,-0.0233
315,1093,905,34.387,34.435,-0.0234,-0.0771,9.7857,-0.2147,0.0172,0.3952
320,1090,906,34.278,34.372,-0.016,-0.0542,9.8492,0.8036,0.1181,1.0624
325,1093,912,34.345,34.429,0.031,0.0179,9.7669,0.7593,0.3866,0.219
330,1084,910,34.293,34.407,0.0438,-0.0989,9.8097,-0.3337,-0.1649,-0.0099
335,1087,900,34.332,34.378,0.1263,0.0199,9.8725,0.116,0.5142,0.5955
340,1087,905,34.349,34.344,-0.0768,-0.0014,9.8368,-0.9774,-0.3925,0.532
345,1078,902,34.393,34.379,-0.0011,-0.0602,9.7617,0.4226,-0.1269,-0.3185
350,1078,900,34.327,34.333,-0.0553,-0.044,9.9208,0.69,1.3267,-0.9464
355,1073,896,34.34,34.396,-0.0539,0.0254,9.8208,0.1455,0.2596,0.1075
360,1084,892,34.326,34.354,-0.1032,-0.009,9.9541,0.1802,-0.1139,0.2348
365,1071,896,34.401,34.354,0.0348,0.0194,9.8535,-0.5194,-0.7662,0.5936
370,1066,887,34.367,34.402,0.0215,-0.0943,9.8321,0.5343,0.054,-0.2373
375,1061,882,34.384,34.417,-0.0455,-0.0395,9.7337,0.7185,0.3585,-0.2766
380,1054,887,34.301,34.408,0.0314,-0.028,9.7817,0.2756,-0.211,-0.3572
385,1056,884,34.443,34.364,0.0339,-0.0259,9.8265,-0.4016,-0.1492,-0.1562
390,1052,882,34.437,34.322,0.0449,0.0337,9.7807,-0.1284,-0.4612,0.7112
395,1040,878,34.335,34.431,-0.0068,-0.121,9.8,-0.372,0.6,-1.082
400,1038,878,34.295,34.401,0.0245,-0.009,9.908,-0.2799,-0.6804,0.0235
405,1037,873,34.25,34.411,-0.067,-0.0158,9.7882,0.7675,1.2468,-0.0116
410,1033,873,34.33,34.415,-0.1313,-0.0093,9.8432,-0.1368,-0.2011,0.3927
415,1023,875,34.355,34.456,-0.0391,0.1273,9.8121,-0.7662,-0.285,-0.0162
420,1017,876,34.435,34.31,0.071,-0.097,9.7825,0.3737,0.5777,0.3457
425,1014,870,34.4,34.421,0.0568,0.0442,9.8886,0.3734,0.2429,0.3101
430,1010,868,34.303,34.408,-0.0781,-0.0842,9.8756,-0.5538,-0.45,-0.1468
435,1011,862,34.348,34.322,0.0429,0.0392,9.8023,0.0532,-0.6146,0.4101
440,992,862,34.287,34.273,0.0189,0.0368,9.8067,-0.4809,-0.2054,0.1612
445,990,865,34.412,34.403,-0.0164,0.0065,9.7237,0.4588,0.4374,0.2351
450,981,861,34.399,34.392,0.0579,0.0047,9.8131,-0.2758,0.4975,-0.1662
455,980,861,34.234,34.412,0.0891,0.072,9.8215,0.3402,0.7111,-0.0224
460,966,856,34.308,34.394,0.0747,0.003,9.8557,0.0641,-0.5383,0.1019
465,963,857,34.249,34.418,0.0599,-0.0451,9.8235,0.1182,-0.2321,0.0291
470,948,857,34.404,34.423,-0.041,-0.0518,9.7249,-0.369,0.7193,-0.3224
475,939,851,34.307,34.367,0.0642,-0.0181,9.6946,0.2145,-0.6975,-0.3812
480,938,846,34.416,34.449,0.0596,0.1013,9.7874,-0.1342,0.1689,-0.3727
485,932,853,34.359,34.423,0.0254,0.0271,9.7797,-0.2822,-0.0386,0.5937
490,916,854,34.268,34.385,0.0526,-0.0417,9.8305,-1.3156,0.6655,-0.5629
495,904,849,34.354,34.365,0.0247,-0.002,9.8256,-0.4835,-0.3112,0.1452
500,899,837,34.336,34.344,-0.0365,-0.0595,9.881,-0.1301,0.5385,-0.1941
505,893,847,34.416,34.396,-0.0234,0.0117,9.8516,-0.4418,0.1651,1.0769
510,879,845,34.306,34.289,-0.0242,-0.0615,9.7279,-0.1485,-0.1834,-0.3716
515,862,849,34.298,34.398,0.0182,-0.0234,9.8494,0.5569,-0.3089,0.2299
520,862,843,34.289,34.379,0.016,-0.0116,9.7985,-1.32,0.1321,0.178
525,856,837,34.227,34.385,0.0722,0.097,9.7962,-0.0792,-1.0424,0.1218
530,838,832,34.407,34.379,0.0124,-0.0203,9.7583,-0.0203,0.0617,-0.6552
535,840,831,34.373,34.429,-0.0106,-0.0725,9.7928,-0.5741,0.315,0.4336
540,826,824,34.286,34.312,-0.0273,0.0261,9.8024,-1.0013,-0.217,0.3688
545,825,822,34.314,34.346,0.0385,-0.0617,9.7757,-0.7818,-0.8514,-0.0132
550,813,823,34.36,34.316,-0.0159,-0.0578,9.9149,0.7172,-0.2402,0.5443
555,809,820,34.324,34.368,0.013,0.0594,9.8959,-0.1736,-0.3253,-0.3545
560,804,810,34.307,34.353,-0.0044,0.0422,9.8355,-0.9148,-0.2667,0.1968
565,793,812,34.386,34.349,-0.0872,0.106,9.721,0.2629,0.8617,-0.2418
570,785,805,34.314,34.402,0.0034,0.0587,9.8548,0.1968,0.5716,0.4516
575,768,801,34.299,34.432,0.0143,0.0216,9.8454,-0.1423,-0.2235,0.6826
580,770,792,34.311,34.309,0.0879,-0.0361,9.8277,0.4829,-0.0779,-0.8195
585,772,798,34.331,34.396,-0.0368,-0.0775,9.9083,0.7012,0.6586,-0.4956
590,767,790,34.389,34.325,0.0569,0.0627,9.8115,0.9602,-0.1582,0.5795
595,762,789,34.277,34.402,0.0231,-0.0039,9.7785,-0.7384,0.3018,-0.3301
600,746,778,34.25,34.29,-0.0399,0.0572,9.7449,0.0702,0.2017,0.7436
605,751,770,34.313,34.425,0.0111,-0.0406,9.8863,0.5294,-0.6539,0.0994
610,759,767,34.221,34.372,-0.0092,-0.0632,9.7402,0.167,0.351,0.8882
615,750,768,34.351,34.376,-0.0449,0.0185,9.8285,-0.6308,1.1704,-0.7522
620,757,752,34.328,34.451,0.0044,-0.0478,9.7576,-0.0999,-1.1762,-0.0022
625,738,753,34.295,34.341,-0.0455,0.0411,9.7711,0.7118,0.2507,0.0428
630,746,746,34.39,34.412,0.036,-0.0858,9.7951,0.388,0.5365,0.4147
635,744,738,34.303,34.428,0.0624,0.0261,9.7999,-0.2442,-0.103,-0.0515
640,752,741,34.389,34.302,0.0351,0.0351,9.7883,0.5141,-0.0225,-0.5825
645,750,725,34.299,34.396,-0.0093,0.0006,9.8176,0.1176,0.3287,0.2315
650,756,725,34.353,34.334,0.0238,-0.0158,9.8439,0.6407,0.2588,0.9463
655,757,717,34.364,34.385,-0.0637,0.0722,9.8076,0.3391,-0.196,0.1491
660,761,711,34.343,34.368,-0.0125,0.0242,9.7573,0.311,0.2069,0.8477
665,769,705,34.28,34.444,-0.0333,-0.0725,9.9117,0.3677,-0.1072,-0.3873
670,773,696,34.415,34.353,-0.0356,0.0104,9.8512,0.0079,-0.5778,-0.1162
675,778,690,34.281,34.489,-0.0597,-0.0947,9.7547,0.6666,-0.3594,-0.8769
680,789,686,34.328,34.424,0.0289,-0.0334,9.8312,-0.184,1.1259,0.4287
685,791,686,34.395,34.481,0.0634,0.0,9.7546,0.6208,0.5957,-0.4021
690,804,680,34.234,34.438,0.0356,0.03,9.7977,-0.4578,0.6477,-0.9852
695,802,667,34.368,34.428,0.0228,0.0015,9.7199,-0.6353,0.8476,0.3458
700,821,664,34.327,34.368,0.0087,0.0012,9.8386,0.0748,-0.2879,0.5254
705,822,662,34.213,34.354,-0.0589,0.0145,9.7499,0.6642,0.5465,-0.0129
710,840,652,34.31,34.358,0.0445,0.0129,9.8661,0.8088,-0.1699,0.2286
715,847,657,34.389,34.455,-0.0377,0.042,9.8064,0.9062,-0.0527,-0.0171
720,856,652,34.3,34.428,-0.1037,-0.0407,9.8674,-0.0437,-0.1736,-0.264
725,863,647,34.337,34.33,0.0227,0.0356,9.8088,-0.8706,0.391,0.8835
730,881,646,34.36,34.422,-0.0872,-0.0037,9.791,-0.2596,-0.1488,-0.6587
735,891,641,34.295,34.381,-0.0665,-0.1083,9.9304,-0.5263,0.3774,0.2305
740,903,641,34.39,34.41,0.0285,-0.0922,9.8189,-0.0841,-0.3061,-0.561
745,916,639,34.319,34.395,-0.0981,0.0266,9.7734,-0.0288,0.1648,-0.1846
750,916,637,34.352,34.409,-0.0124,-0.0634,9.7576,-0.3996,-0.9273,-0.0325
755,937,636,34.33,34.434,0.0204,0.0933,9.8689,-0.5855,-0.8767,0.575
760,950,633,34.366,34.446,0.0734,-0.0076,9.7711,1.1068,-0.0664,0.5203
765,962,637,34.349,34.345,0.0244,0.0527,9.8112,-0.9584,-0.1063,-0.079
770,968,636,34.275,34.355,0.0048,0.0918,9.8207,-0.1285,-1.4686,-0.4533
775,981,639,34.336,34.382,0.0441,-0.0453,9.8863,-0.4393,0.3027,0.1893
780,1010,632,34.36,34.447,-0.0171,-0.0994,9.8674,1.0655,-0.3895,-0.7698
785,1006,637,34.286,34.401,-0.0066,0.0586,9.7947,-0.1283,-0.0769,-0.3359
790,1021,640,34.415,34.41,0.0115,-0.1424,9.9044,-1.1128,-0.7773,0.2983
795,1036,644,34.31,34.439,-0.0057,-0.0223,9.8241,-0.0504,0.4927,0.4768
800,1043,641,34.339,34.373,-0.0759,-0.0329,9.7897,0.5523,-0.253,0.4314
805,1049,646,34.375,34.378,0.0216,-0.0487,9.7634,0.3538,-0.5386,0.642
810,1068,650,34.377,34.284,-0.0651,0.0225,9.8259,0.1546,0.0274,-0.5236
815,1066,657,34.28,34.432,0.0257,-0.0056,9.7485,0.1722,0.197,0.6659
820,1080,654,34.382,34.398,-0.0695,-0.0619,9.8243,0.1523,-1.0096,-0.1842
825,1099,662,34.304,34.37,-0.0664,0.0571,9.6978,-0.8053,0.5855,0.3518
830,1103,669,34.443,34.41,0.08,0.0392,9.8066,-0.155,0.2416,-0.4884
835,1109,669,34.374,34.452,-0.075,-0.0206,9.8333,-0.4324,-0.1939,0.251
840,1122,682,34.341,34.418,0.0434,0.0352,9.8168,-0.7868,-0.1955,0.594
845,1137,683,34.356,34.372,-0.0739,-0.0657,9.8003,-0.2062,0.6902,-0.2923
850,1133,691,34.416,34.374,-0.0004,-0.0005,9.8384,-0.493,-0.861,-0.7875
855,1150,701,34.331,34.322,-0.0897,-0.011,9.7503,-0.3561,-0.0198,-0.0845
860,1160,708,34.367,34.316,-0.0784,0.0014,9.8041,-0.321,-0.78,-0.3357
865,1159,714,34.378,34.444,-0.0406,-0.0334,9.8808,0.1458,-0.1352,0.197
870,1174,723,34.306,34.459,-0.0255,-0.0448,9.7732,0.1552,0.2284,-0.2272
875,1171,731,34.349,34.356,-0.0291,0.0383,9.8353,0.6242,0.4381,0.5192
880,1172,739,34.354,34.413,-0.0677,0.0935,9.84,-0.7532,-0.5386,-0.3949
885,1173,743,34.316,34.432,0.0451,0.0092,9.7965,-0.0078,-0.4569,0.9014
890,1183,750,34.262,34.395,0.0088,0.0122,9.773,-0.3056,0.503,0.7802
895,1179,758,34.311,34.34,-0.0338,-0.0481,9.7932,0.2912,0.3748,-0.1263
900,1184,764,34.408,34.375,0.0191,-0.0139,9.8336,0.094,-0.0037,0.5196
905,1180,776,34.336,34.474,0.0162,-0.0242,9.7986,0.6794,0.7439,-0.2372
910,1188,783,34.389,34.37,-0.0019,-0.0009,9.8327,-0.6803,0.0985,-0.9263
915,1184,788,34.325,34.426,-0.0101,0.0132,9.8775,-0.2323,-0.2547,-0.3274
920,1190,803,34.363,34.364,-0.0917,0.0834,9.8585,0.4878,0.2201,-0.6058
925,1192,806,34.364,34.356,0.0216,-0.0306,9.779,-0.0856,0.2945,0.405
930,1192,812,34.275,34.349,0.0283,-0.0037,9.8107,1.0068,-0.6566,-0.0918
935,1190,823,34.32,34.392,-0.029,0.0265,9.7789,-0.0905,-0.2153,-0.2379
940,1188,832,34.376,34.464,0.0877,0.0611,9.7989,-0.1042,-0.2611,0.3988
945,1181,834,34.356,34.369,-0.0127,0.0284,9.8195,1.1893,0.7598,-0.5175
950,1188,845,34.329,34.365,-0.0584,-0.0288,9.8058,-0.223,-0.2319,0.0655
955,1183,848,34.261,34.363,0.0014,0.0129,9.8558,0.3571,0.3553,0.5107
960,1179,858,34.341,34.402,-0.0718,-0.03,9.7935,0.4676,0.4056,0.4705
965,1176,864,34.458,34.379,-0.0834,-0.0067,9.8893,-0.1219,-0.3789,0.0896
970,1179,868,34.38,34.378,0.0265,-0.1018,9.7991,0.8528,-0.6793,0.5379
975,1173,876,34.246,34.334,0.0153,-0.0643,9.8232,-0.4729,-0.7406,-0.2916
980,1161,876,34.281,34.354,-0.0916,0.0149,9.8521,-0.3425,0.0214,-0.3087
985,1167,881,34.29,34.359,-0.0218,-0.0448,9.8862,0.2245,0.203,0.5341
990,1153,885,34.338,34.327,0.0319,0.019,9.7519,-0.0351,1.0236,0.3315
995,1155,897,34.305,34.397,0.0341,0.0632,9.872,1.0376,0.4231,0.4368
1000,1160,895,34.31,34.395,-0.0698,0.0753,9.8648,-0.8824,-0.0905,-0.1563
1004,1144,907,34.333,34.374,0.0772,-0.0278,9.8086,-0.1771,-0.1909,0.3421
1010,1146,904,34.344,34.383,0.1151,-0.0064,9.8169,-0.2316,-0.6467,1.0921
1014,1151,912,34.387,34.359,0.0229,-0.0236,9.7154,-0.71,-0.2018,0.37
1020,1153,913,34.326,34.504,-0.0221,0.0055,9.9014,0.2198,-0.7456,-0.3839
1025,1137,920,34.284,34.417,-0.0002,-0.036,9.8561,1.1131,-0.0446,-0.0255
1030,1138,918,34.378,34.359,0.0294,-0.0707,9.8707,-0.3623,-0.1448,-0.197
1035,1136,918,34.402,34.402,-0.0013,-0.0483,9.7396,0.8616,0.3486,0.0235
1040,1141,920,34.261,34.347,-0.0148,-0.0876,9.8272,0.1323,0.5119,0.7936
1045,1132,919,34.277,34.383,-0.0536,0.0051,9.8841,0.5751,0.733,0.7444
1050,1124,921,34.44,34.327,-0.0694,-0.017,9.9287,0.8072,0.1081,0.4306
1055,1123,921,34.347,34.373,0.0098,-0.0105,9.7953,-0.4799,0.7283,-0.2547
1060,1119,924,34.3,34.398,-0.063,-0.0117,9.7581,-0.043,-0.5844,-1.0482
1065,1116,921,34.29,34.556,-0.0824,0.1038,9.7017,0.499,-1.0314,-0.3793
1070,1119,922,34.33,34.461,0.0091,-0.0235,9.8263,0.0898,0.5238,0.6979
1075,1114,921,34.443,34.44,-0.0216,-0.0132,9.843,0.6154,0.6601,0.1479
1080,1116,919,34.265,34.388,0.0603,-0.0283,9.8175,0.5142,-0.1481,0.0774
1085,1107,924,34.415,34.343,-0.0529,-0.0149,9.7737,-1.5151,-0.1207,-0.1064
1090,1108,921,34.292,34.418,0.0606,-0.0227,9.8138,0.4485,-0.5074,0.2335
1095,1103,915,34.376,34.332,-0.0152,0.0819,9.7422,0.3244,-0.405,0.155
1100,1101,918,34.374,34.401,-0.02,-0.0772,9.7857,-0.8685,0.0889,-0.0717
1105,1098,915,34.478,34.383,0.0188,0.0407,9.8247,-0.4232,1.0781,1.0265
1110,1097,914,34.264,34.461,0.0474,-0.0244,9.7959,-0.5148,0.3141,0.2846
1115,1092,913,34.374,34.489,-0.012,0.0445,9.7989,-0.4617,0.9101,0.256
1120,1091,906,34.305,34.34,-0.02,0.0156,9.7836,0.8492,0.0649,-1.1598
1125,1087,906,34.324,34.466,-0.0311,0.0668,9.8543,-0.1137,-0.4143,0.7504
1130,1085,902,34.332,34.326,-0.0275,0.0164,9.9031,-0.3701,0.4363,-0.588
1135,1078,909,34.357,34.323,0.018,-0.0169,9.7782,0.5591,0.2135,-0.3973
1140,1084,897,34.363,34.366,-0.0011,0.0007,9.8137,0.4446,0.2467,-0.3821
1145,1084,900,34.383,34.368,0.0555,0.0112,9.8296,-0.4422,-0.4188,0.3554
1150,1076,896,34.352,34.388,-0.0469,-0.029,9.7659,0.3431,-0.1726,-0.0442
1155,1076,896,34.335,34.367,0.062,-0.0445,9.8229,-0.2252,-0.184,0.1212
1160,1065,892,34.327,34.364,-0.0362,0.005,9.7782,-0.407,-0.2914,-0.0768
1165,1068,892,34.247,34.389,0.0159,0.0338,9.768,-0.066,-0.1393,-0.0525
1170,1057,890,34.288,34.35,-0.0084,-0.0319,9.7592,0.5024,1.0244,-1.2134
1175,1064,889,34.309,34.372,-0.0875,-0.0007,9.807,0.1036,0.1347,0.0039
1180,1055,881,34.315,34.414,-0.0275,0.0215,9.775,0.1267,0.0009,0.1929
1185,1055,887,34.311,34.386,-0.02,-0.0614,9.8166,-0.5667,-0.2844,0.2351
1190,1052,881,34.293,34.346,-0.0699,0.0398,9.7248,-0.3087,0.1741,-0.8769
1195,1041,881,34.348,34.431,-0.0846,-0.0611,9.9226,0.1823,0.3217,-0.0281
1200,1034,876,34.236,34.39,0.0324,0.0903,9.7445,0.002,-0.1944,0.7456
1205,1036,874,34.305,34.382,-0.0155,-0.0838,9.7832,-0.6924,0.0053,-0.3563
1210,1028,876,34.276,34.4,-0.0015,0.0064,9.8726,-0.4097,0.8099,0.4688
1215,1035,873,34.333,34.359,-0.0402,0.0087,9.8639,0.0587,0.8851,0.2338
1220,1018,871,34.372,34.365,0.0032,-0.0768,9.8806,0.5094,-0.0637,0.5124
1225,1017,865,34.302,34.404,-0.0256,0.008,9.7894,0.4038,0.3502,0.346
1230,1021,870,34.358,34.401,-0.0231,-0.031,9.8126,-0.0938,-0.1233,0.4538
1235,996,862,34.365,34.304,-0.0718,-0.0744,9.7481,-0.3033,-0.2344,-0.3319
1240,993,866,34.432,34.391,0.0011,-0.0345,9.7364,-0.9286,-0.8171,-0.6334
1245,992,861,34.392,34.342,0.0425,-0.0239,9.7967,0.6139,-0.188,-0.0953
1250,983,857,34.388,34.403,-0.0073,0.0263,9.7908,0.7058,0.4472,0.5896
1255,974,858,34.276,34.361,0.059,-0.0681,9.7976,-0.1862,-0.3073,-0.0861
1260,965,863,34.308,34.372,-0.0391,0.0306,9.7424,0.3462,-1.086,-1.139
1265,960,860,34.331,34.463,-0.1156,0.0299,9.8719,0.1143,-0.5452,0.3272
1270,952,857,34.349,34.372,0.0426,-0.0136,9.7368,0.0443,0.4279,-0.1388
1275,933,855,34.324,34.46,0.0492,0.0359,9.9037,0.1488,-0.2762,0.4762
1280,935,852,34.373,34.506,-0.0388,-0.0347,9.7972,0.6605,0.5736,0.4439
1285,923,852,34.37,34.408,0.0384,-0.0041,9.7931,0.2964,-0.5943,-0.5314
1290,912,843,34.251,34.369,0.0274,-0.0715,9.7652,-0.1603,-0.1921,0.3828
1295,899,843,34.296,34.384,0.0708,0.0142,9.8376,1.4392,0.1475,-0.6354
1300,906,845,34.399,34.367,0.0517,-0.0233,9.8666,-0.1381,-0.0101,0.2432
1305,901,847,34.302,34.392,-0.0142,-0.0031,9.8053,0.2057,0.1599,-0.0006
1310,879,839,34.3,34.417,-0.0898,-0.0756,9.8034,-0.0759,0.6195,-0.0586
1315,872,836,34.388,34.447,-0.0069,0.0249,9.7551,-0.9921,0.9415,-1.0209
1320,868,840,34.28,34.358,0.0406,0.0049,9.7333,0.4399,-0.059,-0.1567
1325,858,827,34.373,34.444,-0.0401,-0.066,9.766,-0.0073,0.2874,-0.0493
1330,846,830,34.271,34.365,-0.0804,0.0776,9.8251,1.3337,0.1683,0.8625
1335,829,833,34.229,34.44,-0.0746,0.0806,9.8935,-0.1039,-0.5349,0.4894
1340,824,822,34.348,34.391,-0.0428,-0.0089,9.7293,0.1529,0.5106,-0.2508
1345,818,823,34.28,34.363,0.0313,0.0164,9.7436,0.5745,0.835,0.6505
1350,821,824,34.298,34.367,0.0183,-0.0035,9.6916,-1.2954,-0.008,-0.5212
1355,808,817,34.358,34.39,0.0985,0.0117,9.7071,0.7411,-0.0005,-0.343
1360,808,818,34.331,34.451,0.0084,-0.0717,9.8745,-0.0442,-0.0308,0.7797
1365,792,809,34.345,34.366,-0.0006,0.0461,9.8558,0.4912,0.005,0.3626
1370,784,805,34.385,34.369,-0.01,0.0118,9.8236,0.9258,0.903,0.507
1375,781,797,34.398,34.409,-0.0321,-0.0191,9.7765,-0.3309,0.049,0.4051
1380,773,797,34.325,34.374,0.0769,0.0544,9.8486,0.3159,0.6538,0.1697
1385,774,793,34.369,34.354,-0.0454,0.0337,9.8158,0.1504,-0.6617,0.3718
1390,772,790,34.313,34.422,-0.0015,-0.0327,9.8746,0.8972,0.6844,-0.5029
1395,765,783,34.334,34.336,-0.0484,0.1023,9.7303,-1.1976,-0.0232,-0.3621
1400,757,776,34.408,34.326,0.0126,-0.0189,9.8882,-0.6801,-0.1375,-0.6717
1405,745,769,34.399,34.346,0.0225,0.0013,9.8313,0.0258,0.5294,-0.0762
1410,751,763,34.346,34.442,-0.0455,-0.0377,9.8543,-0.1526,0.2407,-0.4158
1415,743,764,34.311,34.385,0.0464,0.0782,9.7502,-0.1296,-0.1273,0.9516
1420,751,751,34.417,34.385,0.0013,-0.0136,9.7889,0.1099,-0.3281,-0.5832
1425,752,748,34.402,34.368,-0.0166,0.058,9.7865,-0.1534,1.0903,-0.4246
1430,748,740,34.353,34.388,0.0671,0.0635,9.8457,-0.2864,0.6531,-0.0592
1435,746,739,34.331,34.453,-0.0073,-0.0174,9.9246,-0.3876,0.4887,-0.1727
1440,752,731,34.319,34.323,-0.0106,0.0263,9.8454,0.861,-0.4727,0.1682
1445,750,730,34.381,34.34,-0.0147,-0.0275,9.8063,-0.1153,-0.0625,-0.5029
1450,762,721,34.389,34.464,0.0404,-0.0299,9.8717,0.147,-1.0973,0.2801
1455,758,720,34.363,34.414,-0.0352,0.0276,9.7604,-0.4794,0.7447,0.7151
1460,756,711,34.335,34.348,0.0166,-0.0778,9.7834,-0.741,0.1302,-0.0457
1465,768,703,34.322,34.448,0.0294,0.0874,9.8379,-0.8024,0.3208,-0.9241
1470,781,700,34.385,34.381,0.0118,-0.0046,9.7699,-0.4879,0.006,-0.1345
1475,790,690,34.384,34.406,-0.0286,0.0014,9.7613,-0.0208,0.2298,-0.8151
1480,785,689,34.267,34.39,0.0261,0.0154,9.797,-0.9563,-0.6544,-0.1575
1485,794,684,34.34,34.347,-0.058,-0.0161,9.8411,0.5615,0.7073,-0.6469
1490,794,685,34.284,34.379,-0.0287,0.0164,9.9039,-0.198,0.9284,-0.4746
1495,806,668,34.368,34.392,0.0666,-0.0295,9.8194,0.429,-0.3298,-0.3013
1500,813,671,34.313,34.326,-0.0497,-0.0127,9.7787,0.3925,-0.0379,-0.3801
1505,824,656,34.315,34.39,0.0264,0.0462,9.8124,0.0919,-0.7541,-0.5085
1510,835,661,34.264,34.4,0.0967,-0.074,9.8178,-0.0129,0.4396,0.2991
1515,845,656,34.262,34.283,0.0829,0.0088,9.8336,-0.2011,-0.2817,0.4367
1520,856,656,34.276,34.37,0.0423,-0.0147,9.892,-0.3646,0.143,0.1688
1525,877,649,34.379,34.435,0.0225,0.008,9.8504,-0.2664,-0.6532,0.5307
1530,889,651,34.364,34.369,0.037,-0.0424,9.798,-0.1029,-0.5674,-0.4215
1535,895,645,34.407,34.408,-0.1045,0.0277,9.7868,-0.4165,-0.2741,-0.5469
1540,906,639,34.264,34.335,-0.0704,-0.1158,9.7797,-0.5335,0.0283,-0.2936
1545,907,634,34.345,34.502,-0.0263,0.0323,9.8033,0.4195,-0.1165,-0.4811
1550,932,632,34.336,34.369,0.0358,0.047,9.799,0.2964,-0.5245,-0.2594
1555,940,640,34.407,34.457,0.0132,0.0079,9.8474,-0.3615,0.2966,-0.3462
1560,952,630,34.342,34.38,-0.0061,0.0518,9.7848,-1.0194,0.4507,-0.2062
1565,964,633,34.208,34.401,0.0527,0.0385,9.9143,0.8541,-0.1973,0.2552
1570,968,632,34.33,34.397,0.0691,0.0272,9.7337,0.0788,-0.0781,0.384
1575,987,633,34.281,34.312,0.0434,-0.0315,9.8453,-0.2353,-0.022,-0.4142
1580,1005,638,34.321,34.427,0.048,0.0073,9.74,-0.2844,-0.5913,0.5714
1585,1008,641,34.377,34.414,-0.0567,0.0121,9.8378,1.0801,-0.7839,0.1758
1590,1024,637,34.37,34.402,-0.0802,0.0162,9.7706,0.5639,-0.8982,0.993
1595,1030,641,34.292,34.347,0.0055,-0.005,9.7824,-0.1332,-0.5197,0.2806
1600,1048,646,34.321,34.399,0.1269,0.068,9.8493,-0.0183,-0.4041,0.4751
1605,1058,648,34.355,34.472,-0.0092,0.0595,9.802,-0.5112,-0.417,-0.817
1610,1068,652,34.357,34.415,0.0897,-0.0016,9.8452,-0.1453,0.1054,-0.6006
1615,1077,652,34.374,34.369,0.0319,0.0215,9.8583,0.6693,-0.2298,0.1945
1620,1085,661,34.389,34.407,-0.0029,0.0355,9.8235,-0.6061,0.7607,0.3279
1625,1096,664,34.302,34.371,-0.0195,0.0853,9.9036,0.2949,-0.4201,-0.5754
1630,1106,671,34.34,34.395,-0.0307,0.0166,9.7794,-0.3466,1.1243,0.1531
1635,1121,674,34.328,34.379,0.0359,-0.0366,9.8296,-0.1159,0.0678,0.065
1640,1128,682,34.395,34.42,0.002,-0.0495,9.8105,-0.4161,-0.8277,-0.537
1645,1126,683,34.405,34.344,0.0486,0.0141,9.7879,-0.3387,-0.3712,-0.2331
1650,1143,694,34.264,34.392,0.0037,0.0101,9.7629,-0.389,0.2789,-0.1057
1655,1142,700,34.331,34.407,0.0696,0.0603,9.7591,-0.0398,-0.4755,-0.2935
1660,1148,704,34.408,34.367,0.0034,0.0476,9.7685,-0.1455,-0.4708,-0.0505
1665,1161,714,34.262,34.391,0.0486,-0.0717,9.8934,0.2991,0.7355,0.0866
1670,1174,723,34.275,34.374,-0.0066,-0.0475,9.8266,0.0944,0.4177,-0.6644
1675,1171,725,34.236,34.381,0.0605,-0.044,9.8829,-0.5404,0.2085,0.0416
1680,1169,734,34.258,34.389,0.1204,0.0295,9.7281,-0.0217,0.4662,-0.5125
1685,1167,740,34.337,34.328,0.0771,-0.061,9.775,0.2569,-0.3765,-0.6186
1690,1180,751,34.279,34.476,0.0599,0.0881,9.7728,-0.5967,0.5058,-0.5951
1695,1193,768,34.326,34.356,-0.0679,-0.0075,9.7832,0.2374,0.1047,0.2697
1700,1185,767,34.368,34.411,0.0219,0.0797,9.8445,0.3515,0.0102,0.3494
1705,1183,776,34.331,34.414,-0.0549,0.0825,9.8358,0.4378,0.6796,0.2546
1710,1177,783,34.346,34.428,-0.0652,-0.019,9.7638,-0.6004,-0.3101,-0.2349
1715,1196,790,34.272,34.34,0.0169,0.037,9.8505,0.9283,-0.2331,0.0298
1720,1189,804,34.362,34.416,0.0537,0.0334,9.8264,0.1206,1.2151,-0.254
1725,1185,808,34.345,34.344,0.0114,-0.0192,9.8078,-0.54,0.3487,0.8069
1730,1188,819,34.418,34.383,0.0508,0.023,9.8397,0.5016,0.1663,0.6806
1735,1177,823,34.331,34.379,-0.0414,-0.0677,9.8566,-0.1088,0.0682,-0.4464
1740,1190,833,34.384,34.422,-0.0212,-0.0032,9.7929,-0.3221,0.3398,-0.2398
1745,1182,847,34.348,34.382,0.0456,-0.0113,9.8773,-0.3492,0.5004,-0.3648
1750,1189,848,34.211,34.335,-0.0537,0.0573,9.8423,0.1643,-0.8408,-0.652
1755,1188,850,34.295,34.469,-0.0249,0.0073,9.7986,0.7758,0.3295,-0.211
1760,1175,855,34.42,34.362,0.0737,-0.0107,9.7955,0.0773,0.5848,0.2662
1765,1183,861,34.361,34.434,-0.0296,0.0682,9.7465,-0.0081,0.7647,-0.8902
1770,1178,867,34.37,34.359,-0.0783,-0.0399,9.791,0.7046,-0.159,0.0664
1775,1166,876,34.256,34.437,0.0265,0.0242,9.7573,0.3421,-0.0702,0.7936
1780,1176,883,34.26,34.314,-0.0907,0.0633,9.8343,0.7241,0.5416,0.2519
1785,1169,887,34.438,34.475,-0.0611,-0.0073,9.755,0.8825,0.1127,0.3567
1790,1160,891,34.419,34.378,0.0371,-0.0008,9.823,0.8284,-0.1662,-0.2243
1795,1161,897,34.31,34.416,0.0247,0.0128,9.8527,-0.4408,0.3843,-0.2656
1800,1150,901,34.345,34.392,-0.0003,0.0185,9.775,1.3711,-0.0887,-0.2366
1805,1167,902,34.37,34.459,0.0437,-0.0551,9.762,-0.0878,-0.1476,-0.6221
1810,1153,902,34.366,34.43,-0.0173,0.001,9.707,-0.0033,-0.0521,0.1338
1815,1140,908,34.276,34.336,0.0078,0.0321,9.8202,0.6038,1.0872,-0.388
1820,1150,910,34.351,34.448,0.0378,0.1041,9.8148,-0.2578,-0.5035,-0.3814
1825,1145,914,34.345,34.421,0.0058,0.0549,9.8596,1.0149,0.2797,-1.0343
1830,1147,918,34.282,34.45,-0.0683,0.0256,9.7891,-0.7824,-0.0283,-0.0525
1835,1131,922,34.287,34.503,0.0034,0.0564,9.8351,-0.3436,-1.1054,0.3392
1840,1122,917,34.327,34.371,-0.0816,0.1005,9.7796,-0.2633,-0.2329,-0.0736
1845,1131,921,34.317,34.431,-0.0653,-0.0538,9.8297,-1.2388,-0.1369,0.4736
1850,1125,930,34.307,34.404,0.0504,-0.0145,9.7033,0.5259,0.1275,-0.2249
1855,1123,924,34.238,34.414,-0.0004,0.0185,9.7636,0.8732,0.5486,0.5265
1860,1122,919,34.398,34.429,0.0327,0.064,9.7608,-0.5669,0.1023,0.1942
1865,1110,925,34.403,34.522,-0.0366,0.0789,9.8632,-0.1366,-0.3004,0.0361
1870,1109,920,34.364,34.438,0.1051,0.0743,9.7785,0.0597,-0.6747,-0.8697
1875,1103,923,34.414,34.447,-0.0275,-0.0059,9.7198,-0.4951,-0.3073,-0.0571
1880,1105,920,34.373,34.386,0.1125,-0.0197,9.8038,0.0516,-0.8321,-0.1861
1885,1103,921,34.297,34.451,-0.0097,-0.0739,9.7482,0.166,0.3942,-0.0996
1890,1105,920,34.332,34.487,0.004,-0.0475,9.8939,-0.6769,-0.1371,0.5317
1895,1095,920,34.365,34.428,-0.0548,-0.0917,9.7784,-0.2817,-0.9432,-0.0648
1900,1096,923,34.442,34.405,0.013,0.0324,9.7645,0.5816,-0.0703,-0.0174
1905,1098,918,34.418,34.428,0.0434,-0.0469,9.8595,-0.7067,0.4148,1.2543
1910,1100,915,34.297,34.432,0.0395,-0.0519,9.8482,0.1812,-0.1858,0.5843
1915,1093,912,34.287,34.408,0.0631,0.0093,9.9173,0.1335,0.4707,0.3636
1920,1100,905,34.438,34.39,-0.0395,-0.0294,9.9071,0.2098,0.4989,-0.1097
1925,1090,901,34.349,34.318,-0.0558,-0.0541,9.741,0.2226,0.384,0.5091
1930,1091,903,34.377,34.395,0.0078,0.023,9.8313,0.2366,-0.1757,0.2617
1935,1070,904,34.36,34.529,-0.0267,-0.0173,9.7489,-0.3142,-0.1282,0.0859
1940,1079,901,34.386,34.43,-0.0621,0.0153,9.7836,0.2716,0.2645,0.7435
1945,1081,899,34.405,34.37,-0.052,-0.0649,9.7819,-0.2532,-0.0924,0.9251
1950,1072,900,34.325,34.442,-0.0048,-0.0088,9.8619,-0.3853,-0.5192,-0.1452
1955,1067,900,34.412,34.313,0.024,-0.0423,9.83,0.4128,0.3096,-0.0546
1960,1076,890,34.337,34.376,0.1194,-0.0304,9.7558,0.5026,0.2272,0.1496
1965,1073,896,34.278,34.476,0.0762,0.0421,9.835,-0.2017,0.2173,0.4002
1970,1069,882,34.431,34.413,0.0033,0.0389,9.8077,0.1444,1.256,-0.5929
1975,1058,882,34.287,34.389,0.0002,-0.13,9.8224,0.0681,0.3196,-1.2049
1980,1055,885,34.386,34.453,-0.0036,0.035,9.7994,0.1266,-0.0428,0.1946
1985,1048,881,34.392,34.381,0.071,-0.0105,9.8604,-0.5527,-0.3537,0.4008
1990,1050,876,34.345,34.362,-0.0078,-0.0177,9.8682,-0.2349,0.3987,0.1234
1995,1049,873,34.341,34.385,0.0059,-0.0779,9.7945,0.7997,-0.5079,0.5485
2000,1053,871,34.38,34.454,0.1158,0.0454,9.8265,0.1186,0.1405,0.6076
2005,1041,875,34.331,34.344,-0.0068,0.0375,9.8273,0.6731,-0.3345,-0.1083
2009,1025,870,34.342,34.378,0.1117,-0.0669,9.8513,-0.0134,-0.2932,-0.2186
2015,1017,879,34.33,34.427,0.0619,0.0385,9.7861,0.6427,0.1798,0.4722
2020,1024,869,34.381,34.371,0.0146,-0.0526,9.7785,-0.4958,0.7256,-0.4744
2025,1021,869,34.302,34.42,0.0136,-0.0143,9.7695,-0.1495,0.5166,0.273
2029,1012,871,34.336,34.449,0.0394,-0.0285,9.8191,-0.5382,-0.1246,0.7008
2035,1002,864,34.317,34.404,-0.0614,0.0104,9.7931,-0.1343,-0.4179,0.8036
2040,994,867,34.361,34.43,-0.0919,0.009,9.8514,-0.0177,-0.2126,-0.1994
2045,983,861,34.376,34.488,-0.0167,0.0795,9.7575,0.0417,0.0975,0.5991
2050,983,860,34.296,34.368,0.0428,-0.0085,9.8467,-0.1015,-0.1818,0.1363
2055,968,864,34.303,34.428,-0.0457,0.0992,9.7609,-0.7943,-0.2633,-0.0871
2060,963,854,34.309,34.299,-0.0116,-0.0853,9.9406,-0.1464,0.5691,0.1277
2065,959,857,34.337,34.444,-0.0792,0.0442,9.9103,0.0671,-1.3327,1.0383
2070,947,853,34.363,34.314,-0.0029,0.0431,9.7672,-0.0698,-0.4664,-0.3788
2075,940,859,34.371,34.432,0.0426,0.0039,9.6517,0.1275,0.1394,-0.5146
2080,932,852,34.421,34.321,-0.0516,0.051,9.8732,0.1401,-0.5401,0.6672
2085,924,850,34.437,34.365,-0.0043,0.0203,9.8341,-0.0664,-0.9164,0.2216
2090,903,850,34.302,34.469,-0.0199,-0.0123,9.7672,-0.9344,0.7271,-0.7255
2095,904,846,34.369,34.39,-0.0476,0.0283,9.7457,0.7446,0.5453,0.7105
2100,899,845,34.394,34.374,-0.0505,-0.0159,9.7374,0.6077,0.4282,0.5375
2105,880,844,34.306,34.38,0.0046,0.0532,9.7764,-0.6589,0.2485,0.1879
2110,878,846,34.273,34.355,-0.0463,-0.0433,9.785,-0.2879,0.7814,-0.3142
2115,876,841,34.333,34.403,-0.0044,0.0461,9.8016,1.012,0.1929,-0.2866
2120,857,838,34.184,34.365,0.0826,-0.0122,9.7679,0.674,0.2989,0.054
2125,853,837,34.302,34.449,0.0144,0.136,9.8953,-1.23,-0.4853,-0.8774
2130,847,832,34.287,34.389,-0.0463,0.0541,9.8091,0.3869,0.1801,0.4742
2135,841,830,34.363,34.294,0.0101,0.0245,9.8366,0.3862,0.0338,0.0602
2140,824,826,34.39,34.319,-0.0038,0.0584,9.8067,1.135,0.3017,0.2702
2145,819,822,34.413,34.388,-0.0112,0.0879,9.8142,0.6906,0.6598,0.805
2150,818,816,34.347,34.436,-0.0067,0.07,9.8219,0.3332,0.188,-0.6053
2155,805,818,34.399,34.417,-0.0226,0.0856,9.7547,0.5608,0.4854,-0.6403
2160,792,816,34.45,34.412,0.0615,-0.0006,9.7745,-0.9165,-0.1407,-0.011
2165,798,810,34.349,34.381,0.0306,-0.009,9.8748,0.1042,0.9525,-0.0973
2170,774,811,34.34,34.385,0.062,-0.0183,9.8176,-0.155,-0.007,-0.0217
2175,773,803,34.293,34.386,-0.0562,0.0329,9.8355,-0.3521,-0.589,-0.359
2180,770,794,34.34,34.466,0.0712,0.0586,9.7755,-0.8396,0.0682,-0.3427
2185,766,794,34.295,34.41,-0.1205,-0.0258,9.8346,-0.3649,-0.3339,-0.5306
2190,755,785,34.367,34.393,0.0256,-0.0166,9.7571,-0.4538,0.4059,0.3214
2195,763,781,34.331,34.492,-0.0683,-0.0106,9.8147,-0.3011,-0.3306,0.0298
2200,755,782,34.267,34.426,-0.0485,-0.0364,9.8618,0.4673,-0.0376,-0.6276
2205,763,775,34.374,34.395,0.0864,-0.0399,9.8029,0.9921,-0.1551,0.5532
2210,750,765,34.35,34.447,0.0653,-0.0218,9.771,-0.3436,-0.1977,0.1234
2215,749,757,34.362,34.44,-0.006,0.0409,9.8216,0.4576,0.5388,0.6967
2220,744,758,34.358,34.502,-0.0031,-0.02,9.8262,-0.5336,0.774,0.023
2225,743,751,34.354,34.435,0.0345,0.0167,9.7586,0.6726,-0.7585,0.563
2230,750,747,34.335,34.298,0.019,0.0034,9.8077,-0.0684,-0.0605,0.7421
2235,754,737,34.272,34.365,0.0261,0.0348,9.8585,-0.3153,-0.4575,-0.7878
2240,755,732,34.315,34.338,-0.0296,-0.0568,9.8243,-0.4187,0.5975,-0.2992
2245,760,726,34.42,34.377,0.042,-0.0491,9.8069,-0.3476,-0.5357,-0.5551
2250,749,723,34.309,34.484,-0.0489,0.0102,9.7946,-0.3703,0.081,-0.7811
2255,768,717,34.36,34.394,-0.0004,-0.086,9.8127,0.7933,-0.061,0.6453
2260,758,707,34.244,34.442,-0.0612,0.0267,9.7501,-0.7937,0.3794,-0.1428
2265,770,703,34.371,34.339,0.0213,0.0396,9.8024,-0.3612,-0.055,-0.1571
2270,775,703,34.286,34.331,0.0433,-0.0513,9.8728,-0.1099,0.266,0.0745
2275,779,695,34.417,34.463,-0.0021,-0.0164,9.911,-0.0987,0.4861,0.3694
2280,787,685,34.231,34.413,-0.0305,-0.0147,9.7825,0.1234,0.2147,0.5929
2285,805,675,34.404,34.532,0.0389,0.0451,9.7543,0.2,0.3161,-0.36
2290,805,680,34.31,34.418,0.0304,-0.0301,9.7927,-0.2906,-0.2212,-0.0791
2295,810,679,34.378,34.384,-0.0499,-0.1375,9.8302,-0.7032,0.6364,0.5291
2300,816,664,34.438,34.406,0.002,0.0303,9.7455,-0.8025,0.3088,-0.395
2305,830,658,34.387,34.432,-0.0375,0.049,9.7816,-0.3009,-0.0353,-0.5087
2310,837,659,34.294,34.428,-0.0479,0.0534,9.8177,-0.0447,0.1666,-0.852
2315,852,655,34.292,34.353,-0.0637,-0.0432,9.848,-0.1117,-0.9298,-0.565
2320,857,651,34.327,34.412,-0.0265,-0.0085,9.9091,-0.3497,-0.1465,0.7205
2325,869,646,34.246,34.473,0.0642,-0.0589,9.8184,0.1708,0.0507,0.4555
2330,880,640,34.417,34.386,0.0328,0.0011,9.8199,-0.7243,0.8571,0.1504
2335,891,642,34.318,34.451,0.0126,-0.0093,9.7877,0.6255,0.2487,1.0051
2340,904,638,34.315,34.432,-0.0453,0.0278,9.8548,-0.0217,-0.4784,-0.2245
2345,916,643,34.397,34.419,-0.0044,-0.0301,9.8992,-0.2993,-0.6527,0.2226
2350,930,640,34.298,34.336,0.0069,0.0496,9.7999,-0.2794,-0.3301,-0.1439
2355,946,632,34.264,34.412,0.0104,0.0916,9.8653,0.6228,-0.377,0.2748
2360,951,632,34.367,34.446,0.0229,0.041,9.7807,0.1244,-0.006,0.1104
2365,969,632,34.414,34.409,-0.1297,-0.025,9.8337,-1.3963,-0.0279,0.2189
2370,974,635,34.339,34.401,-0.039,0.0192,9.8585,0.004,0.0245,-0.1243
2375,983,629,34.324,34.419,-0.0292,0.0222,9.7702,0.3054,0.4024,0.2482
2380,997,637,34.319,34.385,0.0096,0.0164,9.7726,0.1613,-0.1813,0.0658
2385,1011,640,34.454,34.397,0.0327,0.0358,9.8072,0.3549,0.3697,0.0307
2390,1032,636,34.466,34.472,-0.1017,-0.116,9.8683,-0.1452,-0.5268,-0.018
2395,1040,637,34.31,34.361,0.0128,0.0181,9.7774,0.5839,-0.6835,-0.2012
2400,1046,646,34.344,34.408,0.0194,0.0199,9.8175,0.3427,-0.1171,0.1651
2405,1049,648,34.377,34.358,-0.0247,-0.0645,9.8528,0.7338,-0.4715,-1.2218
2410,1065,658,34.33,34.317,0.0235,0.0015,9.7243,1.0892,-0.4771,-0.7433
2415,1074,658,34.322,34.393,-0.0406,-0.0465,9.9062,-0.3755,0.3847,-0.3367
2420,1090,664,34.321,34.396,0.09,0.0278,9.7271,0.0411,-0.8776,0.2161
2425,1097,665,34.35,34.291,-0.0239,-0.0425,9.8818,-0.2438,0.8352,0.8445
2430,1107,668,34.395,34.38,0.0021,-0.0155,9.6939,-0.1732,-0.3102,0.0704
2435,1113,675,34.316,34.367,0.0384,-0.0114,9.8371,0.0198,0.4206,0.7403
2440,1126,684,34.39,34.318,-0.044,0.0567,9.8028,-0.0716,-0.0953,-0.567
2445,1130,685,34.36,34.477,0.0251,0.0928,9.8051,0.4781,0.0098,0.1437
2450,1130,693,34.325,34.385,-0.0319,-0.0263,9.8493,-0.7917,-0.8366,0.2512
2455,1145,700,34.388,34.398,-0.0308,0.0479,9.7541,0.7909,0.0095,0.4755
2460,1149,708,34.259,34.366,0.0129,0.0006,9.7713,-0.2424,-0.2765,-0.5503
2465,1153,719,34.324,34.409,-0.0318,-0.0167,9.8206,-0.3455,-0.27,-0.2159
2470,1167,722,34.333,34.466,-0.0148,-0.0461,9.7765,0.1035,-0.1734,-0.1332
2475,1163,727,34.355,34.407,0.0273,0.0722,9.8693,-0.2838,-0.0566,0.7817
2480,1163,738,34.366,34.411,-0.0567,-0.0352,9.7333,0.2139,-1.5351,0.0618
2485,1172,740,34.272,34.443,0.0034,-0.0351,9.8362,0.1046,0.6676,0.6687
2490,1185,760,34.266,34.511,0.0421,0.0242,9.8112,0.2441,0.0053,-0.5454
2495,1184,760,34.347,34.445,0.0274,0.0257,9.892,0.0582,0.1284,-0.174
2500,1177,776,34.336,34.36,-0.0171,-0.0822,9.8552,0.2785,0.0522,-0.6876
2505,1179,779,34.39,34.292,0.0413,-0.0172,9.8421,-0.0688,0.1635,0.1341
2510,1184,782,34.469,34.456,0.0155,-0.1532,9.8531,0.7954,0.3312,0.1791
2515,1186,791,34.363,34.482,0.0326,-0.0674,9.7701,0.5097,0.0199,0.3453
2520,1194,795,34.323,34.408,-0.0603,0.0007,9.8194,0.0736,0.4941,0.5039
2525,1185,812,34.319,34.395,-0.0441,-0.1339,9.8152,-0.1618,-0.8041,0.0627
2530,1191,821,34.29,34.322,-0.0508,0.0106,9.8065,0.9499,0.0525,0.0591
2535,1183,822,34.349,34.404,-0.0415,0.0082,9.7759,-0.2146,-0.3848,0.5963
2540,1183,828,34.424,34.358,0.0396,-0.0185,9.7661,-0.6012,0.437,-0.1625
2545,1191,837,34.371,34.343,0.0361,-0.0429,9.8504,-0.7466,-0.2485,0.014
2550,1191,844,34.331,34.374,-0.0548,-0.0142,9.8181,1.1588,1.144,0.8905
2555,1170,855,34.314,34.384,-0.0388,-0.0549,9.8307,0.2442,0.8184,-0.0331
2560,1181,861,34.366,34.349,-0.0287,-0.0311,9.803,-0.1721,-0.1657,0.5549
2565,1169,864,34.291,34.368,0.0291,-0.0982,9.815,-0.2277,-0.5973,0.1767
2570,1171,871,34.408,34.403,-0.0959,-0.0461,9.7729,-0.7154,-0.1115,-0.3266
2575,1171,876,34.372,34.378,0.039,0.1302,9.7811,-0.5474,0.1719,0.536
2580,1166,886,34.329,34.399,-0.0765,0.0207,9.8341,0.0035,-0.4419,-0.3095
2585,1169,887,34.357,34.478,-0.0258,-0.0244,9.8539,0.2065,-0.5018,-0.5173
2590,1160,887,34.369,34.301,-0.0126,0.0343,9.7677,-0.1388,0.6297,0.0844
2595,1162,889,34.294,34.372,-0.0248,0.0449,9.794,0.1283,-0.6045,-0.4334
2600,1148,896,34.448,34.392,0.053,0.0151,9.8222,-0.0387,-0.6728,0.3411
2605,1150,908,34.345,34.423,0.0754,0.0111,9.8256,-0.8494,0.4747,-0.2779
2610,1147,905,34.417,34.463,0.0374,0.1504,9.8928,0.0287,0.2307,-0.8572
2615,1136,908,34.296,34.443,-0.0095,0.0129,9.7798,-0.9579,-0.2522,-0.2979
2620,1135,913,34.413,34.457,-0.1012,-0.0145,9.7957,1.2021,-1.3748,-0.2588
2625,1141,917,34.35,34.43,0.0185,0.0652,9.8261,0.2042,0.8762,-0.9591
2630,1131,922,34.341,34.387,0.0194,-0.0136,9.8233,0.2178,0.2802,0.5139
2635,1134,916,34.314,34.37,0.0399,-0.0201,9.7643,-0.0409,0.0742,-0.0838
2640,1129,921,34.338,34.346,0.017,-0.0614,9.8879,-0.1592,0.2357,-0.2875
2645,1124,918,34.398,34.459,-0.0342,-0.0193,9.8377,0.0421,0.5536,-0.3942
2650,1121,921,34.411,34.465,-0.0115,-0.0039,9.8382,0.4527,-0.3073,0.9201
2655,1119,921,34.439,34.399,-0.0027,-0.0372,9.7463,0.4313,0.0362,0.3381
2660,1119,926,34.36,34.488,0.0682,-0.004,9.8668,0.0165,0.5066,0.4555
2665,1115,928,34.408,34.508,0.0988,0.0748,9.8194,0.0277,-0.4527,-0.1823
2670,1104,923,34.342,34.487,0.1326,-0.0653,9.788,0.034,-0.5191,0.3243
2675,1105,927,34.399,34.449,-0.0066,0.0739,9.7065,0.0542,0.1788,-0.8944
2680,1109,923,34.29,34.416,-0.0465,-0.0574,9.8128,-0.5853,0.5973,-0.3714
2685,1111,924,34.243,34.43,-0.0122,-0.0033,9.8502,0.0965,-0.127,0.0002
2690,1101,922,34.349,34.412,0.0261,-0.0451,9.855,0.1269,0.269,0.253
2695,1098,919,34.322,34.473,-0.0835,-0.0488,9.8416,-0.1946,0.0196,-0.0307
2700,1093,915,34.392,34.411,-0.0709,-0.0421,9.8392,0.3638,-0.4243,0.5794
2705,1094,914,34.329,34.373,0.0254,0.055,9.8265,0.2962,-0.0284,-0.2828
2710,1092,910,34.303,34.409,-0.0382,0.0919,9.7623,-0.4829,0.0514,-0.3861
2715,1089,910,34.358,34.482,0.0181,0.0286,9.8605,0.8777,0.1267,-0.0713
2720,1088,909,34.329,34.338,0.0087,0.0322,9.7817,0.5546,-0.3197,0.4689
2725,1093,904,34.326,34.419,-0.0314,0.1168,9.8269,0.104,0.1638,-0.2096
2730,1082,907,34.364,34.406,-0.0309,-0.0402,9.8391,-0.1348,0.508,1.0559
2735,1082,907,34.345,34.403,-0.0175,-0.0219,9.8478,0.6279,-0.3369,-0.5121
2740,1090,898,34.404,34.459,0.0015,0.021,9.8933,-0.4715,0.3241,-0.6722
2745,1077,896,34.424,34.378,-0.0641,0.1352,9.7712,0.0174,0.3463,-0.3434
2750,1066,899,34.326,34.416,0.0048,0.0218,9.7664,1.1431,0.7524,-1.0643
2755,1079,896,34.389,34.382,-0.0778,0.0158,9.8852,0.1969,1.1739,-0.2607
2760,1073,889,34.387,34.404,0.0019,-0.072,9.6771,-0.5212,0.4065,0.9036
2765,1067,894,34.328,34.364,-0.0273,-0.0334,9.9179,0.5662,0.8976,0.9218
2770,1069,890,34.264,34.415,0.0248,0.0605,9.8112,0.3942,0.7245,0.1082
2775,1056,888,34.42,34.43,0.0093,-0.0681,9.8096,0.2746,-0.9976,-0.1527
2780,1051,887,34.302,34.369,0.0727,0.0167,9.8178,-0.5414,0.2358,-0.4089
2785,1045,880,34.281,34.383,0.0187,0.0535,9.7967,0.5467,0.502,0.7801
2790,1052,882,34.273,34.372,-0.0051,0.0124,9.8676,0.1289,-1.4284,-0.4305
2795,1043,880,34.363,34.409,-0.1008,0.028,9.8035,-0.334,0.6294,0.3077
2800,1037,871,34.324,34.368,0.0082,-0.0271,9.8608,0.0954,0.7925,0.3006
2805,1030,876,34.316,34.409,-0.0208,0.0249,9.7536,0.0352,0.3371,0.0579
2810,1035,872,34.422,34.37,-0.0345,0.0117,9.8466,-0.2707,0.8842,-0.0313
2815,1028,869,34.396,34.379,-0.0044,0.0181,9.769,-0.2995,0.0461,0.1824
2820,1030,867,34.342,34.394,0.0061,-0.0295,9.7901,-1.1768,0.4815,-0.6125
2825,1010,866,34.348,34.385,-0.0083,0.0635,9.8332,0.6815,-0.0676,-0.2216
2830,1004,868,34.365,34.446,-0.0472,-0.0227,9.8223,-0.1272,-0.1097,-0.1689
2835,995,866,34.325,34.497,-0.0254,-0.0764,9.8368,0.2627,-1.3455,0.6338
2840,992,863,34.402,34.363,0.0095,-0.0313,9.8544,0.4149,0.4224,0.204
2845,996,859,34.298,34.473,0.0472,-0.0115,9.7802,0.0095,-0.5808,0.1102
2850,983,857,34.358,34.49,-0.0372,-0.0019,9.77,0.131,-0.0673,-0.3191
2855,970,856,34.389,34.444,0.0492,-0.0206,9.6757,0.9458,0.3708,0.8127
2860,956,851,34.329,34.398,0.0408,-0.0095,9.763,0.7813,0.0495,0.2367
2865,958,859,34.368,34.371,0.0225,0.0716,9.7373,0.4678,-0.8739,0.0869
2870,947,859,34.389,34.416,0.0643,0.0411,9.8488,-0.0882,-0.5859,0.8385
2875,932,851,34.404,34.407,-0.0343,-0.0081,9.7739,-0.1176,0.1653,0.3461
2880,933,848,34.318,34.399,-0.0255,0.0157,9.8742,-0.7056,0.088,-0.3158
2885,922,850,34.27,34.312,-0.0063,0.0146,9.7818,0.3449,-0.8177,0.5307
2890,912,853,34.373,34.365,0.0526,0.0911,9.8147,0.1356,-0.3658,-0.2287
2895,907,847,34.396,34.416,0.045,0.0002,9.7799,-0.6075,0.4582,-0.2595
2900,893,850,34.309,34.423,-0.0524,-0.02,9.8034,-0.2196,-0.782,-0.1494
2905,879,840,34.329,34.426,-0.0014,0.0242,9.7698,-0.768,0.5738,0.0625
2910,875,841,34.27,34.287,-0.007,-0.0663,9.8627,0.4364,-0.3492,-0.6403
2915,862,842,34.358,34.387,-0.0511,0.035,9.7976,-0.1723,-0.2379,-0.7318
2920,860,836,34.384,34.415,0.0456,-0.0201,9.8341,0.7313,-0.3634,0.0828
2925,847,839,34.352,34.341,0.0021,0.0452,9.818,-0.4306,-0.225,0.1853
2930,842,832,34.423,34.438,-0.0117,-0.0503,9.8147,-0.3107,-0.1202,-0.1331
2935,835,830,34.332,34.429,0.0316,0.0053,9.8191,0.6848,0.1744,-0.1619
2940,820,822,34.386,34.403,-0.0265,0.019,9.8073,0.7444,-0.3784,1.3145
2945,817,823,34.295,34.399,0.0006,0.0492,9.9362,0.2532,-0.8089,0.7624
2950,807,817,34.359,34.385,-0.0331,-0.0004,9.7434,-0.3699,0.258,-0.581
2955,810,815,34.372,34.401,-0.0343,0.0676,9.7899,-0.2485,-0.238,0.3876
2960,790,813,34.414,34.429,0.0454,0.0777,9.7987,0.5031,-0.4205,0.7395
2965,788,808,34.418,34.434,0.0296,0.0363,9.853,0.4302,-0.0418,0.2235
2970,784,804,34.328,34.41,0.0435,0.0364,9.7904,0.7071,0.3187,0.7124
2975,781,798,34.413,34.333,0.0421,0.0066,9.8562,0.2,0.2589,0.2956
2980,776,796,34.35,34.357,-0.0163,0.0794,9.7825,-0.1427,-0.5235,0.2127
2985,768,790,34.345,34.378,0.0108,0.0485,9.8633,0.6092,-0.1302,-0.1472
2990,764,785,34.34,34.382,0.0495,0.0293,9.8148,0.0464,0.9651,-0.4283
2995,756,775,34.312,34.371,0.0418,-0.0441,9.7466,-0.2669,-0.1328,-0.0388
3000,753,778,34.323,34.414,-0.0346,0.0774,9.8749,0.6494,0.6396,-0.3674
3005,744,769,34.417,34.415,0.0543,-0.0497,9.7669,-0.6084,1.088,0.4006
3010,747,764,34.338,34.352,0.0243,0.0202,9.8864,0.3653,0.3065,0.0817
3015,752,760,34.433,34.368,-0.016,0.009,9.7595,-1.1843,-1.2056,0.3962
3020,748,756,34.366,34.455,-0.0121,0.0204,9.7629,-0.7395,-0.4487,0.3792
3025,740,749,34.376,34.41,0.0562,-0.0587,9.8925,-0.1104,-0.8349,-0.3032
3030,748,740,34.373,34.422,0.0362,0.005,9.8471,0.4842,-0.1853,-1.3673
3035,737,741,34.302,34.387,-0.0177,0.0288,9.8305,-0.4639,-0.0125,0.4896
3040,744,733,34.395,34.423,-0.0024,-0.0332,9.9021,0.6421,-0.1634,0.0491
3045,751,724,34.343,34.32,0.0501,0.0395,9.8614,-0.3315,-0.6624,0.2421
3050,762,722,34.332,34.461,-0.0006,0.0121,9.8159,-0.2305,0.6813,0.1006
3055,765,712,34.396,34.405,0.0201,0.0077,9.8082,0.0571,0.5535,-0.0732
3060,765,706,34.277,34.473,-0.0549,-0.0663,9.808,0.5991,0.0525,0.3559
3065,779,703,34.375,34.335,-0.0136,-0.0043,9.9379,-0.1567,0.0416,0.1943
3070,781,701,34.393,34.447,-0.0022,0.0017,9.785,0.1438,-0.2132,-0.2268
3075,774,694,34.382,34.404,-0.0202,0.0736,9.8315,0.7509,0.5437,0.4047
3080,789,687,34.351,34.446,0.035,0.0072,9.86,-0.1398,-0.8554,0.4148
3085,807,676,34.34,34.458,-0.0587,-0.0367,9.7922,-0.0773,0.2559,-0.1897
3090,805,677,34.434,34.353,-0.0548,-0.0015,9.8017,0.6243,-0.1239,0.2982
3095,817,671,34.467,34.296,0.0334,-0.0394,9.8007,0.2453,-0.3458,0.2369
3100,813,666,34.389,34.43,-0.0527,-0.0786,9.7466,-0.5367,0.2719,1.0486
3105,830,659,34.414,34.371,-0.0358,-0.0358,9.7588,-0.4476,-0.1914,-0.2233
3110,838,656,34.396,34.343,0.0315,0.0208,9.8316,0.3706,-0.0287,-0.0135
3115,849,656,34.313,34.344,-0.0515,-0.0279,9.7653,0.5411,0.0164,0.5407
3120,862,649,34.297,34.401,-0.0527,-0.0465,9.7519,-0.2674,0.5909,-0.2792
3125,872,647,34.41,34.354,0.0832,0.0691,9.8508,-0.2568,-0.748,-0.513
3130,875,646,34.337,34.399,-0.0164,0.0971,9.8512,-0.1071,0.5612,-0.4418
3135,897,642,34.266,34.401,0.0412,-0.0016,9.8395,-0.7934,0.1254,0.244
3140,903,639,34.387,34.443,-0.0173,-0.0119,9.8518,0.276,-0.08,0.9814
3145,914,636,34.301,34.413,0.0397,0.0111,9.8931,-0.3582,0.1623,-0.0823
3150,933,632,34.341,34.497,0.0389,-0.0268,9.832,-0.2082,0.0879,0.2895
3155,949,631,34.342,34.42,0.0183,-0.083,9.8118,-0.6385,0.3749,-0.037
3160,955,632,34.417,34.423,0.0251,-0.1048,9.8151,-0.2234,-0.299,0.2288
3165,964,632,34.395,34.417,0.0049,-0.034,9.8817,-0.2238,0.3101,0.4358
3170,981,639,34.286,34.513,0.0442,-0.0564,9.8301,1.8422,-0.0961,-0.3728
3175,981,636,34.36,34.441,0.0207,-0.0587,9.8019,1.0208,0.0832,-0.1007
3180,1000,635,34.442,34.48,0.0076,0.0347,9.9664,-0.4887,0.7229,-0.9747
3185,1018,638,34.337,34.394,0.0392,-0.0194,9.8048,0.5575,0.1922,0.6088
3190,1019,636,34.366,34.361,0.0999,0.0594,9.8034,0.4467,-0.4447,-0.3046
3195,1044,648,34.315,34.358,-0.0695,0.0977,9.7367,0.9748,0.7788,0.3009
3200,1054,643,34.402,34.322,0.0632,0.0984,9.8161,0.0012,-0.0921,-0.4823
3205,1063,654,34.333,34.521,-0.0491,0.001,9.7351,-0.6063,0.2781,-0.1511
3210,1073,648,34.325,34.52,0.032,-0.0687,9.8682,0.5667,-0.4934,0.3896
3215,1080,652,34.236,34.384,-0.0731,0.0175,9.946,-0.4575,-1.0398,0.6729
3220,1086,666,34.241,34.432,0.0176,-0.0338,9.8058,-1.0032,-0.3411,-0.2277
3225,1098,662,34.306,34.418,0.0353,-0.0443,9.8645,-0.2346,-0.0649,0.4368
3230,1111,676,34.297,34.457,0.038,-0.0157,9.7749,-0.5434,-0.3938,-0.2142
3235,1115,680,34.362,34.366,-0.0805,0.0704,9.8048,-0.5115,-1.1399,-0.4973
3240,1124,685,34.368,34.379,-0.0198,-0.0299,9.8371,0.5439,0.1304,-0.3749
3245,1135,690,34.36,34.394,-0.0361,0.0212,9.7127,0.4129,-0.0493,0.1094
3250,1140,691,34.341,34.438,0.0931,0.0494,9.742,0.3252,0.2833,-0.5918
3255,1148,702,34.357,34.413,-0.0057,-0.0571,9.8124,0.2496,-0.1046,0.8469
3260,1156,709,34.381,34.424,0.0313,-0.0729,9.7995,-0.4418,-0.0525,-0.7479
3265,1155,714,34.373,34.357,0.0466,0.0148,9.7493,-0.4461,-0.5142,0.2623
3270,1169,728,34.516,34.44,0.0497,0.0525,9.8689,0.4768,0.5976,0.1816
3275,1177,729,34.376,34.416,-0.0205,-0.0883,9.8455,-0.4247,0.0327,-0.2308
3280,1175,739,34.407,34.438,-0.0073,0.0584,9.8408,0.1246,-0.8369,-0.0017
3285,1170,751,34.453,34.376,0.0067,0.0048,9.8064,0.2929,0.2363,-0.3972
3290,1183,751,34.239,34.438,-0.0715,0.0212,9.7876,-1.0437,0.9366,0.4599
3295,1187,763,34.397,34.43,-0.0423,0.0743,9.9017,-0.463,0.6281,-0.1579
3300,1187,771,34.385,34.479,0.0061,-0.0013,9.8134,-1.3655,0.1708,0.1764
3305,1180,780,34.341,34.435,-0.0245,0.1424,9.8017,-0.4425,0.3557,-0.4298
3310,1183,785,34.383,34.388,0.0245,0.041,9.7648,0.6839,0.0828,-0.4458
3315,1183,793,34.352,34.432,0.0339,-0.0318,9.8624,-0.2229,0.2557,0.299
3320,1186,798,34.404,34.439,0.0567,-0.0298,9.7652,-0.0047,-0.4793,0.3841
3325,1190,816,34.396,34.427,0.0445,0.0177,9.7425,0.1174,0.2757,0.6726
3330,1182,820,34.315,34.489,-0.0403,0.0558,9.8985,-0.2089,0.3326,-0.0195
3335,1194,829,34.31,34.387,0.0801,-0.023,9.8711,-0.1715,0.5424,-0.3204
3340,1192,834,34.411,34.362,0.0411,-0.057,9.9048,1.2524,-0.1375,-0.0321
3345,1180,835,34.33,34.352,-0.0975,0.015,9.7939,0.1551,-0.1578,0.3391
3350,1181,844,34.355,34.415,-0.0786,0.0533,9.8374,0.004,1.1084,-0.0121
3355,1176,859,34.349,34.409,-0.0493,-0.0575,9.8527,-0.2062,0.3324,-0.0021
3360,1186,853,34.363,34.431,-0.0017,-0.0252,9.841,-0.0894,0.4964,-0.1196
3365,1176,864,34.393,34.404,0.001,0.0111,9.8735,0.2859,0.478,-0.3202
3370,1176,868,34.355,34.352,0.0516,-0.0035,9.7544,0.6545,0.8083,-0.1695
3375,1170,883,34.415,34.485,0.0054,0.0341,9.8997,-0.5388,0.168,0.822
3380,1163,875,34.342,34.405,0.0555,0.0828,9.8869,0.1771,0.0626,-0.2563
3385,1166,886,34.419,34.375,-0.0558,-0.0521,9.8292,-0.7767,0.1591,0.3536
3390,1170,896,34.309,34.473,0.0711,0.1116,9.8214,0.7987,-0.3587,0.0871
3395,1159,893,34.406,34.431,0.0133,-0.0743,9.7632,-0.0826,0.5548,-0.3797
3400,1150,899,34.398,34.343,0.0293,-0.0546,9.8041,0.5305,0.4776,0.269
3405,1153,904,34.475,34.315,-0.0106,-0.1348,9.8978,-0.1192,-0.2892,0.59
3410,1153,909,34.384,34.381,0.0107,-0.0543,9.7553,-0.0578,0.043,-0.3502
3415,1149,915,34.465,34.325,-0.0361,0.0144,9.8402,0.3123,-0.2394,0.7888
3420,1143,914,34.296,34.44,0.0213,-0.0772,9.8265,-0.2785,-0.1871,-0.2062
3425,1140,919,34.395,34.409,0.0373,-0.0366,9.773,-0.736,0.1736,-0.0477
3430,1133,919,34.402,34.379,0.0113,0.0971,9.834,0.1594,-1.2884,0.5913
3435,1126,918,34.204,34.332,0.0013,-0.1061,9.7704,-0.0786,0.8378,-0.6613
3440,1123,918,34.382,34.47,0.0193,-0.0628,9.8617,0.5048,0.4678,0.708
3445,1126,920,34.417,34.417,-0.0282,0.0329,9.8536,0.2035,-0.2456,-0.4351
3450,1122,922,34.35,34.42,-0.0662,-0.0053,9.8369,-0.8363,-0.7501,-0.2271
3455,1121,917,34.338,34.365,-0.0485,-0.0182,9.7597,0.431,-0.9089,-0.1968
3460,1116,923,34.357,34.372,0.0045,-0.0436,9.9189,-0.5157,-0.5481,-0.6639
3465,1112,925,34.38,34.392,0.1027,-0.0402,9.702,-0.1138,-0.6098,-0.2789
3470,1112,921,34.34,34.399,0.0199,-0.0241,9.8737,0.4006,-0.0312,-0.3734
3475,1116,921,34.407,34.416,-0.0367,-0.0668,9.7561,-0.5132,-0.2905,0.0654
3480,1104,920,34.334,34.453,0.0171,-0.0705,9.7451,-0.532,0.4579,-0.1747
3485,1104,922,34.363,34.378,-0.0798,-0.0252,9.82,-0.5107,0.606,-0.0733
3490,1098,916,34.36,34.465,0.0007,0.0302,9.8294,-0.3325,0.5004,0.0298
3495,1111,917,34.416,34.474,0.1577,-0.0206,9.8678,0.0801,0.2027,-0.6757
3500,1096,914,34.333,34.454,-0.0158,-0.0105,9.7688,0.7943,-0.1319,0.6155
3505,1094,910,34.252,34.516,-0.0036,-0.074,9.8256,-0.0962,-0.3243,-0.217
3510,1091,912,34.345,34.525,0.0238,-0.0403,9.8625,-0.1609,0.0947,-0.1118
3515,1092,913,34.36,34.445,0.0367,-0.0422,9.7355,0.5818,-0.0264,0.818
3520,1093,907,34.318,34.405,0.0194,0.0932,9.8309,-0.1307,-0.2359,-0.5436
3525,1084,904,34.359,34.362,0.068,0.0805,9.8038,-0.5763,-0.3806,0.108
3530,1089,909,34.35,34.388,-0.0428,0.0817,9.7559,-0.4444,-0.7063,0.6235
3535,1082,903,34.388,34.31,-0.0417,-0.0338,9.7723,-0.4828,0.5341,0.0511
3540,1084,907,34.296,34.311,-0.0229,0.0302,9.8211,-0.8273,-0.3528,0.399
3545,1077,899,34.394,34.372,0.0118,0.0609,9.6933,-0.2027,0.0104,-0.3835
3550,1079,898,34.387,34.507,-0.0594,-0.0637,9.8056,-0.4347,-0.7547,-0.5085
3555,1081,896,34.225,34.501,-0.0378,-0.0001,9.9147,0.1234,0.364,-0.0355
3560,1071,895,34.375,34.31,-0.063,0.0128,9.8396,-0.517,0.3465,0.0183
3565,1076,893,34.319,34.427,-0.0021,0.0144,9.7538,0.3628,0.6551,0.0976
3570,1061,892,34.376,34.404,-0.0303,-0.0946,9.8208,0.2947,-1.0879,0.9496
3575,1062,879,34.337,34.345,-0.0208,-0.0019,9.8621,0.0409,-0.4005,-0.2889
3580,1060,883,34.462,34.406,0.0141,0.0152,9.7513,-0.081,0.1315,0.0422
3585,1050,881,34.366,34.35,0.0161,-0.0544,9.8519,0.1458,-0.203,-0.0513
3590,1047,878,34.395,34.456,0.0321,0.0353,9.8528,0.3608,0.0001,0.0207
3595,1048,882,34.405,34.396,0.0431,0.0613,9.8331,-0.5546,-0.7955,0.2033
3600,1039,872,34.374,34.369,0.0782,-0.0069,9.8053,-0.4908,0.1591,-0.1768
3605,1033,878,34.43,34.409,-0.0351,-0.021,9.8206,0.2816,0.0808,-0.0357
3610,1034,874,34.423,34.416,0.0088,-0.0237,9.8439,0.261,-0.5615,0.3177
3615,1032,873,34.382,34.318,-0.0123,0.0105,9.8802,-0.3406,0.4723,0.4826
3620,1011,871,34.247,34.366,0.0167,0.0696,9.7815,-0.4638,1.0459,0.3221
3625,1017,869,34.43,34.441,0.0464,-0.048,9.8232,0.2674,-0.3625,-0.3312
3630,1008,862,34.399,34.454,-0.0077,0.0502,9.9018,-0.1334,-0.2691,0.7208
3635,998,860,34.308,34.373,0.0783,-0.0259,9.7512,-0.0531,1.1103,1.1459
3640,999,861,34.471,34.44,0.0549,0.0856,9.8206,0.8398,-0.0415,0.133
3645,982,865,34.412,34.417,0.0335,-0.0266,9.8673,-0.6405,-0.0918,-0.1535
3650,978,860,34.303,34.374,-0.0369,-0.0557,9.8067,0.0326,-0.4677,-0.6842
3655,963,859,34.44,34.48,0.0822,0.003,9.8418,-0.352,0.1097,0.0173
3660,957,854,34.393,34.519,-0.0259,0.0108,9.8354,0.2843,-0.9468,-0.4142
3665,953,855,34.415,34.306,0.0286,-0.0055,9.7443,0.6853,0.0035,-0.3469
3670,943,860,34.381,34.411,-0.1282,0.0259,9.8821,-1.0258,0.0556,-0.0244
3675,937,857,34.291,34.371,0.0813,-0.0807,9.8517,0.0742,-0.7204,-0.3926
3680,936,852,34.394,34.484,-0.0449,-0.0275,9.8135,0.3913,0.243,0.2646
3685,920,849,34.389,34.433,-0.0143,0.01,9.7948,0.1468,0.3293,-0.7131
3690,914,847,34.388,34.395,-0.0724,-0.0533,9.8367,0.2899,-0.1697,0.4056
3695,903,844,34.367,34.411,0.0226,-0.0418,9.7717,-0.4763,0.2592,-0.1396
3700,886,840,34.415,34.378,-0.0629,0.0279,9.7749,0.3502,0.5287,0.4496
3705,890,848,34.241,34.462,0.0327,-0.0589,9.8373,-0.6362,0.2729,0.1403
3710,871,849,34.366,34.513,-0.0379,0.0547,9.8096,0.1715,0.3397,-0.5638
3715,871,838,34.447,34.399,0.0363,-0.086,9.6725,-0.1036,0.779,-0.0665
3720,868,839,34.365,34.42,0.0999,-0.0788,9.7998,1.105,0.1064,0.0206
3725,849,834,34.403,34.344,0.055,-0.0227,9.8979,0.317,-0.7287,-0.2166
3730,841,830,34.425,34.412,0.0668,0.0181,9.7994,0.8657,-0.1948,0.0861
3735,835,832,34.441,34.399,-0.0245,0.0471,9.7729,-0.3805,0.629,-0.4493
3740,830,824,34.347,34.409,-0.0198,0.004,9.8683,-0.3506,-0.2816,-0.3859
3745,810,829,34.434,34.422,-0.0052,-0.0238,9.8161,0.3237,-0.3003,0.2524
3750,810,822,34.472,34.384,-0.0185,-0.0164,9.8223,-0.9103,-0.4177,0.2601
3755,805,817,34.329,34.42,-0.0084,0.0199,9.8563,-0.215,0.3892,0.2719
3760,785,810,34.388,34.352,0.0693,-0.0132,9.8787,-1.192,0.8393,-0.1202
3765,790,813,34.387,34.402,0.0468,-0.0944,9.8388,-0.6859,-0.8446,1.2509
3770,774,801,34.375,34.323,0.025,0.0637,9.795,0.4585,-0.1818,0.2437
3775,764,801,34.376,34.407,0.0178,-0.0683,9.839,0.5267,0.4007,-0.0085
3780,771,796,34.346,34.484,-0.0136,-0.0189,9.7421,0.2441,-0.7655,0.4607
3785,771,786,34.335,34.413,-0.0261,0.016,9.9138,-0.8555,0.1646,-0.4629
3790,758,793,34.271,34.365,0.0214,0.0199,9.8549,-0.8588,-0.3921,-0.7757
3795,753,785,34.41,34.387,-0.0431,0.0178,9.7356,-0.3812,0.2158,-0.0012
3800,749,770,34.424,34.446,-0.0664,0.0223,9.8733,-0.8026,0.1524,-0.0857
3805,754,768,34.373,34.434,-0.0689,0.0211,9.8175,1.0233,0.4931,0.7859
3810,746,763,34.332,34.421,0.0421,-0.0003,9.7848,-0.7341,0.4185,-0.5112
3815,745,748,34.262,34.462,-0.0148,0.0489,9.7897,-0.4021,0.6754,0.7425
3820,746,755,34.319,34.396,-0.0264,-0.0415,9.8428,0.3216,-0.0446,0.1863
3825,738,750,34.324,34.489,0.0696,-0.0629,9.8694,0.6061,0.0159,0.5408
3830,749,742,34.33,34.358,-0.0018,0.0237,9.9024,-0.2865,-0.1567,-0.9995
3835,747,737,34.336,34.338,-0.0605,-0.0576,9.8684,0.2656,-0.092,-0.3009
3840,754,732,34.354,34.399,0.0328,-0.008,9.8241,0.7835,-0.7417,-0.0811
3845,755,722,34.443,34.393,0.0887,-0.1044,9.785,0.2155,0.2644,-0.5191
3850,754,717,34.471,34.524,0.0059,0.0589,9.8537,0.7646,0.6492,-0.3469
3855,759,709,34.454,34.457,0.0313,-0.0512,9.8377,-0.1238,-0.1405,0.2649
3860,756,705,34.358,34.454,-0.0479,0.0374,9.7519,-0.598,-0.535,-0.0252
3865,773,704,34.344,34.422,-0.0545,-0.0031,9.8241,0.1402,-0.2057,1.0097
3870,770,689,34.449,34.346,0.0431,-0.0206,9.8311,-0.2413,-0.0479,0.2098
3875,779,689,34.327,34.439,0.0707,0.0264,9.7832,0.092,-0.1719,-0.8306
3880,797,687,34.378,34.436,0.0002,0.0485,9.8568,-0.2655,-0.4718,0.58
3885,797,681,34.342,34.36,0.0066,0.0721,9.797,0.1021,0.2257,-0.2735
3890,804,673,34.376,34.414,0.0342,0.0334,9.8386,-0.13,0.7017,-0.1906
3895,810,672,34.412,34.403,-0.103,0.0541,9.8548,0.1822,0.2002,0.1902
3900,817,665,34.304,34.435,-0.0407,0.0337,9.9121,0.2773,0.4003,1.4711
3905,822,662,34.393,34.511,0.0985,0.002,9.8548,-0.0165,0.3932,-0.051
3910,841,658,34.335,34.385,0.0192,-0.0064,9.8405,-0.9166,-0.6441,-0.3371
3915,848,655,34.465,34.468,-0.0945,-0.0234,9.7711,0.1428,0.5164,-0.2755
3920,865,644,34.367,34.471,0.0762,-0.0006,9.8269,0.3884,-0.8053,0.6278
3925,866,646,34.354,34.463,0.0,-0.001,9.7988,0.1254,-0.1124,-0.5157
3930,887,645,34.387,34.481,-0.0271,0.048,9.7644,0.3426,-0.3091,-0.7683
3935,892,640,34.362,34.35,0.0156,-0.0681,9.7443,0.0449,-0.5694,-0.001
3940,913,633,34.289,34.462,-0.0032,0.0214,9.7407,-0.4159,-0.4891,-0.5484
3945,913,635,34.381,34.375,0.0234,-0.0187,9.7591,0.4422,0.4358,1.1971
3950,929,640,34.258,34.483,-0.0204,-0.053,9.804,-0.4287,-0.3809,-0.4832
3955,941,634,34.394,34.41,-0.079,-0.0759,9.8017,-0.361,0.6451,0.2607
3960,960,634,34.336,34.396,0.0259,-0.0002,9.8367,-0.0366,-0.0785,-0.1339
3965,972,637,34.351,34.399,0.004,0.0074,9.8184,0.8727,0.6402,0.5888
3970,975,635,34.285,34.386,-0.0632,-0.031,9.8297,-0.362,-0.5611,0.9456
3975,983,632,34.332,34.396,0.0165,0.026,9.7651,-0.1556,-0.0645,0.742
3980,1002,637,34.308,34.372,-0.0314,-0.0099,9.7846,0.2722,-0.0512,-0.1178
3985,1020,647,34.348,34.334,0.0358,0.0114,9.8187,-0.3314,0.4737,0.0489
3990,1028,641,34.31,34.329,0.0396,0.1046,9.9014,0.3133,0.1561,0.6119
3995,1041,645,34.391,34.378,-0.0239,-0.0016,9.7947,-0.1182,-0.3298,0.0831
4000,1046,644,34.297,34.364,0.0757,-0.0358,9.7636,0.3847,0.9899,0.8939
4005,1066,649,34.316,34.485,-0.0094,0.0431,9.8311,-0.3219,0.4097,-0.3663
4010,1068,653,34.372,34.412,0.0206,-0.0143,9.9062,0.0757,-0.0662,-0.2339
4014,1080,655,34.422,34.414,0.0197,-0.0413,9.7092,0.1045,-0.459,0.89
4019,1090,664,34.377,34.368,-0.0532,-0.0091,9.8285,1.4116,-0.547,-0.6278
4025,1106,665,34.378,34.377,0.0355,0.0232,9.8168,-0.3209,-0.2875,-0.6506
4030,1116,674,34.365,34.376,-0.0055,-0.0257,9.7867,0.1835,-0.1741,-0.2574
4035,1120,682,34.303,34.437,0.0335,0.0097,9.7799,1.3767,-0.2747,-0.4186
4040,1129,687,34.376,34.393,-0.1168,0.1004,9.7194,0.8623,0.4165,-0.253
4045,1139,695,34.426,34.353,0.0427,0.027,9.7924,-0.411,-0.1569,0.5424
4050,1142,702,34.33,34.349,-0.0256,-0.0329,9.7818,0.1249,-0.6384,1.0213
4054,1149,706,34.372,34.456,-0.0104,0.0143,9.8732,0.2652,0.062,1.0879
4059,1146,708,34.306,34.419,0.0546,-0.0129,9.8374,0.0493,0.1179,0.4649
4065,1158,717,34.366,34.448,-0.0167,-0.0896,9.7938,-0.9978,0.9702,0.5691
4070,1161,732,34.391,34.415,-0.0058,0.029,9.8185,-0.6176,-0.1959,0.2829
4075,1175,736,34.287,34.405,0.0028,-0.0301,9.7877,0.5529,0.5887,0.5777
4080,1170,743,34.333,34.383,0.0157,-0.0005,9.7359,-0.1946,-0.1595,-0.1473
4085,1174,745,34.397,34.404,0.1512,0.0366,9.8465,-0.3764,-1.1212,0.2564
4090,1186,756,34.36,34.432,0.0116,0.1301,9.7937,0.2499,0.4576,0.7691
4094,1179,765,34.417,34.483,-0.0822,-0.085,9.8126,0.6603,0.3271,-0.7432
4100,1187,767,34.379,34.358,0.0477,-0.0377,9.9075,0.4224,0.5891,0.0048
4105,1187,781,34.405,34.427,-0.0051,-0.0662,9.8837,-0.1332,0.4239,0.1856
4110,1185,781,34.303,34.452,0.0776,0.0394,9.8161,0.2413,-0.4025,-0.1865
4115,1198,799,34.338,34.503,-0.0006,0.0767,9.8304,-0.7021,0.4483,-0.6252
4120,1179,804,34.435,34.377,0.0452,-0.0676,9.8135,1.1461,-0.4372,0.4714
4125,1177,808,34.369,34.348,0.058,0.0413,9.8116,-0.1527,0.2292,0.4336
4130,1185,822,34.425,34.407,0.0589,0.0108,9.7984,-0.0049,-0.6231,0.5277
4135,1187,823,34.396,34.506,-0.0944,0.048,9.7754,0.0002,-0.3448,0.0055
4140,1181,834,34.363,34.409,0.0049,-0.0111,9.7589,-0.2131,0.614,-0.1147
4145,1177,838,34.398,34.475,-0.0574,-0.0305,9.7965,-0.1666,0.1794,0.8664
4150,1189,846,34.416,34.524,-0.0648,-0.03,9.8674,-0.0868,0.0585,-0.3238
4155,1180,854,34.319,34.407,-0.0032,-0.0889,9.7922,-0.4326,0.3121,-0.1105
4160,1176,863,34.359,34.489,0.0479,0.0161,9.708,-1.1347,-0.7,-0.6835
4165,1188,863,34.421,34.349,-0.0998,-0.0317,9.7946,-0.4478,-0.225,0.4341
4170,1169,866,34.296,34.409,-0.0415,-0.0556,9.682,-0.77,-0.0639,0.4542
4175,1174,880,34.416,34.388,0.0017,-0.0972,9.8194,0.3232,0.0208,0.0722
4180,1159,882,34.273,34.421,0.057,-0.0776,9.8224,0.122,-0.2203,0.0696
4185,1163,887,34.322,34.461,-0.0571,0.0914,9.8971,-0.3967,-0.0417,-0.1994
4190,1158,894,34.354,34.414,0.0309,0.0205,9.875,0.1174,0.3465,-0.3818
4195,1158,896,34.35,34.477,0.0343,-0.0509,9.7441,-0.2776,-0.2118,0.6748
4200,1150,902,34.404,34.465,-0.0069,-0.0043,9.8587,0.5461,0.0206,-0.0401
4205,1145,907,34.383,34.461,0.0191,0.0381,9.7774,-0.6342,0.0672,0.645
4210,1155,905,34.351,34.476,0.0128,-0.0584,9.8099,-0.9302,-0.5065,-0.7231
4215,1146,908,34.33,34.385,0.0521,-0.0338,9.8679,-0.5509,-0.2236,0.667
4220,1149,915,34.282,34.379,-0.0676,-0.0217,9.7865,0.6661,0.0964,-0.1843
4225,1134,916,34.282,34.409,0.0395,-0.0383,9.8789,0.0316,-0.1175,-0.4522
4230,1132,915,34.356,34.367,-0.0172,0.0476,9.8296,-0.1488,0.6303,0.186
4235,1126,919,34.357,34.366,0.1053,0.02,9.7742,-0.8824,0.617,0.0347
4240,1133,918,34.397,34.439,0.0207,0.0194,9.8064,0.4184,0.1871,-0.3363
4245,1126,926,34.365,34.317,0.0998,-0.0099,9.8767,1.1332,0.2439,-0.8345
4250,1120,916,34.358,34.314,-0.0602,-0.0195,9.8089,0.8564,0.5668,-1.0041
4255,1120,927,34.341,34.41,-0.0021,0.0353,9.7396,0.4805,-0.4003,-0.6675
4260,1113,922,34.348,34.396,0.042,-0.1139,9.6865,0.7306,-0.8637,-0.4103
4265,1108,927,34.461,34.579,0.0588,-0.0303,9.8221,0.6746,0.1421,0.6782
4270,1111,923,34.329,34.371,0.125,-0.0209,9.8901,-0.4289,0.1348,0.5224
4275,1119,921,34.404,34.51,-0.0225,0.0055,9.8272,-0.1841,0.1681,0.0076
4280,1100,920,34.411,34.281,0.1049,0.0764,9.7339,-0.3278,-0.9307,-0.7019
4285,1116,917,34.402,34.515,0.0595,0.0029,9.8267,1.3825,-0.6458,-0.0899
4290,1099,921,34.374,34.393,-0.028,0.062,9.8363,-0.3161,0.1721,-0.3443
4295,1092,915,34.415,34.433,0.0418,0.0579,9.8606,0.1428,-0.273,0.4536
4300,1097,919,34.337,34.485,0.0327,0.0073,9.8626,-0.7699,0.2521,-0.1354
4305,1100,912,34.339,34.407,0.032,-0.0015,9.8462,0.253,0.9327,-0.2232
4310,1092,915,34.372,34.48,-0.073,0.0006,9.7985,-0.6717,-0.818,-0.2562
4315,1093,912,34.419,34.326,-0.0127,0.0446,9.7496,-0.224,-0.3235,-1.2532
4320,1089,907,34.348,34.477,-0.0034,0.0571,9.8149,0.3664,0.3162,-0.6606
4325,1086,908,34.335,34.434,0.0393,-0.0804,9.722,-0.3334,0.2001,0.1994
4330,1084,905,34.361,34.384,0.0239,0.0677,9.8203,-0.1138,0.2997,-0.3398
4335,1083,903,34.408,34.372,-0.0752,-0.1146,9.7893,0.6411,0.5487,-0.9579
4340,1079,899,34.426,34.448,-0.0293,0.0554,9.8282,0.3507,-0.3295,-0.2164
4345,1071,904,34.337,34.453,0.0017,0.0231,9.8153,0.2675,-0.3574,-0.7653
4350,1078,897,34.37,34.467,0.0281,-0.0164,9.8273,-0.4402,0.6141,-0.3166
4355,1079,892,34.415,34.415,-0.0013,0.0143,9.8703,0.0108,0.1379,-0.5672
4360,1065,892,34.248,34.395,-0.0198,0.056,9.8126,0.2343,-0.4437,-0.218
4365,1065,889,34.299,34.444,-0.0817,0.0408,9.8834,-0.0049,-0.9806,0.392
4370,1068,889,34.431,34.433,0.0303,0.0311,9.8912,0.3732,-0.2629,1.2627
4375,1068,884,34.342,34.436,0.0478,-0.002,9.8936,0.1979,-0.1128,-0.2274
4380,1063,882,34.371,34.377,-0.0249,-0.0312,9.8264,-0.5034,-0.0379,0.288
4385,1051,876,34.385,34.403,0.0155,-0.0248,9.8101,-0.0786,0.1344,0.7938
4390,1047,876,34.324,34.387,-0.0625,-0.0528,9.78,1.3789,0.6929,-0.8545
4395,1055,876,34.428,34.408,-0.0203,-0.0607,9.7789,0.389,-0.2507,-0.3442
4400,1050,872,34.398,34.434,-0.0765,-0.0285,9.8086,0.0696,-0.2065,0.2188
4405,1040,878,34.477,34.414,0.0812,0.0418,9.8601,0.1539,0.3869,0.3311
4410,1028,869,34.36,34.357,-0.0599,-0.0738,9.8118,0.5173,-0.1598,-1.0098
4415,1012,870,34.427,34.516,-0.0225,0.0399,9.8443,-0.6918,-0.1952,-0.0088
4420,1014,871,34.313,34.394,-0.1057,0.0102,9.8319,-0.2595,0.2159,0.7696
4425,1012,865,34.288,34.348,-0.0045,0.0437,9.7196,0.3826,-0.471,0.0646
4430,1000,864,34.406,34.443,-0.0402,0.0406,9.7803,-0.1262,-0.0621,-0.4137
4435,1003,866,34.362,34.381,-0.0563,0.0261,9.782,0.3839,-0.3468,-0.4997
4440,991,864,34.437,34.429,-0.0315,-0.0297,9.7989,0.7727,-0.4261,-0.7485
4445,977,864,34.333,34.433,-0.0479,0.0216,9.8274,0.4956,-0.4372,-0.0251
4450,979,859,34.377,34.434,-0.0106,-0.0291,9.753,-0.8851,0.0362,0.1026
4455,974,863,34.322,34.447,-0.1019,-0.0809,9.8226,-0.5121,1.2072,-0.1651
4460,960,860,34.425,34.417,-0.0776,-0.0186,9.8305,0.9615,0.8372,0.7039
4465,959,856,34.371,34.339,0.0157,0.0019,9.9219,0.2038,0.6573,0.2862
4470,947,858,34.326,34.4,0.0276,0.06,9.7942,0.2657,0.0948,-0.1103
4475,938,851,34.356,34.437,-0.0357,0.0147,9.8547,-0.1587,-0.1436,-0.3764
4480,927,853,34.471,34.454,0.0023,-0.0249,9.8016,0.035,1.0502,0.0063
4485,923,849,34.298,34.359,0.0089,0.1077,9.9157,-0.6885,-0.2603,0.5036
4490,913,853,34.395,34.431,-0.0517,-0.018,9.8528,-0.0237,0.4222,-0.2841
4495,907,845,34.411,34.374,-0.0369,0.0334,9.799,0.1691,0.9191,0.3032
4500,885,850,34.429,34.52,-0.0032,-0.0299,9.7835,-1.2074,-0.7304,0.2762
4505,882,842,34.398,34.354,0.0447,0.0901,9.7935,-0.9119,-0.4017,-0.8123
4510,870,841,34.399,34.453,0.0719,0.078,9.822,-0.8243,0.37,-0.1134
4515,870,838,34.401,34.497,-0.0419,0.0589,9.745,-0.431,0.7298,-0.3159
4520,864,837,34.319,34.432,-0.0107,-0.0357,9.9213,0.4984,-0.3183,-0.7061
4525,859,832,34.336,34.38,-0.0823,-0.0338,9.8023,-0.5843,-0.1846,0.4405
4530,844,830,34.441,34.403,-0.0014,-0.0021,9.8525,-0.0347,0.499,0.2813
4535,838,831,34.334,34.397,-0.0309,-0.0011,9.7503,0.7059,-0.0604,-0.1157
4540,821,820,34.402,34.472,-0.0906,-0.0674,9.7802,-0.5222,1.5518,0.2257
4545,815,819,34.5,34.404,0.0126,-0.0712,9.8524,0.4993,0.0549,-0.0637
4550,804,819,34.406,34.394,0.0191,0.003,9.7895,0.6667,-0.977,-0.6105
4555,800,814,34.351,34.356,0.0666,0.003,9.7743,0.0735,0.4635,-0.8588
4560,800,809,34.417,34.418,-0.0314,0.0042,9.7856,0.8215,0.7085,0.1981
4565,795,804,34.293,34.427,0.027,0.027,9.752,-0.2795,0.0739,0.379
4570,777,807,34.238,34.38,0.0259,0.1057,9.8833,1.0723,-0.0626,-0.1557
4575,780,802,34.437,34.49,0.0463,-0.0554,9.8079,0.4026,-0.3627,-0.1281
4580,776,799,34.297,34.425,-0.0547,-0.0156,9.8915,0.4874,-0.3236,0.1919
4585,761,797,34.329,34.397,0.0119,-0.0062,9.8459,-0.1867,-0.3491,0.234
4590,764,782,34.471,34.371,0.0889,0.0402,9.8414,0.3389,-0.8245,-0.5762
4595,757,780,34.467,34.437,0.0733,-0.031,9.7616,0.0653,0.6279,0.579
4600,750,778,34.366,34.386,-0.0595,0.0201,9.8674,0.0342,-0.5015,-0.7851
4605,750,766,34.33,34.503,0.0209,0.0397,9.8896,0.2023,0.0856,0.1123
4610,740,764,34.376,34.441,0.0143,0.0038,9.8169,-0.4091,-0.4058,-0.2576
4615,749,754,34.407,34.446,0.0331,0.0941,9.8598,-0.5527,0.0976,-0.045
4620,752,752,34.421,34.445,-0.0838,0.0058,9.8379,-0.1244,0.8469,0.5265
4625,751,744,34.387,34.464,-0.0116,0.0421,9.8064,-0.8364,0.1944,-0.0789
4630,744,745,34.351,34.336,0.0292,0.0641,9.7941,-0.0292,-0.1438,-0.3502
4635,750,730,34.391,34.495,0.0089,-0.0177,9.8356,-0.4594,0.0302,-0.2105
4640,756,728,34.226,34.492,0.0315,0.0058,9.775,-0.6745,-0.227,-0.5629
4645,758,723,34.388,34.412,-0.001,0.0601,9.8255,-1.1409,-0.3607,-0.3194
4650,757,721,34.319,34.45,-0.0523,0.1374,9.8118,-0.1438,-0.4634,-0.3588
4655,761,715,34.428,34.254,0.0028,0.0965,9.7421,0.6561,-0.0461,-0.7324
4660,765,704,34.32,34.392,0.0173,-0.0873,9.9001,0.5394,0.7943,-0.4571
4665,769,699,34.388,34.472,0.044,-0.0071,9.8717,-0.9151,0.3379,0.1712
4670,777,690,34.383,34.415,-0.046,-0.0515,9.7829,-0.488,-0.3897,-0.0737
4675,783,688,34.323,34.438,-0.0153,-0.0568,9.7701,0.2222,0.0004,1.2414
4680,792,686,34.38,34.399,0.0056,-0.0097,9.8243,0.5539,-0.2036,0.0086
4685,797,679,34.404,34.499,-0.0161,-0.0118,9.9709,0.5001,0.4627,-0.9686
4690,810,673,34.329,34.391,-0.0063,-0.0911,9.8427,-0.454,0.1005,-0.1192
4695,811,667,34.403,34.391,-0.0408,0.012,9.7836,-0.1717,-0.0728,0.2765
4700,817,668,34.419,34.433,-0.0652,-0.0524,9.7778,0.2261,-0.4531,-0.9747
4705,825,661,34.36,34.406,0.0236,0.036,9.7779,-0.0912,0.0551,0.3639
4710,841,650,34.356,34.459,-0.0479,-0.064,9.7599,-0.8462,-0.824,-0.1866
4715,848,651,34.284,34.468,0.0122,-0.0003,9.8482,0.0728,-0.1047,-0.0051
4720,867,650,34.368,34.351,-0.0218,0.1262,9.7753,0.3074,0.1258,-0.1789
4725,884,646,34.384,34.316,0.0574,-0.0847,9.791,0.9472,0.3247,-0.1577
4730,890,646,34.312,34.445,0.0596,0.0424,9.8222,0.8836,-0.144,-0.3285
4735,893,638,34.388,34.396,0.0067,0.0289,9.7502,-0.4503,-0.0142,-0.0782
4740,914,640,34.383,34.368,0.058,-0.0067,9.7702,-0.567,-0.3611,-0.8739
4745,923,638,34.333,34.341,-0.0958,-0.0787,9.8202,-0.4114,0.0277,0.7091
4750,935,640,34.374,34.42,-0.0464,-0.0576,9.89,-0.13,-0.208,0.0512
4755,941,641,34.325,34.416,0.0005,-0.0209,9.8322,-0.2434,-0.7257,-0.2301
4760,950,633,34.41,34.492,-0.0935,0.0346,9.7987,-1.2662,0.315,0.5624
4765,971,636,34.318,34.493,0.0608,-0.0361,9.6968,0.3397,-0.3835,-0.3895
4770,983,635,34.36,34.52,0.0077,0.0346,9.8696,-0.2412,0.0125,-0.8932
4775,1001,634,34.344,34.429,0.0675,0.0204,9.7753,-0.5553,-0.3307,-0.4748
4780,1005,636,34.35,34.409,-0.0331,-0.002,9.7067,-0.4833,-0.4008,0.8676
4785,1012,636,34.448,34.409,-0.003,0.037,9.8021,-0.2512,0.7039,-0.4008
4790,1022,640,34.371,34.482,-0.089,0.0026,9.7886,1.2701,0.2448,-0.1292
4795,1041,643,34.33,34.465,0.0954,0.0768,9.801,-0.3528,-0.3476,0.6458
4800,1054,647,34.385,34.362,-0.0567,-0.0816,9.8924,0.0302,-0.8237,1.0266
4805,1058,650,34.315,34.399,-0.036,0.1382,9.8182,0.5098,0.5492,-0.2686
4810,1068,653,34.429,34.482,-0.015,0.0203,9.8143,0.1768,0.3926,0.1428
4815,1078,661,34.406,34.414,-0.0132,0.0034,9.8202,-0.8459,-0.3537,0.0955
4820,1088,666,34.372,34.376,-0.0537,0.0322,9.8671,-0.0872,0.3667,0.538
4825,1096,670,34.4,34.491,-0.041,-0.0026,9.8441,1.1592,0.6966,-0.0197
4830,1111,671,34.371,34.342,-0.0161,-0.0077,9.8489,-0.0947,0.4344,0.298
4835,1116,678,34.344,34.487,-0.0329,-0.011,9.8601,-0.0906,-0.447,0.1095
4840,1131,681,34.362,34.432,-0.0001,0.0483,9.8168,-0.2383,0.64,0.2443
4845,1131,694,34.415,34.466,0.0542,0.0079,9.7833,0.3213,0.1294,0.116
4850,1138,693,34.388,34.408,0.1149,0.0259,9.8851,0.1388,-0.2534,-0.4074
4855,1139,704,34.253,34.376,-0.0168,-0.0232,9.8245,-0.1194,-0.012,-0.132
4860,1155,717,34.391,34.357,0.0189,0.0762,9.8238,-0.5312,0.7292,-0.0829
4865,1157,716,34.427,34.526,-0.0635,0.0094,9.8721,-0.4682,0.7021,0.4272
4870,1167,719,34.221,34.393,0.0266,0.0053,9.785,0.0474,-0.8695,0.5345
4875,1163,730,34.383,34.513,-0.0733,-0.0678,9.8003,0.0443,0.2484,-0.3903
4880,1173,744,34.403,34.461,0.0107,-0.021,9.8455,1.147,0.1266,-0.2555
4885,1180,754,34.335,34.501,0.0926,-0.0704,9.83,-0.0056,-1.156,0.4484
4890,1185,758,34.31,34.464,-0.0403,-0.0203,9.7599,0.1853,0.1023,-0.2699
4895,1179,766,34.385,34.479,-0.0125,-0.0449,9.8262,-0.2956,0.1374,-0.477
4900,1190,773,34.443,34.432,0.0399,0.0471,9.796,-0.9554,0.6708,0.2997
4905,1185,783,34.398,34.323,-0.0162,0.008,9.7833,0.6564,-0.7349,0.3066
4910,1182,787,34.419,34.375,0.0011,0.0888,9.846,0.0752,-0.5967,-0.021
4915,1188,794,34.397,34.473,-0.0394,0.0243,9.9137,-0.3586,-0.7538,0.7037
4920,1185,806,34.374,34.39,0.0086,-0.0486,9.8456,0.299,0.5413,-0.1381
4925,1191,814,34.461,34.472,-0.0185,-0.0085,9.7976,-0.4243,1.255,0.6554
4930,1184,815,34.476,34.401,0.0701,0.0271,9.783,-0.8538,0.0117,0.8317
4935,1185,823,34.293,34.38,-0.0542,-0.0537,9.8906,0.4366,0.1617,-0.9444
4940,1188,834,34.368,34.522,-0.0128,0.052,9.8343,0.634,0.3096,-0.3816
4945,1180,843,34.347,34.423,-0.0513,-0.0417,9.8746,-0.3339,-0.409,-0.9446
4950,1178,850,34.331,34.392,0.0436,-0.0839,9.7992,-0.3201,-0.0806,0.1204
4955,1178,853,34.384,34.461,-0.0108,0.0296,9.8147,0.7816,-0.9105,-0.492
4960,1166,858,34.423,34.415,0.0565,-0.1055,9.829,-0.5676,0.5337,-0.7046
4965,1178,869,34.476,34.346,-0.0602,-0.009,9.8441,-1.0776,-0.2929,-0.5567
4970,1176,874,34.371,34.415,0.0179,-0.0411,9.8406,0.1024,-0.7527,0.1984
4975,1171,878,34.409,34.458,0.0356,0.0093,9.8115,-0.1344,0.1165,0.2889
4980,1166,878,34.452,34.439,0.0035,-0.062,9.8143,-0.5128,-0.1874,0.068
4985,1162,893,34.297,34.444,-0.0084,-0.0242,9.7584,1.0934,-0.1801,-0.3555
4990,1161,892,34.461,34.339,0.071,0.0353,9.74,1.1894,-0.3497,-0.4684
4995,1157,897,34.345,34.492,-0.0391,-0.0057,9.7452,-0.6787,0.0095,-0.2684
5000,1144,904,34.408,34.43,-0.0063,0.0201,9.8083,-0.076,-0.0516,-0.2827
5005,1152,902,34.413,34.362,-0.0432,-0.0831,9.743,-0.2121,-0.5018,-0.5646
5010,1156,908,34.411,34.521,0.0606,0.0329,9.7987,-0.0155,0.3596,-0.5272
5015,1144,909,34.316,34.417,-0.0166,0.0284,9.7903,-0.2628,0.6398,0.6054
5020,1139,914,34.316,34.454,-0.0031,-0.0023,9.8001,-0.6958,0.5145,0.0198
5025,1136,912,34.418,34.435,-0.0083,-0.0356,9.8233,-1.0143,-0.1387,0.5825
5030,1133,919,34.403,34.4,0.0787,-0.0259,9.8097,-0.7312,-0.4083,0.3924
5035,1123,920,34.475,34.328,0.0376,-0.0162,9.8216,0.27,-0.0007,0.6112
5040,1123,920,34.294,34.375,0.0447,0.0669,9.8862,0.0923,-0.107,0.7985
5045,1127,922,34.368,34.449,-0.0403,-0.0074,9.7926,-0.2089,-0.0667,0.4967
5050,1127,919,34.452,34.377,-0.0406,0.0133,9.8251,0.5187,-1.4071,0.4524
5055,1118,919,34.372,34.454,-0.046,-0.0937,9.9164,-0.7161,0.0732,-0.1789
5060,1113,926,34.445,34.499,-0.0862,-0.0058,9.8683,0.7036,-0.4663,-0.0482
5065,1115,926,34.361,34.458,-0.0714,0.0076,9.8489,0.8715,0.7236,-0.217
5070,1111,918,34.295,34.393,0.0402,-0.0339,9.7612,-0.7316,-0.0067,0.9607
5075,1110,924,34.408,34.436,-0.0359,0.0217,9.831,-1.3191,0.507,0.6015
5080,1104,919,34.395,34.404,0.0315,0.0164,9.9043,-0.0874,-0.2745,-0.1841
5085,1105,922,34.348,34.539,0.0416,0.1289,9.7891,0.2994,0.4391,-0.5054
5090,1106,914,34.439,34.385,0.0015,0.0024,9.9019,-0.0341,-1.1831,-1.1082
5095,1095,922,34.325,34.559,0.0592,0.0491,9.8353,-0.6213,-0.5189,-0.3597
5100,1104,917,34.343,34.521,0.0573,-0.0142,9.7698,0.0452,0.2725,0.2147
5105,1093,918,34.395,34.47,0.0428,-0.098,9.8641,0.9207,0.5829,0.0522
5110,1095,908,34.389,34.418,0.0325,0.072,9.7636,0.6197,0.6628,0.0182
5115,1094,908,34.414,34.445,-0.0227,0.0325,9.8225,-0.3516,0.4915,-0.1075
5120,1097,910,34.321,34.439,0.0229,-0.0245,9.793,0.6673,-0.5467,-0.4433
5125,1087,908,34.345,34.43,-0.0243,-0.0332,9.7976,-0.1607,0.8059,0.0175
5130,1084,903,34.439,34.388,-0.0309,-0.0357,9.7633,0.4268,0.4401,0.175
5135,1077,902,34.433,34.425,0.0184,0.0115,9.8342,0.4344,0.1957,-0.0827
5140,1082,903,34.361,34.458,0.0228,0.0566,9.7996,0.0519,-0.5437,-0.0895
5145,1079,895,34.39,34.408,0.0096,0.1252,9.8293,-0.1607,0.757,0.3276
5150,1071,891,34.371,34.455,-0.0787,0.0915,9.7519,0.5091,-0.527,0.0303
5155,1075,890,34.338,34.494,0.0276,0.0496,9.7839,0.3721,-0.3947,-0.4425
5160,1073,894,34.424,34.341,-0.0088,0.0773,9.7695,-0.3623,-0.0418,0.2441
5165,1065,887,34.421,34.466,-0.0024,0.0252,9.8532,0.7227,-0.4306,-0.5967
5170,1061,892,34.452,34.42,-0.1402,-0.0415,9.8249,-0.6934,-0.1932,-0.8229
5175,1068,889,34.41,34.472,-0.0594,0.0433,9.7571,1.0306,0.3882,0.0065
5180,1058,879,34.436,34.452,-0.0653,0.0115,9.837,-0.0363,-0.3046,0.1822
5185,1060,880,34.314,34.456,0.0565,-0.0982,9.8909,0.9312,-0.0592,-0.5783
5190,1051,875,34.455,34.428,-0.0683,0.002,9.8234,0.0597,-1.1779,-0.4319
5195,1039,876,34.388,34.438,-0.0207,0.0213,9.8177,0.4307,0.194,0.4561
5200,1038,881,34.328,34.422,-0.0564,-0.0119,9.8555,-0.6168,-0.4223,0.25
5205,1028,874,34.345,34.407,-0.0459,-0.0039,9.8656,-0.3567,0.616,0.1348
5210,1029,868,34.412,34.402,-0.0395,0.0208,9.8152,-0.4834,-0.3513,0.2346
5215,1021,871,34.281,34.476,0.0101,0.0504,9.7612,0.8399,0.6818,-0.3403
5220,1013,871,34.363,34.402,-0.0597,0.071,9.7889,0.847,0.097,0.9599
5225,1018,862,34.334,34.431,0.0103,0.0016,9.8719,-0.6062,-0.7776,0.0698
5230,1003,866,34.262,34.428,-0.0318,0.0286,9.8515,0.0555,0.0389,0.3928
5235,993,862,34.361,34.426,0.053,-0.0151,9.8662,-0.139,0.0455,-0.4375
5240,990,865,34.469,34.382,0.0609,-0.0395,9.7643,0.6821,-0.0449,0.0135
5245,984,860,34.415,34.45,0.0244,-0.013,9.7507,0.3434,-0.6157,-0.1946
5250,968,861,34.358,34.474,0.0435,0.069,9.763,0.3183,-0.5735,-0.349
5255,968,863,34.328,34.393,0.0111,0.0671,9.7175,-0.6127,0.1812,0.051
5260,957,860,34.35,34.398,0.0069,-0.0313,9.7585,-0.6764,-0.6703,-0.1065
5265,953,858,34.374,34.384,-0.0402,-0.0693,9.7565,0.1833,0.4074,-0.4557
5270,942,854,34.391,34.384,0.0153,0.0108,9.7562,0.1149,-0.2046,1.2227
5275,940,855,34.38,34.455,0.0064,-0.0675,9.7991,-0.4484,-0.1328,-0.562
5280,933,854,34.45,34.419,0.0046,0.0067,9.8525,0.2385,0.426,0.1505
5285,904,852,34.317,34.469,-0.0484,-0.0262,9.8235,0.3438,0.3274,-0.6396
5290,908,846,34.354,34.479,-0.015,0.0749,9.8947,-0.1496,0.1722,0.8627
5295,898,844,34.407,34.448,0.0002,-0.0617,9.8807,-0.1128,-0.1761,-0.2702
5300,885,845,34.415,34.429,0.0543,-0.1035,9.8016,-0.5689,0.326,0.0144
5305,886,847,34.477,34.439,0.0281,0.0222,9.8852,0.4813,0.3095,-0.2648
5310,875,837,34.398,34.478,-0.0502,-0.0176,9.7493,-0.1067,-0.516,-0.1688
5315,856,838,34.432,34.456,0.0721,-0.0566,9.8339,0.4303,0.4718,0.0449
5320,860,838,34.294,34.47,-0.0379,-0.045,9.7856,0.3361,0.3628,-0.2605
5325,851,832,34.375,34.427,0.0323,-0.0251,9.8629,-0.0852,0.8126,-0.033
5330,840,828,34.408,34.448,-0.041,-0.0492,9.8164,-0.0457,-0.6583,0.4669
5335,829,827,34.371,34.497,-0.0484,0.0252,9.7221,-0.7889,-0.1177,-0.3946
5340,818,826,34.34,34.464,-0.0022,-0.07,9.7432,-0.1732,-0.1376,-0.084
5345,815,816,34.369,34.422,0.0424,-0.0644,9.8628,-0.0765,-0.2031,0.3427
5350,812,820,34.367,34.443,-0.0789,-0.1136,9.8812,-0.5521,-0.3821,0.1717
5355,792,818,34.392,34.438,0.0391,0.0262,9.8272,-0.5526,0.3802,0.4957
5360,783,811,34.395,34.496,0.0522,0.101,9.7952,-0.3245,-0.1766,-0.1177
5365,787,808,34.435,34.442,0.1189,0.0173,9.7909,-0.0622,-0.307,0.0864
5370,788,803,34.334,34.445,0.0552,0.069,9.7545,-0.2249,-0.4757,-0.4908
5375,771,795,34.336,34.505,-0.0005,0.079,9.7748,-0.3508,-0.3372,0.8193
5380,764,792,34.366,34.39,0.0811,-0.0066,9.7764,-0.3027,-0.5799,-0.7477
5385,760,789,34.447,34.446,0.0919,0.0363,9.778,0.4161,-0.2763,-0.2075
5390,769,784,34.403,34.394,-0.0919,0.0218,9.8302,0.0425,0.6834,-0.5836
5395,760,778,34.43,34.435,-0.0241,0.0327,9.7833,-0.6376,0.684,0.6414
5400,764,773,34.45,34.424,0.004,-0.0391,9.8008,-0.5047,-0.1858,-0.0653
5405,748,766,34.399,34.455,-0.042,-0.0244,9.8059,1.0154,0.1385,-0.9019
5410,741,759,34.432,34.411,-0.0525,-0.0019,9.8466,0.1049,0.6358,0.1528
5415,751,758,34.371,34.423,0.0372,-0.0383,9.7313,-0.0076,-0.0514,-0.0848
5420,744,753,34.485,34.477,-0.001,0.0043,9.9053,0.9377,0.0886,0.8082
5425,755,747,34.478,34.501,-0.007,0.0001,9.8463,0.3537,-0.2318,1.0801
5430,747,734,34.326,34.52,0.0545,-0.0097,9.8501,0.3306,-1.1676,-0.3975
5435,749,733,34.308,34.459,0.0543,0.0572,9.8137,0.1496,0.3284,0.3383
5440,755,727,34.345,34.356,-0.04,-0.0528,9.8506,0.3646,-0.2193,-0.2411
5445,754,721,34.474,34.458,-0.0264,-0.1381,9.8478,0.0182,1.2174,-0.1505
5450,758,717,34.396,34.377,0.0182,0.0257,9.818,-0.2691,0.3142,-0.0416
5455,762,710,34.418,34.524,0.0414,-0.025,9.7306,-0.6704,-0.6152,0.6202
5460,766,704,34.393,34.42,-0.096,0.0342,9.8888,0.0756,1.2026,-0.5953
5465,776,696,34.408,34.545,-0.0037,-0.0133,9.8053,0.7502,-0.7261,0.0833
5470,786,693,34.412,34.442,-0.0055,0.0485,9.8852,0.4302,-0.3079,0.0796
5475,773,691,34.367,34.48,0.0126,0.0024,9.8698,0.31,-0.1858,-0.7954
5480,790,685,34.439,34.522,-0.0538,0.0505,9.8364,0.0904,-0.2141,-0.0303
5485,797,679,34.454,34.425,0.0345,-0.0278,9.7894,0.0089,0.4116,0.0835
5490,802,678,34.427,34.516,0.0323,-0.0105,9.7196,0.1161,1.0187,-0.5802
5495,813,666,34.466,34.306,0.0039,0.0206,9.7652,0.1118,-0.0165,-0.9992
5500,820,664,34.321,34.432,-0.059,-0.0377,9.7106,-0.0292,-0.7225,-1.0032
5505,830,663,34.447,34.588,0.013,-0.0372,9.7704,-1.7544,-0.1526,-0.0625
5510,843,659,34.446,34.464,0.0091,-0.0017,9.8138,-0.3551,0.3334,-0.4278
5515,860,645,34.403,34.474,0.0548,0.0428,9.835,-1.1306,0.4827,-0.5291
5520,872,647,34.431,34.381,-0.1083,-0.049,9.7919,-0.6557,0.1513,0.1195
5525,877,647,34.442,34.418,-0.0657,-0.0439,9.7491,0.1049,-0.589,0.0311
5530,883,645,34.42,34.44,-0.0169,0.0932,9.7593,0.1853,0.653,0.7855
5535,894,646,34.378,34.539,0.0411,-0.0346,9.8197,-0.729,0.2634,0.1847
5540,907,637,34.376,34.377,-0.0131,0.0512,9.8201,0.4258,-0.3042,0.9415
5545,921,639,34.308,34.432,-0.0313,-0.0375,9.7813,0.0699,-0.2927,0.595
5550,941,637,34.448,34.347,-0.0243,-0.0172,9.8541,-0.4798,0.6429,-0.362
5555,946,641,34.395,34.375,-0.0532,0.046,9.8667,1.0838,0.8986,-0.2206
5560,962,636,34.459,34.442,0.0193,-0.012,9.8057,-0.5625,0.6176,-0.3286
5565,976,638,34.383,34.426,-0.0273,-0.0618,9.8929,0.1901,-0.8069,0.1398
5570,976,635,34.42,34.429,0.0915,-0.0531,9.8747,0.6128,0.07,-0.2033
5575,994,636,34.421,34.43,-0.0274,-0.0479,9.8526,0.6794,0.9705,-0.3046
5580,1013,638,34.382,34.48,0.0614,-0.0481,9.8073,-0.5163,-1.0606,0.438
5585,1018,634,34.311,34.401,-0.0169,0.0225,9.7799,0.305,-0.0791,1.0183
5590,1019,644,34.39,34.521,-0.0217,0.0489,9.8294,0.4083,0.2809,0.1958
5595,1034,646,34.387,34.524,-0.0147,-0.0472,9.9207,-0.5641,0.281,0.3708
5600,1046,649,34.422,34.412,-0.0767,0.0168,9.8663,-0.1431,-0.149,-0.0813
5605,1068,653,34.403,34.422,0.0641,-0.0134,9.8275,0.5195,0.0915,-1.1442
5610,1071,657,34.399,34.429,0.0877,-0.0985,9.8839,-0.4086,-0.1118,-0.4699
5615,1082,659,34.405,34.608,0.0273,0.0645,9.8517,0.0107,-0.8069,0.2173
5620,1089,659,34.346,34.414,-0.0426,-0.0559,9.7949,-0.4649,0.1775,-0.0524
5625,1104,663,34.318,34.449,-0.1033,-0.0537,9.8759,-0.5673,-0.7651,0.4822
5630,1117,681,34.417,34.493,0.0054,0.0107,9.8631,-0.0127,0.3139,0.1186
5635,1117,681,34.403,34.424,0.0328,-0.0374,9.7671,-0.3148,0.2602,0.3182
5640,1125,690,34.333,34.404,-0.006,0.0373,9.7801,0.387,0.3248,0.0831
5645,1132,691,34.39,34.426,0.0352,0.0795,9.7998,-0.0122,-0.6708,-0.1721
5650,1140,697,34.439,34.401,-0.0178,0.0519,9.7796,-0.3379,-1.0368,0.7718
5655,1155,705,34.455,34.367,-0.0222,0.0194,9.8937,0.7786,-0.351,0.2131
5660,1156,712,34.414,34.451,-0.0145,0.0539,9.7728,0.8565,-0.1227,0.3334
5665,1157,715,34.427,34.396,-0.0836,-0.0135,9.8404,0.1533,0.3574,0.1212
5670,1166,730,34.321,34.416,-0.0611,-0.0088,9.8421,-0.9299,1.083,0.8241
5675,1170,743,34.335,34.401,-0.0137,-0.1066,9.7919,0.0734,0.1358,0.1579
5680,1173,740,34.363,34.438,-0.0009,-0.0639,9.886,-0.9599,0.4126,0.6506
5685,1183,747,34.422,34.41,0.0099,-0.0202,9.8085,-0.5735,-0.592,0.0942
5690,1183,750,34.369,34.465,-0.0353,-0.0635,9.8666,0.0984,-0.0407,0.6184
5695,1183,767,34.36,34.463,-0.0294,0.0184,9.7913,1.2051,0.4256,-0.0925
5700,1183,771,34.281,34.368,-0.0453,-0.055,9.7874,0.2088,-0.0211,0.1419
5705,1187,781,34.371,34.444,-0.0049,0.0076,9.7141,0.6292,0.5042,-0.4565
5710,1200,793,34.274,34.395,0.0206,-0.0258,9.799,0.4084,0.096,0.1243
5715,1188,801,34.422,34.433,-0.0616,0.0192,9.836,0.3611,0.5212,0.5458
5720,1184,805,34.313,34.427,-0.0136,-0.0385,9.8721,-0.5886,-0.7348,0.0589
5725,1195,813,34.272,34.386,0.0236,0.058,9.79,-0.9482,-0.4803,-0.0383
5730,1188,818,34.392,34.456,-0.022,0.087,9.7335,1.6107,-0.2379,0.5283
5735,1186,826,34.386,34.508,-0.0019,-0.1011,9.7639,0.2676,0.2805,-0.7266
5740,1188,835,34.438,34.392,-0.0334,0.0637,9.7428,-0.3504,-0.7983,-0.1313
5745,1194,841,34.326,34.52,-0.0482,0.075,9.8147,0.4458,0.2847,0.36
5750,1177,851,34.332,34.425,-0.0311,-0.038,9.8177,-0.9281,1.4208,0.3695
5755,1184,851,34.401,34.393,0.029,-0.016,9.8048,-0.8039,0.461,0.2367
5760,1176,866,34.406,34.398,0.0894,-0.005,9.8059,0.4472,-0.6683,-0.299
5765,1178,868,34.433,34.546,-0.0202,-0.0543,9.7566,0.2156,-0.5216,0.0479
5770,1179,871,34.417,34.461,0.0003,-0.1133,9.8877,-0.6448,0.9243,0.3602
5775,1173,877,34.46,34.469,-0.0277,-0.0441,9.8427,0.2745,-0.0199,-0.5098
5780,1170,884,34.427,34.422,-0.0524,-0.0105,9.805,-0.9198,0.6568,-0.117
5785,1167,888,34.312,34.534,-0.0061,-0.0674,9.8224,0.0889,-0.6326,-0.1327
5790,1156,891,34.32,34.405,-0.0401,-0.0321,9.7621,0.8076,-0.5193,-0.0724
5795,1151,901,34.316,34.442,-0.0208,-0.0393,9.8262,-0.2857,-0.5895,1.1207
5800,1143,908,34.37,34.427,-0.0415,-0.0267,9.8317,-0.7719,-0.1427,-0.4044
5805,1145,897,34.311,34.393,0.0147,-0.0342,9.76,0.6477,0.6683,-0.3768
5810,1143,900,34.445,34.44,-0.0509,-0.0788,9.7219,0.068,0.2794,-0.2396
5815,1145,912,34.32,34.367,0.0428,-0.024,9.7267,-0.1386,-0.1094,0.3582
5820,1132,914,34.365,34.419,0.0663,-0.0156,9.8539,-0.5777,-0.1448,-0.5497
5825,1140,917,34.446,34.414,-0.019,0.0074,9.8135,-0.088,-0.1333,0.1531
5830,1142,916,34.382,34.368,0.0017,0.0186,9.8462,-0.327,0.8706,-0.0399
5835,1132,921,34.341,34.447,0.0159,0.0855,9.858,-0.3604,0.6461,0.0438
5840,1138,919,34.385,34.448,-0.075,-0.0562,9.85,-0.2221,0.5883,-0.0679
5845,1120,922,34.383,34.483,-0.0165,-0.0665,9.8315,-0.4949,-0.1599,-0.3104
5850,1121,922,34.381,34.434,-0.0342,0.0106,9.8791,0.4214,-0.352,-0.4319
5855,1118,922,34.287,34.401,0.0853,0.0176,9.9024,-0.1942,0.07,-0.4751
5860,1128,921,34.396,34.45,-0.0042,-0.057,9.7602,-0.3416,-0.276,-1.2807
5865,1114,921,34.392,34.398,-0.0773,0.0092,9.7381,0.0798,-0.0373,-0.2063
5870,1108,919,34.418,34.349,0.0279,0.0368,9.863,1.2179,0.1595,-0.1984
5875,1106,922,34.507,34.459,0.0113,-0.0599,9.9112,0.2184,-0.5802,0.3769
5880,1100,922,34.375,34.366,-0.0629,-0.0706,9.8249,0.9942,0.497,0.4711
5885,1107,919,34.366,34.491,0.0182,-0.07,9.844,0.0141,0.7946,0.3631
5890,1100,914,34.322,34.478,-0.0102,0.0381,9.8229,-0.4407,-0.1124,-0.2197
5895,1094,916,34.557,34.433,-0.0534,-0.0907,9.812,0.0626,0.3783,0.7992
5900,1100,919,34.445,34.392,0.0405,-0.0345,9.7859,0.8707,0.3786,0.6364
5905,1094,912,34.383,34.38,0.0273,-0.0347,9.8055,-0.4331,0.4383,0.2953
5910,1097,916,34.32,34.356,0.0276,0.0373,9.8509,0.2092,0.406,0.1983
5915,1094,907,34.39,34.44,0.0263,-0.0111,9.8631,0.4212,-1.155,0.7543
5920,1084,907,34.352,34.429,0.0311,0.1099,9.7971,-0.2449,-0.8538,0.1979
5925,1082,908,34.364,34.488,-0.0125,-0.0816,9.8108,1.0734,0.3256,-0.6486
5930,1075,901,34.448,34.462,0.0404,0.0035,9.7056,0.2401,0.4426,0.0804
5935,1085,900,34.364,34.549,0.0284,0.0049,9.8112,-0.3701,0.1837,-0.8353
5940,1070,902,34.355,34.56,0.0418,0.0776,9.8508,0.1045,-0.8953,0.2953
5945,1082,899,34.402,34.46,0.1732,-0.0619,9.8242,-0.3894,0.7073,-0.0263
5950,1081,900,34.344,34.336,0.0663,0.0612,9.7993,-0.8585,-0.9232,-0.3782
5955,1066,898,34.333,34.44,-0.0563,-0.0434,9.7823,-0.3853,-0.4948,0.6603
5960,1067,895,34.322,34.403,0.0077,0.031,9.8094,-0.3955,-0.4895,0.2692
5965,1066,892,34.31,34.517,0.0136,-0.035,9.8656,0.6838,0.672,0.5659
5970,1056,890,34.379,34.414,0.0775,-0.0506,9.852,-0.61,0.2698,-0.6452
5975,1059,888,34.295,34.4,-0.0802,-0.0302,9.718,0.5198,0.5076,-0.4756
5980,1059,882,34.392,34.401,-0.0226,0.0486,9.8347,-0.2553,0.2821,-0.0902
5985,1042,881,34.437,34.445,-0.0169,-0.0161,9.8169,0.0192,-0.5052,0.0471
5990,1052,881,34.393,34.393,-0.0319,-0.0306,9.7824,0.225,0.9229,0.3533
5995,1043,874,34.34,34.569,-0.0434,0.0568,9.7689,-0.0591,-0.0349,-0.37
6000,1031,878,34.315,34.434,-0.0122,0.0487,9.7963,-0.2026,-0.2636,-0.4153
6005,1032,877,34.558,34.464,0.0088,0.0393,9.7398,0.9803,0.1759,-0.5033
6010,1029,877,34.416,34.458,-0.0121,0.07,9.7485,-0.3732,0.5589,0.575
6015,1016,874,34.385,34.423,-0.029,-0.0764,9.8183,-0.3668,0.3425,0.3977
6020,1018,865,34.423,34.445,0.0275,0.0004,9.7303,-0.0162,-0.3508,-0.6498
6025,1005,868,34.395,34.459,-0.0567,0.0246,9.7682,0.1899,0.5485,0.2111
6030,999,866,34.318,34.388,-0.0932,-0.0143,9.8387,-0.0389,-0.8346,-0.5185
6035,991,865,34.471,34.434,0.0705,-0.0342,9.8922,0.3456,0.0052,0.6745
6040,998,862,34.35,34.431,0.0915,0.0701,9.825,-0.3053,1.0609,-0.1107
6045,989,863,34.39,34.459,0.1662,0.0329,9.7774,0.199,-0.2432,-0.2154
6050,970,856,34.348,34.476,-0.0223,0.0285,9.8506,-0.3494,-0.4491,-0.39
6055,975,856,34.483,34.478,0.0569,0.0333,9.8148,0.0879,-0.2534,0.4822
6060,961,856,34.441,34.475,0.0667,-0.0235,9.7587,-0.2225,-0.6201,0.2117
6065,954,855,34.335,34.465,0.0227,0.0305,9.758,-0.1494,-0.4009,0.2052
6070,947,855,34.379,34.447,0.0572,0.0618,9.8888,0.0289,-0.3647,-0.6097
6075,929,853,34.325,34.5,-0.0918,0.0312,9.7791,-0.3167,0.4754,-0.2384
6080,920,853,34.367,34.413,-0.0501,0.0824,9.8165,-0.5932,-0.1981,0.088
6085,924,851,34.347,34.377,-0.0669,-0.0628,9.8443,-0.2519,0.5802,-0.4599
6090,909,847,34.42,34.487,0.0504,-0.096,9.8307,0.0898,-0.0421,-0.2429
6095,897,847,34.405,34.498,-0.0072,0.0659,9.7315,-0.3967,-0.6183,0.1314
6100,887,847,34.402,34.46,0.0623,0.0276,9.873,0.1737,0.6146,-0.4123
6105,889,844,34.409,34.484,0.0518,-0.1841,9.8534,-0.0175,-0.0163,0.8574
6110,872,838,34.377,34.418,0.0216,0.0415,9.8816,-0.0454,-0.3294,-0.1875
6115,864,838,34.368,34.413,0.0699,0.0571,9.7707,0.3064,-0.7079,0.4319
6120,855,839,34.306,34.462,0.0294,-0.0423,9.8659,0.3156,0.2682,-1.1695
6125,849,829,34.356,34.5,-0.0582,-0.0202,9.7783,0.2328,-0.3099,0.0301
6130,840,828,34.414,34.469,0.0524,-0.0004,9.8529,0.77,0.2642,1.0278
6135,824,827,34.339,34.454,-0.0744,0.0311,9.8021,0.2781,-0.7874,-1.2362
6140,823,821,34.346,34.371,-0.0319,-0.0419,9.8077,-0.0436,-0.5404,0.2737
6145,822,821,34.493,34.414,-0.1002,0.0269,9.8608,0.6732,-0.879,-0.0712
6150,806,816,34.423,34.448,-0.0449,-0.0318,9.8449,0.2741,0.1455,-0.6774
6155,800,818,34.417,34.385,0.0236,0.0399,9.8365,0.899,-0.1433,-0.2297
6160,804,811,34.331,34.47,-0.0439,-0.0319,9.8277,0.2242,-0.3397,-0.5886
6165,792,806,34.352,34.413,0.0488,0.0684,9.825,-0.5966,-0.8499,-0.3155
6170,784,802,34.439,34.458,0.0055,0.0417,9.8272,-0.0752,-0.6272,-0.1281
6175,776,797,34.368,34.426,0.0483,0.0099,9.7705,-0.4243,0.2904,0.1572
6180,775,795,34.338,34.475,-0.0426,-0.0316,9.7438,-0.0148,0.2141,-0.6219
6185,763,793,34.46,34.424,0.0194,0.0285,9.8535,-0.2927,0.0642,-0.1412
6190,753,787,34.477,34.538,0.0481,-0.0843,9.8161,-1.0403,-0.1185,0.4289
6195,759,781,34.382,34.415,-0.0309,-0.0657,9.7018,0.8429,-0.4622,0.0002
6200,754,770,34.35,34.46,0.0087,0.0712,9.8562,-0.3431,-0.5426,-0.6827
6205,747,766,34.397,34.42,0.034,-0.0787,9.7705,-0.7081,0.5346,-0.3852
6210,741,766,34.401,34.38,-0.0389,-0.0736,9.9016,0.6943,-0.3584,1.2324
6215,754,758,34.363,34.412,-0.0097,-0.0313,9.8947,0.7149,0.526,0.0056
6220,748,747,34.404,34.343,-0.0142,0.016,9.7678,-0.2576,0.1097,-1.3039
6225,746,744,34.46,34.41,-0.0858,0.031,9.8729,0.3362,0.006,-0.6221
6230,748,738,34.408,34.551,-0.0111,0.0389,9.8097,-0.8231,0.5677,0.2155
6235,740,736,34.397,34.413,0.1372,-0.0541,9.8073,-0.4166,0.0025,-0.2872
6240,752,727,34.429,34.376,-0.0651,-0.0114,9.7117,-0.1734,-0.3065,-0.3999
6245,753,723,34.404,34.499,-0.0919,0.0142,9.8031,-0.1089,-0.4414,-0.7548
6250,765,711,34.29,34.412,-0.0296,-0.0971,9.7971,0.5557,-0.0727,0.8536
6255,761,712,34.406,34.431,-0.06,-0.0152,9.889,0.2208,-0.4159,-0.2286
6260,767,701,34.382,34.512,-0.0031,-0.0085,9.7159,0.2799,-0.7725,-0.6615
6265,767,706,34.385,34.485,0.0878,0.0438,9.7943,-0.6408,-0.0893,-0.0405
6270,770,688,34.363,34.495,-0.0106,-0.0041,9.7503,0.0229,-0.0305,0.3994
6275,787,689,34.316,34.499,-0.0041,-0.0378,9.8187,-0.4885,0.7604,-0.5059
6280,795,680,34.348,34.449,0.0371,-0.0973,9.7745,0.5487,-0.2004,-0.9647
6285,807,683,34.398,34.512,-0.1329,-0.0491,9.8568,0.397,0.6065,0.6609
6290,808,671,34.417,34.414,-0.0173,-0.0388,9.883,-0.5065,-0.2923,-0.3452
6295,815,665,34.314,34.455,-0.0601,-0.0469,9.8254,0.0431,-0.9012,0.0019
6300,830,664,34.397,34.389,-0.0606,-0.1113,9.8153,1.2959,0.7676,-0.3671
6305,847,657,34.337,34.402,0.0608,0.0642,9.8362,-0.2471,-0.0361,-0.169
6310,840,653,34.342,34.491,-0.0623,-0.0914,9.8578,-0.347,-0.4311,-0.8111
6315,847,644,34.384,34.417,-0.0296,-0.0686,9.8196,-0.4276,-0.1609,0.2121
6320,865,648,34.427,34.462,-0.0566,-0.0532,9.9162,0.5982,0.196,0.0869
6325,875,644,34.379,34.439,-0.016,-0.0561,9.8102,-0.0808,-0.1963,0.8953
6330,891,644,34.412,34.364,0.0501,0.0545,9.8151,0.4336,0.2687,-0.231
6335,894,645,34.478,34.497,-0.0575,-0.0899,9.8603,-0.3176,-0.4097,0.6547
6340,915,637,34.468,34.524,0.098,0.0427,9.7815,0.0734,-0.0755,0.2332
6345,923,635,34.384,34.426,-0.0196,0.1513,9.7436,-0.0577,-0.084,-0.0405
6350,939,635,34.443,34.364,0.1985,-0.0336,9.8248,0.2171,0.3263,0.1898
6355,952,636,34.384,34.506,-0.0437,0.0157,9.9021,-0.2653,-0.0166,0.2021
6360,963,624,34.346,34.422,0.0123,-0.064,9.8449,0.7044,-0.4917,-0.493
6365,979,628,34.348,34.436,-0.03,0.0753,9.8886,0.8117,0.8125,0.3156
6370,987,635,34.307,34.381,0.026,-0.1177,9.7304,-0.5517,0.1683,-0.0382
6375,994,641,34.374,34.439,0.0849,-0.0519,9.8419,-0.3148,-0.0047,0.1191
6380,1011,639,34.452,34.459,0.0162,0.0181,9.875,0.7516,-0.5469,0.1063
6385,1026,642,34.486,34.461,0.0022,0.0374,9.8042,-0.1957,0.075,0.4751
6390,1039,641,34.418,34.476,-0.0093,-0.1148,9.8469,-0.5007,-1.0219,0.5103
6395,1045,641,34.464,34.321,0.0531,0.035,9.9203,-0.2325,0.7302,-0.1377
6400,1057,645,34.387,34.444,-0.0642,-0.0506,9.9114,0.0528,0.4384,-0.0232
6405,1066,654,34.429,34.495,-0.0048,-0.0737,9.8316,-0.1961,-0.5837,-0.6296
6410,1080,652,34.38,34.477,0.0473,0.0665,9.8724,-0.2131,-0.3114,0.1684
6415,1085,661,34.367,34.383,-0.0744,0.0073,9.8171,-0.1069,-0.5403,-0.2735
6420,1094,658,34.377,34.409,0.0026,0.0465,9.8142,0.5856,1.6398,-0.4931
6425,1100,668,34.457,34.377,-0.0058,-0.0474,9.7877,-0.392,-0.0807,-0.7968
6430,1113,673,34.255,34.458,0.0036,-0.0058,9.821,-0.3197,-0.152,-0.1777
6435,1118,676,34.459,34.462,-0.0351,-0.0079,9.8612,0.1735,-0.464,-0.2898
6440,1129,684,34.324,34.384,-0.02,-0.0246,9.7865,0.4147,-0.1132,0.2301
6445,1138,694,34.39,34.344,-0.0569,0.0212,9.7043,1.5642,-0.3026,-0.3582
6450,1141,698,34.515,34.374,0.0592,-0.0012,9.8012,0.1083,0.2526,0.9774
6455,1150,706,34.348,34.404,-0.0248,0.0543,9.7625,-0.5768,-0.3595,-0.5121
6460,1154,713,34.4,34.468,-0.0698,-0.0796,9.8935,-0.3174,1.2649,0.0794
6465,1170,718,34.455,34.458,-0.079,0.0413,9.8572,0.5519,-0.2401,-0.2796
6470,1165,726,34.445,34.461,-0.004,0.0429,9.7389,0.0334,-0.4383,0.0243
6475,1179,736,34.409,34.366,-0.0084,-0.0183,9.8715,-0.2612,0.1725,0.0397
6480,1172,742,34.353,34.472,0.1342,-0.0341,9.8442,-0.9355,0.1896,-0.2307
6485,1177,750,34.413,34.327,0.0166,0.0064,9.7889,-0.0489,0.593,0.4992
6490,1183,758,34.397,34.378,0.1228,0.0189,9.8733,-0.496,-1.3254,0.5471
6495,1183,769,34.362,34.414,-0.0031,0.0255,9.8282,0.2715,0.4341,-0.9241
6500,1179,774,34.403,34.453,0.0309,-0.0094,9.8131,-0.2331,0.2491,0.3424
6505,1187,783,34.343,34.493,0.08,0.0131,9.8393,-0.2588,0.9551,-0.3733
6510,1193,791,34.364,34.417,-0.0071,0.006,9.7948,0.9198,0.3986,-0.3061
6515,1187,800,34.354,34.445,0.0023,-0.0212,9.8416,-0.3317,0.3996,-0.4894
6520,1184,809,34.388,34.46,0.031,0.0091,9.7577,-0.4573,0.4262,-0.1474
6525,1192,817,34.318,34.504,0.0211,0.0052,9.8916,-0.2018,0.2408,0.3699
6530,1187,819,34.36,34.431,-0.0469,-0.0213,9.7792,0.2213,-0.0861,-0.0747
6535,1189,827,34.387,34.421,0.0163,0.0238,9.822,-0.7683,-0.6224,-0.4386
6540,1182,842,34.451,34.377,-0.0103,0.0141,9.7297,0.1221,0.3021,0.4706
6545,1185,842,34.424,34.406,-0.0092,0.0408,9.7536,0.6128,-0.3556,-0.0136
6550,1189,852,34.405,34.29,0.0039,-0.0002,9.8013,-0.3734,-0.2223,-0.3161
6555,1189,856,34.421,34.519,-0.0199,0.0858,9.8197,-0.9975,-0.1653,-0.0276
6560,1180,861,34.446,34.487,0.0251,0.0659,9.8602,-0.1605,-0.6953,-0.3192
6565,1180,867,34.491,34.381,0.0105,0.0367,9.7854,0.6954,0.3057,-0.3608
6570,1176,872,34.376,34.473,0.0471,-0.0383,9.9023,-0.1528,-0.0558,0.3093
6575,1165,881,34.424,34.451,0.0452,0.0383,9.8398,0.2699,-0.2594,0.1072
6580,1164,884,34.38,34.484,0.0259,0.0085,9.7713,-0.3039,-0.0427,-0.0101
6585,1165,888,34.441,34.482,0.0347,0.0102,9.7917,-0.1678,-0.5515,1.3331
6590,1158,895,34.366,34.511,-0.0672,-0.0068,9.8412,-0.4401,0.2551,0.6503
6595,1146,903,34.323,34.454,-0.0271,0.0198,9.8686,-0.7453,0.3125,-0.0361
6600,1147,905,34.384,34.462,0.0586,0.0063,9.8012,-0.5496,-1.0622,-0.8802
6605,1145,908,34.444,34.462,0.0145,0.0248,9.7938,-1.2785,-0.5937,0.4616
6610,1147,906,34.43,34.457,0.0314,0.0655,9.7815,-0.2436,-0.185,-0.2539
6615,1146,913,34.346,34.372,-0.0252,0.0458,9.7239,0.4193,0.0857,0.677
6620,1135,913,34.421,34.43,-0.0348,0.0513,9.7718,0.5121,-0.4283,-0.5932
6625,1136,917,34.41,34.372,0.0261,0.0617,9.83,-0.627,-0.1937,-0.0785
6630,1133,922,34.46,34.473,-0.1106,0.0505,9.7479,0.1886,1.1106,-0.3085
6635,1132,924,34.413,34.522,-0.0332,-0.0485,9.841,0.5803,0.0039,0.0745
6640,1132,924,34.351,34.434,0.0256,0.0967,9.7994,0.3023,-0.1292,-0.195
6645,1129,922,34.446,34.377,-0.0355,-0.0157,9.7533,-0.3634,0.9903,0.9071
6650,1112,924,34.366,34.414,0.0569,-0.0021,9.7677,0.4334,0.1009,-0.3927
6655,1114,925,34.364,34.575,-0.048,-0.0858,9.7768,-1.2249,0.0346,1.1752
6660,1114,930,34.433,34.314,0.0347,-0.0283,9.7545,-0.3617,-0.5393,0.1507
6665,1119,922,34.34,34.48,0.0609,0.0531,9.8159,-0.2004,-0.5194,0.9045
6670,1106,924,34.378,34.572,-0.0686,0.0918,9.7405,-0.273,0.7244,0.3574
6675,1105,929,34.403,34.522,-0.0414,-0.0101,9.8036,0.3163,-0.5353,-0.6622
6680,1117,918,34.436,34.506,-0.0573,0.0193,9.8481,-0.1027,0.6909,0.0167
6685,1103,912,34.413,34.357,0.0264,-0.0395,9.8525,-0.2662,-0.4729,0.5926
6690,1097,915,34.386,34.399,0.0119,-0.0123,9.7803,0.4589,-0.0866,-1.1558
6695,1101,923,34.412,34.445,0.0065,-0.0078,9.8185,-0.1115,0.1861,-0.1286
6700,1100,917,34.384,34.468,-0.0211,-0.0383,9.8247,0.7248,0.4208,-0.2433
6705,1095,914,34.365,34.488,-0.0602,0.0962,9.9065,0.0844,0.8102,-0.5517
6710,1087,912,34.434,34.449,-0.0583,0.0319,9.7458,-0.5126,0.324,0.2431
6715,1083,911,34.391,34.444,-0.0342,-0.0548,9.7254,-1.0224,0.3403,-1.1574
6720,1087,908,34.402,34.424,-0.0054,0.0032,9.8066,-0.3411,0.1887,0.5667
6725,1079,903,34.374,34.49,0.0385,-0.0704,9.8791,-0.106,-0.1441,0.0506
6730,1087,906,34.425,34.426,-0.0094,-0.0033,9.8493,0.173,0.0368,-0.2409
6735,1075,900,34.406,34.464,0.0276,0.0062,9.8197,-0.3996,0.3838,0.2706
6740,1074,898,34.448,34.36,-0.1007,0.0314,9.8605,-0.3356,-0.0518,0.4504
6745,1063,891,34.388,34.44,0.0256,0.0374,9.8593,0.5584,0.4625,0.4585
6750,1075,901,34.299,34.407,-0.0852,0.0219,9.7753,0.0912,-0.6646,-0.251
6755,1069,891,34.425,34.509,0.0349,0.1168,9.7647,1.1202,0.0996,-0.105
6760,1069,887,34.359,34.445,0.019,0.0788,9.805,-0.2344,-0.007,0.2973
6765,1071,884,34.447,34.477,-0.0233,-0.0023,9.8136,-0.1486,0.0887,0.4157
6770,1074,888,34.384,34.405,-0.0535,-0.0488,9.8361,0.3372,0.3228,-1.0215
6775,1063,885,34.319,34.454,0.0443,0.0891,9.8153,-0.2998,-0.3395,-0.1484
6780,1051,887,34.37,34.413,-0.0318,0.062,9.8244,1.1396,0.6976,0.4667
6785,1048,878,34.419,34.486,0.01,-0.0019,9.7945,-0.9193,-0.3302,0.748
6790,1048,877,34.385,34.501,-0.0265,0.0122,9.816,-0.4365,0.0261,-0.0057
6795,1048,879,34.385,34.542,0.0618,0.0565,9.7389,0.4402,0.3777,0.4235
6800,1033,873,34.382,34.477,0.0214,0.1178,9.8016,-0.8108,-0.21,-0.6622
6805,1036,872,34.381,34.45,-0.055,0.0045,9.8701,-0.3503,0.231,0.0802
6810,1017,869,34.438,34.485,-0.0321,-0.1381,9.8141,-0.3573,0.1387,0.5354
6815,1020,870,34.4,34.452,0.033,-0.0565,9.7498,0.6442,0.1105,-0.1534
6820,1009,871,34.373,34.476,-0.0419,-0.0742,9.8602,-0.3327,0.1281,0.7002
6825,1005,868,34.425,34.479,-0.0171,0.0496,9.7006,-0.8483,0.4021,-0.0494
6830,999,860,34.421,34.498,0.0888,-0.0203,9.8179,-0.421,0.2186,-0.3289
6835,995,864,34.326,34.545,0.0504,0.0302,9.7543,0.7206,-0.3784,0.3564
6840,990,862,34.482,34.405,-0.0781,-0.0006,9.7731,0.7239,-0.4446,-0.8547
6845,985,860,34.318,34.435,-0.0055,0.0236,9.8096,0.1335,-0.4799,-0.0824
6850,971,862,34.295,34.467,0.0411,0.0018,9.7699,-0.4378,0.7649,0.0002
6855,983,863,34.353,34.414,0.0069,0.0248,9.805,-0.3301,-0.1601,-0.1913
6860,951,853,34.366,34.428,0.1351,0.0596,9.8281,-0.5479,-0.0972,-0.5697
6865,949,858,34.31,34.503,0.082,0.0428,9.7989,0.1023,0.638,-0.1566
6870,946,856,34.381,34.432,-0.0029,0.0157,9.7894,0.2042,0.4062,-0.765
6875,944,854,34.353,34.477,0.0513,0.0065,9.7713,-0.293,-0.2419,-0.6499
6880,922,852,34.428,34.444,0.0113,0.0135,9.8432,0.4767,0.3904,-0.8913
6885,917,852,34.48,34.463,-0.0634,-0.0468,9.7575,0.561,-1.447,-0.1894
6890,912,851,34.438,34.466,0.0451,-0.0071,9.8291,-0.0644,0.0149,0.5608
6895,891,844,34.333,34.426,0.0251,0.0393,9.86,-0.7749,-0.4444,0.1308
6900,889,844,34.342,34.471,-0.0095,-0.0222,9.8193,-0.1903,0.1072,-0.7957
6905,876,841,34.49,34.451,-0.0367,0.0604,9.7824,0.2605,-0.3216,-0.522
6910,875,841,34.444,34.303,0.0448,0.0849,9.7789,-0.2416,-0.118,-0.055
6915,867,835,34.4,34.445,-0.054,-0.0007,9.7677,0.5271,-1.3745,-0.3242
6920,864,838,34.403,34.368,0.0467,-0.055,9.8657,0.0449,-0.2851,-0.748
6925,846,834,34.366,34.418,-0.019,0.001,9.8491,0.5577,0.6216,-0.2216
6930,837,831,34.428,34.343,0.0307,-0.0569,9.8709,-0.3463,0.7487,-0.1199
6935,828,824,34.405,34.394,-0.0432,0.0323,9.7318,0.4208,-0.315,0.5623
6940,823,825,34.451,34.515,-0.0077,-0.0052,9.9006,-0.048,0.0963,-0.078
6945,803,817,34.367,34.481,-0.0367,0.0021,9.8128,-0.7358,0.0126,0.1353
6950,800,814,34.368,34.533,0.0539,-0.0701,9.7913,-0.3331,-0.1153,-0.5167
6955,800,820,34.334,34.45,0.0449,0.006,9.754,0.2605,-1.2269,-0.0498
6960,782,810,34.313,34.452,-0.0128,0.0503,9.7882,0.3735,0.0039,0.3478
6965,781,808,34.321,34.445,-0.0374,0.0319,9.8159,-0.1859,-0.2565,0.6072
6970,779,806,34.354,34.478,-0.061,-0.0292,9.8206,0.257,0.2954,-0.4474
6975,772,799,34.4,34.426,-0.0638,-0.0011,9.776,0.0896,-0.5296,0.0704
6980,771,794,34.393,34.528,-0.0172,0.0345,9.7573,-0.0339,-0.8367,0.5537
6985,765,785,34.414,34.441,0.0139,-0.144,9.8283,-0.2944,-1.3794,-0.6436
6990,765,782,34.446,34.421,0.1032,-0.0326,9.8852,-0.4738,-0.6016,-0.0103
6995,741,782,34.332,34.379,0.0926,-0.0477,9.7566,-0.0313,0.5743,-0.2059
7000,754,773,34.398,34.447,0.0538,-0.0996,9.8735,0.2927,0.1299,-0.3709
7005,747,766,34.356,34.484,0.0619,-0.0452,9.8036,-0.4267,0.2031,0.0309
7010,756,762,34.422,34.431,0.0742,-0.0407,9.7588,0.1346,0.1221,0.3355
7015,749,755,34.442,34.467,0.0479,0.0066,9.7842,-0.6488,0.2185,-0.1356
7020,743,752,34.304,34.376,0.033,0.137,9.7754,-0.1006,-0.0989,-0.0867
7025,749,739,34.322,34.43,0.0084,-0.0137,9.897,-0.3432,-0.6914,-0.2566
7030,741,740,34.372,34.416,-0.0652,-0.0402,9.761,0.6438,0.6137,-0.1168
7035,734,740,34.347,34.329,-0.0337,-0.0546,9.6913,-0.1444,-0.235,-0.5371
7040,746,727,34.38,34.412,-0.1384,0.0292,9.8405,-0.1394,-0.7443,1.1411
7045,765,720,34.385,34.36,0.0286,-0.0439,9.8288,-0.061,1.0454,-0.1463
7050,753,715,34.409,34.398,-0.0516,0.053,9.7635,0.1421,-0.8568,0.7065
7055,766,709,34.426,34.515,-0.0396,-0.0184,9.8221,0.047,-0.0656,0.0121
7060,773,703,34.462,34.428,0.0021,-0.0279,9.8263,-1.0002,-0.041,-0.5697
7065,766,705,34.399,34.528,-0.0067,-0.0298,9.7678,-0.4558,-0.5929,0.2314
7070,783,690,34.318,34.439,0.0166,-0.0045,9.7784,-0.4812,0.1574,-0.1953
7075,788,685,34.414,34.478,-0.0343,0.0981,9.8043,-0.4617,1.0565,-0.271
7080,796,685,34.271,34.434,-0.0678,0.0445,9.821,0.7077,0.4338,-0.375
7085,800,678,34.457,34.566,-0.0173,-0.126,9.8104,0.3813,0.2819,0.0504
7090,814,675,34.422,34.476,-0.006,-0.0135,9.7981,-0.741,-0.7118,-0.5634
7095,817,675,34.373,34.445,0.0435,0.0454,9.8977,0.1628,0.532,0.4635
7100,824,665,34.332,34.499,0.0495,0.0564,9.8352,-0.2479,-0.5066,-0.4766
7105,836,657,34.412,34.402,-0.0562,0.0224,9.8114,-0.175,0.3789,-0.2077
7110,853,653,34.431,34.538,0.0563,-0.0526,9.8183,-0.2365,-0.3946,0.0183
7115,857,653,34.383,34.347,0.0069,0.0724,9.7454,0.4528,-0.2575,0.5495
7120,871,647,34.396,34.462,0.0174,0.0114,9.7701,0.1098,0.005,-0.1181
7125,886,642,34.364,34.472,0.0192,0.0111,9.8036,0.3589,-0.0408,0.5135
7130,891,638,34.434,34.435,0.0183,0.0228,9.8659,0.2994,-0.193,0.1889
7135,906,638,34.387,34.455,-0.0303,-0.0447,9.7909,0.6242,0.1738,0.2285
7140,926,638,34.326,34.433,-0.0331,0.0162,9.8096,-0.7726,0.5354,0.5449
7145,932,638,34.375,34.433,-0.001,0.0784,9.8525,-0.2119,-0.9692,-0.5313
7150,943,634,34.403,34.424,-0.0453,0.07,9.8608,0.0992,-0.2389,-0.6564
7155,948,641,34.287,34.471,0.0157,-0.0717,9.8491,-0.1793,0.5832,0.3545
7160,963,637,34.312,34.504,-0.0603,0.0454,9.8614,0.1077,0.0287,-0.1277
7165,972,635,34.44,34.416,-0.0808,0.0602,9.7966,-0.0973,0.6742,-0.2088
7170,981,629,34.511,34.496,0.0322,0.0522,9.7824,0.2132,0.3649,0.2269
7175,1004,635,34.317,34.363,-0.0072,-0.0577,9.8221,0.1561,0.2414,0.8029
7180,1012,641,34.329,34.424,0.0959,-0.0439,9.8376,-0.4664,0.8887,-0.1405
7185,1023,639,34.414,34.464,0.04,0.0111,9.8348,0.7014,-0.1256,-0.1493
7190,1033,643,34.361,34.44,0.0337,0.0912,9.6905,-0.0871,0.7366,0.2622
7195,1042,646,34.445,34.481,0.029,0.0156,9.8065,0.1259,-0.3684,-0.0323
7200,1062,648,34.364,34.362,0.032,0.0312,9.8299,0.8717,0.3878,0.1134
7205,1064,654,34.352,34.437,-0.0167,0.0432,9.8264,0.3163,0.2022,0.8726
7210,1080,656,34.419,34.501,-0.0153,-0.0477,9.8546,0.1556,0.2508,0.1348
7215,1091,670,34.367,34.316,0.0971,0.0148,9.775,-0.1811,0.3064,0.4877
7220,1099,663,34.305,34.465,-0.0248,0.093,9.8296,-0.304,-0.33,-0.6192
7225,1092,672,34.418,34.412,-0.0114,-0.011,9.8103,0.4343,0.4731,0.6949
7230,1114,675,34.459,34.435,-0.1048,-0.0073,9.8783,0.3971,-1.1667,0.4111
7235,1121,681,34.363,34.386,0.0446,0.0735,9.7515,-0.1211,-0.3836,-0.1033
7240,1130,687,34.47,34.442,0.0484,-0.0409,9.7286,-0.1532,-0.2861,0.324
7245,1140,688,34.335,34.484,0.016,0.0138,9.8012,0.2864,0.2256,0.8934
7250,1143,701,34.494,34.513,-0.0017,-0.0473,9.7964,-0.3776,-0.3807,-0.1718
7255,1149,703,34.426,34.39,0.0786,0.0489,9.9199,0.939,0.7758,0.1012
7260,1155,708,34.443,34.467,-0.0359,-0.0194,9.8036,-0.7624,-0.6945,-0.0322
7265,1163,721,34.437,34.449,0.0171,0.0997,9.8031,0.2109,-1.2647,-0.0214
7270,1176,729,34.36,34.513,-0.1176,0.0095,9.7624,-0.6173,-1.1255,-0.4905
7275,1165,739,34.484,34.429,0.0257,0.006,9.8037,0.1765,-0.192,-0.0435
7280,1177,750,34.372,34.474,-0.0322,-0.0143,9.7605,0.1039,0.0483,-0.6483
7285,1173,757,34.357,34.391,0.1032,0.0287,9.8916,0.0728,0.1921,-0.0751
7290,1179,760,34.366,34.413,0.0303,-0.0178,9.84,-0.1733,-0.6709,0.269
7295,1176,766,34.497,34.431,0.0754,-0.0057,9.709,0.3275,0.1042,-0.358
7300,1186,776,34.426,34.42,-0.0498,-0.0529,9.768,-0.4661,-0.6767,0.1415
7305,1190,780,34.39,34.389,-0.0418,-0.0516,9.8753,0.2893,-0.3972,-0.4177
7310,1193,792,34.326,34.518,-0.0214,0.0462,9.814,0.2249,0.4372,-0.6777
7315,1193,801,34.383,34.466,0.0209,-0.0568,9.7823,-0.3727,-0.6214,-0.9884
7320,1186,805,34.374,34.481,0.0451,-0.0022,9.7667,0.4632,-0.5064,-0.0727
7325,1192,819,34.412,34.499,-0.0337,-0.0555,9.8453,-0.1665,-0.3954,0.1132
7330,1195,828,34.391,34.461,-0.029,-0.0638,9.8865,0.0854,-0.1487,1.1497
7335,1189,828,34.445,34.435,-0.0999,0.0611,9.7951,0.7623,0.4031,-0.5974
7340,1182,837,34.4,34.513,0.094,-0.0324,9.789,-0.3579,-0.0702,-1.2414
7345,1175,842,34.413,34.444,0.0685,-0.0563,9.902,1.0585,-0.9596,-0.0623
7350,1179,850,34.356,34.506,-0.0276,0.0442,9.8413,-0.3104,-0.3876,0.4672
7355,1185,856,34.276,34.481,0.0443,0.0747,9.8832,0.4037,-1.3253,0.3039
7360,1171,858,34.41,34.416,-0.0587,0.0481,9.9175,-0.1764,-0.2749,-0.9552
7365,1170,869,34.447,34.408,0.037,-0.0711,9.7235,0.1235,-0.627,-0.6147
7370,1167,874,34.4,34.399,-0.0306,-0.0204,9.8015,0.8842,0.8762,0.1544
7375,1168,880,34.527,34.371,0.1408,-0.066,9.7921,0.4017,-0.0372,-0.1464
7380,1162,883,34.302,34.396,0.1151,-0.005,9.8237,-0.5251,0.3195,-0.6058
7385,1156,886,34.382,34.526,0.0165,-0.04,9.7212,0.0041,0.0875,0.2463
7390,1165,894,34.462,34.486,-0.0798,0.0772,9.8262,-0.7053,0.3144,-1.1131
7395,1151,898,34.482,34.374,0.0098,0.0415,9.7688,-0.1745,-0.3789,-0.0317
7400,1152,899,34.504,34.523,0.0304,-0.0357,9.8228,0.1849,0.3641,0.359
7405,1149,914,34.413,34.455,0.0233,-0.0606,9.8223,-0.3417,0.2455,-0.4706
7410,1136,905,34.298,34.415,0.0253,-0.0764,9.814,0.2676,0.9145,-0.3366
7415,1136,911,34.431,34.453,-0.0378,-0.0921,9.822,0.0582,0.5516,0.0985
7420,1135,917,34.436,34.482,-0.0181,-0.0744,9.7612,0.3529,0.0067,0.0942
7425,1135,914,34.413,34.43,-0.038,0.0511,9.8421,0.0147,-0.3884,-0.5866
7430,1132,917,34.385,34.439,0.0781,0.0614,9.8545,0.4482,-0.3918,-0.4586
7435,1129,923,34.375,34.459,0.0106,0.0031,9.7697,0.2033,0.7779,-0.3112
7440,1124,917,34.393,34.485,0.0917,0.0727,9.7353,0.2157,0.2246,-0.5346
7445,1136,924,34.386,34.486,-0.0292,-0.0125,9.847,-0.7975,-0.375,-0.634
7450,1129,921,34.476,34.377,-0.0491,-0.0317,9.8991,-0.0225,0.0598,0.4779
7455,1126,918,34.532,34.429,0.0501,-0.0479,9.7767,-0.2042,-0.1326,0.3782
7460,1121,923,34.474,34.54,-0.0943,0.0598,9.8552,0.8496,-1.142,-0.7505
7465,1112,922,34.357,34.482,0.0098,0.0463,9.8292,-0.0101,0.3838,1.102
7470,1109,922,34.406,34.547,-0.0047,0.0199,9.8103,0.358,0.9888,-0.6201
7475,1104,919,34.322,34.411,-0.012,0.0807,9.8321,-0.0134,-0.0703,-0.3943
7480,1107,920,34.365,34.532,-0.063,0.0111,9.9286,0.415,0.1335,0.0165
7485,1100,922,34.485,34.481,-0.006,-0.0473,9.755,-0.6994,-0.6751,-0.7251
7490,1101,914,34.424,34.386,-0.0992,-0.0304,9.8286,0.0955,-0.6157,0.4736
7495,1098,919,34.424,34.431,0.0432,-0.1342,9.7924,-0.2746,1.2528,0.6829
7500,1096,915,34.376,34.387,0.0721,-0.0238,9.7612,-0.9262,0.7176,-0.2262
7505,1096,912,34.446,34.465,-0.0011,-0.014,9.8761,-0.0685,-0.0722,0.2734
7510,1097,914,34.371,34.42,0.0172,-0.0246,9.8118,-0.2652,0.805,0.7171
7515,1087,914,34.406,34.405,0.0194,0.0523,9.7713,0.6715,-0.2163,-0.6367
7520,1084,910,34.415,34.468,-0.0733,0.0683,9.8733,-0.3048,0.0346,-0.085
7525,1084,908,34.378,34.419,-0.0285,0.0364,9.7232,-0.8866,-1.1709,0.4577
7530,1088,900,34.43,34.444,0.0041,-0.0432,9.8434,-0.1795,-0.4764,-0.3568
7535,1089,901,34.447,34.42,0.0505,-0.057,9.7726,0.1116,0.6939,0.5067
7540,1085,901,34.465,34.446,-0.0004,0.0272,9.7733,0.0449,0.354,-0.7191
7545,1077,894,34.326,34.485,0.0503,-0.0383,9.9152,-0.3072,0.2828,-0.1531
7550,1074,899,34.399,34.464,0.065,-0.0344,9.7843,-0.3077,-0.1846,0.1008
7555,1066,893,34.426,34.411,0.0723,-0.0358,9.8186,-0.8728,-0.2987,0.7513
7560,1068,895,34.339,34.492,-0.0087,0.087,9.7823,-0.1855,-0.5525,-0.9332
7565,1058,890,34.375,34.382,0.0279,-0.0279,9.8202,0.3412,0.2664,0.1779
7570,1070,886,34.399,34.558,0.0304,-0.0494,9.8661,-0.034,0.027,-0.8979
7575,1046,882,34.458,34.477,-0.0392,-0.0686,9.7417,0.2155,0.6746,0.4136
7580,1052,886,34.425,34.43,-0.0279,-0.0505,9.8609,0.3144,-0.3344,-0.3151
7585,1045,879,34.504,34.492,0.007,0.018,9.8037,-0.1816,-0.027,0.2503
7590,1043,880,34.364,34.405,-0.0007,-0.0186,9.8067,0.2257,0.3602,0.5606
7595,1034,877,34.376,34.463,-0.0498,0.0093,9.8142,0.2992,0.281,0.3301
7600,1032,875,34.404,34.512,0.0442,0.1088,9.8223,0.3963,0.3832,0.3721
7605,1039,871,34.465,34.49,0.0401,-0.0129,9.7372,-0.0971,-0.4255,-0.0616
7610,1023,872,34.45,34.487,0.022,-0.0038,9.7758,0.3492,-0.0079,0.9419
7615,1024,868,34.318,34.4,-0.0098,-0.049,9.802,0.1382,-0.9303,-0.0536
7620,1012,869,34.503,34.393,-0.0156,-0.0624,9.7584,0.7855,-1.0451,-0.2726
7625,1003,869,34.357,34.474,-0.0305,-0.077,9.8142,-0.9451,0.0274,-0.0355
7630,1001,867,34.34,34.351,-0.0628,-0.0809,9.8107,-0.2483,0.1057,-0.7408
7635,983,862,34.293,34.401,0.0109,0.0217,9.7479,0.8125,0.5099,-0.505
7640,978,863,34.422,34.408,0.061,0.036,9.8024,0.1836,-0.7253,0.2934
7645,990,866,34.434,34.478,0.0783,0.0401,9.8565,-0.2967,-0.4105,-0.0991
7650,976,857,34.432,34.511,0.0464,0.0104,9.7927,-0.4858,-0.8835,0.3001
7655,960,856,34.364,34.331,0.0033,0.0147,9.854,0.439,0.6371,0.4488
7660,963,857,34.376,34.395,0.018,0.0188,9.736,0.2372,0.104,0.0205
7665,962,852,34.405,34.468,0.0334,-0.0266,9.8213,0.4065,-0.2572,-0.1352
7670,947,854,34.461,34.464,0.0654,0.034,9.8897,0.095,-0.8695,-0.2078
7675,939,855,34.406,34.574,-0.0489,0.0408,9.7427,-0.1166,-0.3504,0.5438
7680,922,847,34.405,34.557,0.0181,-0.0173,9.744,-0.1681,-0.2661,-0.7519
7685,912,854,34.457,34.59,0.0034,0.0067,9.8358,0.3793,0.3827,-0.1738
7690,911,850,34.34,34.388,-0.0193,0.0347,9.8042,0.2853,-0.0875,-0.1113
7695,895,846,34.316,34.357,0.0069,0.0205,9.8488,0.6749,-0.8518,-0.1288
7700,885,839,34.412,34.442,-0.0426,0.0345,9.9069,-0.3592,-0.8736,-0.2346
7705,884,842,34.534,34.464,-0.0246,-0.0407,9.9182,0.5433,-0.7368,0.5516
7710,861,839,34.472,34.418,0.081,0.0525,9.7973,0.0105,-0.3711,-0.0525
7715,861,839,34.42,34.613,-0.0765,0.1085,9.7728,-0.1163,-0.282,-0.5084
7720,851,831,34.445,34.559,0.0594,-0.0551,9.8254,-0.669,0.0267,0.2111
7725,844,841,34.364,34.38,-0.0266,-0.0397,9.8572,0.5058,-0.3579,-0.4501
7730,840,825,34.479,34.319,-0.0172,0.0121,9.728,-0.1402,0.3578,0.2578
7735,830,828,34.432,34.479,-0.0415,0.0568,9.8299,-0.7872,0.5233,-0.1432
7740,820,824,34.446,34.464,0.0309,-0.0762,9.8396,0.3641,0.3749,0.1319
7745,815,823,34.43,34.393,0.0796,0.0328,9.7243,0.4187,0.371,-0.0264
7750,805,817,34.413,34.46,-0.0021,0.0664,9.8151,-0.5365,0.5649,-0.0738
7755,793,817,34.431,34.445,-0.0718,-0.0074,9.8431,-0.7953,-0.5413,-0.1335
7760,785,811,34.422,34.421,0.0131,-0.1035,9.8282,-0.3515,-1.0699,0.0481
7765,790,810,34.425,34.405,-0.0164,0.0469,9.8088,-0.8195,0.6146,-0.3117
7770,777,800,34.428,34.502,-0.0566,0.0079,9.7906,0.7655,0.6007,-0.0142
7775,780,796,34.371,34.484,-0.0276,-0.0098,9.8487,0.0526,-0.192,-0.1784
7780,774,789,34.424,34.388,-0.0478,-0.0042,9.7357,-0.3402,0.1276,0.1609
7785,758,788,34.42,34.501,0.0533,-0.0406,9.8093,-0.1408,0.0743,-0.5725
7790,746,782,34.408,34.4,0.0176,0.0085,9.7423,0.3379,-0.5363,0.6742
7795,758,777,34.431,34.464,-0.0198,0.0581,9.8267,-0.324,-0.2882,-1.0646
7800,752,773,34.419,34.439,-0.0336,-0.0041,9.8416,-0.8396,0.3854,-0.0634
7805,760,765,34.38,34.509,-0.081,-0.0504,9.8204,-0.0526,-0.431,-0.169
7810,749,758,34.407,34.513,-0.0413,0.0336,9.8445,0.1469,0.4982,-0.179
7815,747,752,34.421,34.458,0.0271,-0.0778,9.8973,-0.0756,0.7104,-0.1015
7820,754,752,34.514,34.489,0.0347,-0.1236,9.8692,-0.5648,0.6173,-0.1502
7825,746,743,34.408,34.448,-0.063,-0.0244,9.8331,0.1629,-0.7359,0.5264
7830,746,738,34.473,34.42,0.0213,0.0777,9.7387,-0.2326,-0.5113,0.3436
7835,756,732,34.393,34.434,-0.0764,-0.0556,9.7633,0.6471,0.8514,0.0517
7840,761,728,34.371,34.41,-0.0322,-0.0847,9.7752,-0.1707,-0.178,-0.6171
7845,753,722,34.372,34.507,0.0142,0.0675,9.8045,-0.2482,-0.3544,0.1269
7850,757,712,34.345,34.572,-0.0177,-0.0017,9.8266,0.4612,-0.5193,-0.7184
7855,766,705,34.382,34.424,-0.0208,-0.0011,9.8604,0.2268,-0.1628,-0.3882
7860,776,701,34.485,34.423,-0.0099,-0.0985,9.8521,-0.9851,0.0137,0.7249
7865,774,694,34.443,34.399,-0.0237,0.0137,9.8603,0.5024,-0.0226,0.0709
7870,786,683,34.445,34.461,-0.0135,0.0028,9.7795,0.5786,-0.9169,1.024
7875,786,691,34.474,34.396,0.0483,-0.0132,9.7902,0.0809,0.1495,-0.3834
7880,800,681,34.447,34.44,0.0231,0.0978,9.8518,0.1962,0.0855,0.1361
7885,802,676,34.324,34.427,0.0277,-0.006,9.8299,-0.0303,0.358,0.4793
7890,814,668,34.451,34.439,0.0329,-0.0291,9.8679,-0.0119,-0.5397,-0.2572
7895,818,666,34.362,34.473,0.081,-0.0123,9.7785,-0.2253,0.4562,1.0856
7900,833,662,34.363,34.428,0.0078,-0.0253,9.8196,-0.4435,0.1818,0.748
7905,839,660,34.484,34.452,-0.0353,0.0721,9.7893,-0.4207,-0.023,0.6434
7910,841,657,34.383,34.534,-0.0286,-0.0102,9.9022,-0.0376,-0.3388,0.2521
7915,857,646,34.371,34.432,0.0322,-0.0205,9.7575,0.4554,1.286,0.3947
7920,869,653,34.444,34.462,-0.0324,0.0319,9.8903,0.2713,-0.9672,-0.4355
7925,873,638,34.394,34.518,0.025,0.0216,9.8229,0.0349,-0.4765,0.7201
7930,900,644,34.405,34.429,0.055,0.0285,9.8879,1.166,0.3544,1.2618
7935,907,639,34.452,34.433,0.0218,0.0014,9.8125,0.0961,-0.1972,0.3582
7940,910,640,34.506,34.446,0.0091,-0.0083,9.8755,-0.3139,-0.3135,-0.6523
7945,916,640,34.386,34.448,-0.017,0.0075,9.8023,-0.5058,-0.141,-0.3207
7950,937,636,34.321,34.439,-0.005,-0.0186,9.7054,0.5626,-0.7159,-0.5581
7955,949,637,34.439,34.428,-0.0048,0.0014,9.7465,0.5544,0.6044,-0.2541
7960,965,633,34.426,34.47,-0.0432,0.0521,9.8992,-0.2187,0.0409,0.0514
7965,971,632,34.405,34.504,-0.0713,-0.0354,9.729,0.0236,0.5418,0.2245
7970,986,634,34.368,34.478,-0.0351,-0.0894,9.8421,0.2178,-0.4874,0.461
7975,1000,639,34.463,34.495,0.019,-0.0426,9.8478,-0.102,-0.1437,0.0861
7980,1012,639,34.384,34.41,-0.0463,0.0161,9.7918,0.0382,0.0119,-1.0558
7985,1025,642,34.428,34.532,-0.0137,0.0409,9.7918,-0.5728,0.9198,0.2081
7990,1037,649,34.336,34.465,0.0052,-0.0709,9.7423,-0.176,-0.3178,1.1616
7995,1041,646,34.397,34.466,-0.0158,0.0974,9.8497,0.1017,-0.0953,0.1446
8000,1056,649,34.452,34.481,-0.0316,-0.0249,9.7455,-0.5451,-0.0964,-0.1444
8005,1072,651,34.485,34.492,-0.0194,-0.0954,9.7826,-0.0502,-0.4411,0.3896
8010,1075,657,34.386,34.463,-0.0515,0.128,9.7968,0.2164,-0.3178,0.12
8015,1093,665,34.43,34.505,0.0681,0.032,9.8008,0.6009,0.9281,-0.3716
8020,1097,671,34.444,34.469,-0.0506,0.0121,9.8777,-0.6288,-0.8502,-0.9163
8025,1114,674,34.308,34.419,0.0561,-0.0226,9.7362,-0.0334,0.3364,0.4638
8029,1122,681,34.429,34.41,-0.0854,-0.0375,9.7906,-0.4188,1.2616,-0.523
8035,1127,683,34.34,34.445,-0.0555,0.0606,9.798,0.0403,0.0553,1.5458
8039,1134,683,34.399,34.503,-0.0179,0.0138,9.8646,0.0745,0.0441,-0.0802
8045,1148,697,34.358,34.391,0.0871,-0.0797,9.7373,-1.047,-0.2506,-0.0345
8050,1146,698,34.424,34.479,0.0118,0.0016,9.9097,-0.064,-0.7742,0.0143
8055,1151,710,34.401,34.459,0.0515,0.0073,9.8261,0.9804,-0.071,0.1
8060,1157,720,34.407,34.442,0.0709,-0.0488,9.8051,-0.065,0.1302,0.6208
8064,1161,718,34.433,34.397,0.0159,-0.0658,9.8296,-0.5988,-0.6763,0.484
8070,1176,728,34.402,34.443,0.0845,-0.0611,9.8999,0.3045,-0.1457,0.3409
8074,1173,737,34.376,34.456,0.0405,-0.0405,9.8828,0.3856,-0.467,1.2099
8080,1176,742,34.387,34.407,-0.1431,0.0439,9.8105,-0.3152,-0.6603,-0.4325
8085,1191,750,34.44,34.398,-0.0589,-0.0203,9.7992,0.1286,0.7952,-0.161
8090,1180,759,34.399,34.491,-0.0362,-0.0448,9.766,-0.0782,-0.4737,-0.5389
8095,1184,774,34.323,34.468,0.0065,0.0768,9.8869,-0.0082,-0.4342,0.1175
8100,1191,779,34.399,34.463,-0.0107,-0.03,9.7606,1.1132,0.1477,0.3242
8105,1191,786,34.375,34.542,0.0254,0.0251,9.7823,0.0399,0.0295,0.3603
8109,1192,798,34.438,34.372,0.0103,0.0173,9.7692,0.6345,-0.9232,0.382
8115,1192,803,34.39,34.474,0.0481,-0.0569,9.7947,1.0171,0.3635,0.6899
8119,1188,809,34.317,34.454,0.0452,0.0529,9.8413,0.0768,-0.1395,-0.734
8125,1185,817,34.455,34.601,-0.0475,0.0135,9.808,-0.7282,0.6169,0.2179
8130,1177,823,34.397,34.5,0.0644,-0.0203,9.762,-1.0068,0.5381,-0.4672
8135,1188,830,34.261,34.437,0.1276,0.0559,9.8172,0.2976,-0.1171,-0.1952
8140,1189,840,34.447,34.436,0.0165,0.0107,9.8395,0.2173,-0.4218,0.2113
8145,1177,852,34.403,34.471,-0.1164,0.0625,9.8129,0.6473,0.0901,-0.437
8150,1180,852,34.386,34.437,0.0899,-0.0692,9.7712,-0.1104,-0.2371,-0.6001
8154,1171,857,34.396,34.45,-0.1371,-0.0394,9.7989,0.3649,1.2755,0.1655
8160,1176,866,34.401,34.498,0.0818,0.0536,9.7921,-0.2979,0.5001,-0.2007
8164,1174,864,34.395,34.381,-0.0291,-0.0492,9.8415,-0.1252,0.5538,0.0071
8170,1158,882,34.428,34.483,-0.0084,-0.001,9.8636,-0.6089,0.3867,0.635
8175,1165,883,34.504,34.481,-0.095,0.0108,9.7752,-0.9547,0.2026,0.4566
8180,1172,883,34.378,34.407,-0.0231,0.0079,9.8813,0.1794,-0.0203,0.1334
8185,1161,890,34.296,34.539,-0.0045,-0.0534,9.8123,0.4824,0.2361,-0.1693
8189,1158,890,34.505,34.478,0.0238,-0.0697,9.8108,0.4343,0.2047,-0.051
8195,1153,901,34.38,34.437,-0.0083,-0.0006,9.7457,0.1531,-1.1587,-0.2611
8200,1158,902,34.346,34.526,-0.0774,0.0519,9.91,-0.3512,0.2638,0.5961
8205,1147,907,34.361,34.523,-0.0529,0.0023,9.8166,-0.6181,0.6289,0.7442
8210,1146,906,34.364,34.493,-0.0677,0.0317,9.8024,-0.0764,0.6255,-0.309
8215,1142,915,34.372,34.442,-0.1087,0.0008,9.7654,0.2798,-0.6869,0.8013
8220,1137,918,34.425,34.379,0.0182,-0.0495,9.8083,0.1108,-0.0258,-0.267
8225,1139,918,34.424,34.395,-0.1197,-0.0651,9.8983,-0.3824,-1.0436,-0.2543
8230,1131,922,34.426,34.508,0.0089,0.0379,9.8701,-0.3443,0.5577,-0.1605
8235,1131,921,34.482,34.443,-0.1018,-0.0527,9.7741,-0.2596,-1.1384,1.0491
8240,1128,916,34.391,34.441,0.0269,-0.0569,9.8864,-0.1672,-0.7492,1.1379
8245,1120,927,34.405,34.456,0.0466,-0.0014,9.7847,-0.9745,-0.3844,-1.3862
8250,1117,921,34.44,34.45,0.0149,0.07,9.8714,-0.6111,-0.3336,0.106
8255,1119,920,34.324,34.504,0.0443,-0.0203,9.8036,0.2569,-0.6518,0.0438
8260,1111,923,34.314,34.372,-0.0334,0.0135,9.8025,0.1621,0.5745,0.3355
8265,1106,921,34.481,34.466,0.0392,-0.0134,9.7629,0.181,0.3974,-0.1868
8270,1099,919,34.359,34.417,0.0638,0.0345,9.7883,0.3869,-0.1969,-0.6548
8275,1102,924,34.424,34.393,-0.0381,-0.0417,9.8871,0.0536,0.116,-0.5774
8280,1093,919,34.399,34.483,0.101,0.1084,9.811,-0.0367,-0.0486,-1.2635
8285,1105,925,34.392,34.377,-0.006,0.0832,9.7872,0.5372,-1.0625,-1.4489
8290,1106,919,34.291,34.515,0.0121,0.0236,9.7688,0.3795,-0.3504,0.0706
8295,1093,916,34.379,34.54,-0.0025,-0.062,9.8276,0.6979,0.1449,0.3399
8300,1089,917,34.379,34.404,-0.0683,0.0126,9.7582,0.2965,-0.3179,-0.5435
8305,1093,909,34.41,34.468,0.0193,-0.0185,9.859,-0.2597,-0.9752,0.123
8310,1094,915,34.467,34.41,-0.0017,0.0319,9.9114,-0.4909,-0.0941,0.5353
8315,1089,909,34.413,34.43,-0.1023,0.0734,9.8539,0.8278,0.5835,0.1977
8320,1082,913,34.377,34.422,0.0112,-0.0141,9.8055,0.011,1.2068,0.2122
8325,1083,913,34.455,34.468,-0.0236,-0.0197,9.8046,-0.7279,0.5211,-0.7522
8330,1083,907,34.372,34.509,-0.0266,-0.0499,9.8503,-0.0557,0.2773,0.2411
8335,1072,906,34.374,34.517,-0.0481,-0.0181,9.8803,-1.3831,0.2352,-0.1019
8340,1081,895,34.416,34.43,0.0989,-0.0409,9.8917,-0.3031,-0.3767,-1.5321
8345,1074,899,34.448,34.436,0.0317,-0.0051,9.822,0.2002,0.3209,-0.3812
8350,1070,896,34.353,34.501,0.0645,0.1136,9.8308,-0.4045,-0.1236,-0.199
8355,1066,888,34.319,34.458,-0.0599,-0.1117,9.785,0.0792,-0.0645,0.2352
8360,1078,888,34.468,34.47,-0.0578,-0.0171,9.6708,0.5829,-0.8028,-0.6017
8365,1056,891,34.349,34.408,0.0239,-0.0431,9.8395,-0.1344,-0.0476,-0.1148
8370,1060,887,34.377,34.535,-0.0146,-0.0941,9.7801,-0.1982,-0.0028,-0.073
8375,1063,884,34.45,34.555,-0.0438,0.1005,9.795,0.3982,-0.4487,-0.3108
8380,1050,882,34.465,34.484,0.0324,-0.0314,9.7959,-0.7059,-0.3298,-0.6211
8385,1045,884,34.39,34.374,0.0291,0.0656,9.7693,-0.1355,0.0082,-0.1556
8390,1052,875,34.473,34.449,0.0676,0.017,9.8015,0.5986,-0.2951,-0.677
8395,1039,873,34.475,34.449,-0.0479,0.0364,9.7711,0.1303,-0.1092,0.024
8400,1038,872,34.389,34.485,-0.0695,-0.0588,9.8665,-0.2541,0.1682,0.1659
8405,1044,876,34.376,34.501,-0.0108,0.0403,9.8889,-0.0075,0.3155,0.1807
8410,1024,872,34.456,34.384,0.0445,-0.022,9.814,0.6562,0.4984,-0.8042
8415,1020,874,34.4,34.481,-0.0467,0.0536,9.6921,-0.0793,-0.3422,0.4883
