timestamp_ms,ir_finger,ir_toe,temp_finger,temp_toe,ax,ay,az,gx,gy,gz
0,1043,768,33.609,25.66,0.0348,0.0543,9.8567,0.2651,0.8839,0.7479
5,1053,767,33.646,25.62,0.0259,-0.052,9.873,-0.0758,0.6609,-1.2741
10,1070,765,33.585,25.639,0.0088,0.0717,9.7873,-0.9873,0.0016,-0.36
15,1070,766,33.624,25.652,-0.0216,0.0214,9.8937,0.2043,0.1997,0.6878
20,1084,772,33.536,25.589,-0.0242,0.0281,9.8189,-0.0396,0.1375,0.5321
25,1096,760,33.673,25.584,-0.0057,-0.0357,9.8534,-0.8158,0.4429,-0.3587
30,1103,764,33.569,25.655,-0.0112,0.0271,9.8236,0.2178,-0.5058,0.4251
35,1105,764,33.64,25.686,-0.0301,-0.0414,9.7662,0.2896,-0.0268,-0.6216
40,1122,757,33.616,25.597,0.0303,0.0155,9.7927,-0.1501,-0.1464,0.1046
45,1126,759,33.537,25.617,0.0091,0.0599,9.7439,-0.2939,0.5074,-1.1457
50,1143,764,33.753,25.672,0.0357,0.1285,9.8072,-0.3728,0.446,-0.0558
55,1151,760,33.59,25.641,-0.0247,-0.0636,9.7524,0.311,0.1437,-0.0166
60,1149,758,33.607,25.563,-0.0063,0.0204,9.8053,-0.0286,-0.2193,-1.0354
65,1154,756,33.531,25.622,0.0422,-0.0622,9.7551,0.4202,0.4765,0.4057
70,1159,756,33.614,25.596,0.1079,-0.0288,9.7724,0.4723,-0.419,-0.3262
75,1175,764,33.645,25.662,-0.0122,0.0586,9.8121,0.2879,0.2485,-0.3262
80,1170,756,33.617,25.689,0.0825,0.0327,9.8224,-0.0931,0.0579,0.0562
85,1179,757,33.628,25.584,-0.0822,-0.0546,9.7911,-0.4887,0.4562,-0.3388
90,1172,757,33.618,25.616,0.0075,-0.0895,9.8147,-0.1444,-0.5182,-0.9784
95,1182,753,33.629,25.664,0.0211,-0.007,9.7647,-0.6072,0.5832,0.1203
100,1179,760,33.596,25.659,0.011,-0.0357,9.7817,0.4501,-0.2207,-0.2695
105,1178,756,33.682,25.626,-0.0356,-0.0286,9.7956,-0.797,-0.09,-0.4121
110,1191,760,33.534,25.647,-0.0231,-0.0334,9.891,0.5812,-0.0557,-0.767
115,1187,758,33.646,25.509,-0.0396,0.0758,9.8277,0.4183,-0.0293,0.3228
120,1195,767,33.609,25.727,-0.0132,0.0054,9.8195,-0.4292,-0.0928,-0.8481
125,1194,765,33.638,25.773,-0.0111,-0.0551,9.8719,0.3287,0.0023,0.7628
130,1178,763,33.597,25.621,0.0089,0.0249,9.7776,-0.0187,-0.9322,0.7665
135,1183,767,33.653,25.653,0.0495,-0.0376,9.8726,-0.1675,0.4007,-0.4232
140,1185,763,33.65,25.635,-0.0132,-0.0673,9.8285,0.2453,-0.575,-0.0259
145,1189,768,33.657,25.563,-0.0444,0.0071,9.8421,-0.5259,0.4119,0.0409
150,1189,769,33.52,25.636,-0.0147,-0.0485,9.7726,0.4256,0.0287,0.3986
155,1179,772,33.641,25.602,0.1349,-0.1117,9.805,0.2768,0.4788,-0.7037
160,1178,776,33.603,25.585,0.0137,0.0226,9.7409,-0.2448,-0.3251,1.396
165,1177,768,33.657,25.606,0.0826,-0.0607,9.7988,-0.345,0.2193,-0.1839
170,1179,773,33.594,25.624,-0.0242,0.0174,9.7179,0.1587,0.2115,-0.3174
175,1169,780,33.59,25.563,0.0644,-0.0168,9.8631,0.3824,-0.1456,0.8065
180,1159,775,33.642,25.706,0.0938,-0.0052,9.8098,-0.1565,0.1095,0.7228
185,1165,784,33.563,25.641,-0.0403,-0.0268,9.8206,0.2,-0.0082,0.4273
190,1162,784,33.488,25.698,0.04,-0.0607,9.7434,-0.1872,0.4628,-0.3399
195,1157,786,33.595,25.776,-0.0208,-0.0109,9.7535,0.017,-0.4139,-0.3261
200,1159,789,33.514,25.642,-0.03,-0.0241,9.8335,0.3904,-0.4577,-0.3945
205,1148,789,33.563,25.635,0.0005,0.0593,9.7479,0.4934,0.1466,0.8089
210,1154,790,33.608,25.661,-0.0886,0.0536,9.8374,0.8823,0.7225,-0.0286
215,1150,789,33.691,25.633,-0.0529,0.0328,9.8118,-0.7138,0.3013,-0.1946
220,1138,795,33.646,25.627,-0.0075,0.0012,9.8037,0.0877,-0.0524,0.2666
225,1133,801,33.632,25.62,-0.0314,-0.0394,9.8081,0.5933,-0.4372,0.2728
230,1133,802,33.69,25.638,-0.0228,-0.0491,9.7563,-0.5049,-1.4398,-0.0731
235,1146,804,33.708,25.691,0.0455,0.0103,9.8549,-0.3974,0.9692,-0.1562
240,1126,808,33.638,25.623,0.1055,0.1174,9.8066,0.3459,0.3815,-0.2196
245,1128,804,33.534,25.602,0.078,-0.0239,9.8595,-0.1944,-0.0793,-0.6359
250,1121,800,33.58,25.62,-0.061,0.0052,9.8209,1.121,0.719,-0.0618
255,1129,815,33.686,25.583,0.0318,-0.0147,9.8637,-0.3354,0.3439,-0.0708
260,1120,812,33.457,25.619,-0.0813,0.06,9.7507,-0.01,-0.6509,-0.2086
265,1113,808,33.595,25.583,-0.0552,-0.0651,9.8233,-0.5817,-0.3989,-0.647
270,1108,816,33.549,25.614,-0.0297,0.0728,9.841,-0.9115,0.0578,-0.0046
275,1111,814,33.659,25.64,0.0173,0.0286,9.8674,0.4235,0.4011,0.1977
280,1100,819,33.642,25.635,0.0405,0.0288,9.8178,-0.193,-0.6303,-0.838
285,1112,819,33.537,25.706,0.0792,-0.0179,9.8168,1.0433,0.7076,-0.3372
290,1107,823,33.622,25.664,-0.1052,-0.0506,9.7941,0.6849,0.5592,0.4567
295,1104,821,33.555,25.65,0.045,0.0136,9.756,0.3293,-0.104,-0.2371
300,1112,823,33.536,25.624,-0.0121,0.0096,9.8152,-0.6541,0.6861,0.7633
305,1097,820,33.642,25.575,-0.0492,0.0307,9.8187,0.3045,0.2187,-0.494
310,1088,824,33.663,25.722,0.0821,0.0272,9.8437,0.0308,-0.2599,0.141
315,1100,826,33.656,25.621,-0.0292,-0.016,9.8091,0.4209,0.4606,0.2772
320,1096,828,33.672,25.626,0.0758,-0.0451,9.8082,-0.6191,-0.7603,-0.5945
325,1084,822,33.574,25.579,0.0104,-0.1129,9.835,-0.3112,-0.2321,-0.2127
330,1086,827,33.586,25.653,-0.0345,-0.0265,9.8346,0.7966,-0.6783,-0.1668
335,1084,824,33.623,25.645,-0.0201,0.0172,9.7134,0.6074,-0.4019,0.2656
340,1086,828,33.574,25.63,0.0352,-0.0324,9.8686,-0.8534,-0.5782,-0.3447
345,1081,834,33.59,25.63,0.0327,0.0014,9.8216,-0.3117,0.7848,-0.1856
350,1070,829,33.555,25.651,0.03,0.0207,9.7951,0.4956,0.4765,-0.0767
355,1078,830,33.617,25.685,-0.042,0.0782,9.8417,-0.9266,-0.4754,-0.3264
360,1070,830,33.536,25.619,-0.0034,0.0971,9.7856,0.5639,-0.9007,-0.5154
365,1074,832,33.572,25.688,-0.0424,-0.0355,9.8669,-0.2495,0.986,0.141
370,1056,831,33.533,25.655,0.0163,0.0075,9.7562,-0.7168,-0.4687,0.1167
375,1062,827,33.66,25.612,-0.0594,-0.0196,9.7323,-0.4199,0.023,0.4519
380,1054,829,33.53,25.688,-0.0187,0.0853,9.7681,-0.1283,0.7218,0.5495
385,1060,828,33.636,25.62,-0.0259,-0.1662,9.7718,-0.5894,0.7495,-0.394
390,1052,829,33.571,25.63,0.0167,-0.0221,9.8206,0.1297,0.0909,0.9462
395,1045,835,33.598,25.631,-0.0907,0.1162,9.8454,-0.0593,-1.2854,-0.2564
400,1044,828,33.648,25.696,0.0457,-0.0441,9.9004,0.1456,0.2298,0.1093
405,1039,830,33.607,25.607,0.0312,-0.0403,9.8086,-0.0862,0.6528,-0.339
410,1028,828,33.605,25.62,-0.0455,0.0337,9.7787,0.7214,-0.747,-0.0897
415,1033,828,33.547,25.691,0.114,0.0515,9.8605,0.2939,0.5092,0.1011
420,1036,829,33.54,25.612,0.1025,-0.0704,9.8892,-0.7354,0.2087,-0.3533
425,1012,824,33.563,25.654,-0.0212,0.0306,9.82,0.6256,-0.2933,0.2327
430,1021,828,33.612,25.619,-0.0425,-0.0149,9.8379,-0.4264,-1.1525,0.2486
435,1001,833,33.642,25.679,-0.0996,-0.0445,9.8299,0.2252,-0.5193,0.726
440,998,826,33.595,25.561,0.0199,-0.0359,9.8167,1.019,0.3215,0.0381
445,983,831,33.612,25.668,0.0496,-0.0617,9.7425,-0.4096,-0.3124,0.6325
450,979,824,33.543,25.655,0.0187,0.0718,9.8317,-0.208,0.402,-0.0012
455,973,825,33.638,25.671,0.0303,0.0808,9.8076,-0.2906,0.3487,0.0844
460,966,828,33.627,25.707,-0.0667,-0.0073,9.7898,-0.0616,0.1563,0.4658
465,961,818,33.643,25.647,0.0023,-0.0023,9.7095,0.2927,0.1846,0.3596
470,944,819,33.555,25.607,-0.0578,0.0003,9.7459,0.4195,0.2912,0.1267
475,922,825,33.556,25.568,-0.012,0.0294,9.8548,0.0915,-0.0251,-0.8636
480,939,825,33.633,25.661,0.0299,-0.052,9.7538,-0.4328,0.3672,0.5528
485,927,820,33.641,25.6,-0.1153,0.007,9.796,0.7508,0.4297,0.1188
490,915,820,33.573,25.539,0.0429,-0.0594,9.7288,0.8602,1.1678,-0.3561
495,911,821,33.636,25.65,0.066,0.0607,9.8351,-0.4072,-0.457,-0.1079
500,906,820,33.569,25.614,-0.0062,-0.0165,9.838,0.7218,-0.9528,0.864
505,879,822,33.654,25.58,-0.0141,-0.0066,9.8144,-0.0546,-0.4987,-0.5716
510,874,817,33.583,25.595,-0.0201,-0.0136,9.8576,1.0825,0.5417,-0.2528
515,860,821,33.635,25.68,0.0768,-0.0112,9.862,-0.2008,0.057,0.4888
520,868,813,33.629,25.578,0.0353,-0.0373,9.8567,0.2087,-0.0732,0.0288
525,858,819,33.705,25.587,0.0878,0.1017,9.9148,0.4666,0.3628,-0.5523
530,841,815,33.635,25.62,-0.0194,-0.0166,9.8073,-0.3657,0.091,-0.0947
535,836,816,33.513,25.658,0.0387,-0.0531,9.737,0.5377,0.2155,-0.2647
540,823,817,33.646,25.663,-0.0327,0.0802,9.768,-0.6047,-0.1552,0.5878
545,822,817,33.598,25.658,-0.0236,-0.0186,9.7815,-0.3812,0.2856,-0.3987
550,813,816,33.653,25.632,0.0236,-0.0604,9.8155,0.8522,0.4277,0.713
555,797,819,33.633,25.667,0.009,-0.0339,9.7317,-0.7653,-0.515,-0.0769
560,795,809,33.626,25.673,-0.097,-0.1362,9.8186,0.3268,0.3349,0.2384
565,788,811,33.706,25.63,-0.0127,-0.0741,9.764,-0.2177,-0.4012,0.6392
570,788,818,33.594,25.647,-0.009,-0.0073,9.8861,-0.9508,0.0963,0.6562
575,786,813,33.631,25.608,-0.0202,-0.0214,9.7714,0.0022,-0.272,1.458
580,778,811,33.677,25.692,0.0141,0.0694,9.819,-0.1896,1.5175,-0.5875
585,767,813,33.691,25.632,-0.0673,0.0341,9.8224,0.3499,-0.0648,0.9133
590,751,812,33.668,25.626,-0.1119,0.013,9.8184,-0.154,-0.2997,-0.5902
595,758,813,33.615,25.61,-0.0516,0.0465,9.8764,-0.3037,-1.0605,-0.197
600,762,814,33.566,25.585,-0.0057,0.0455,9.8027,-0.0796,1.1655,-0.1451
605,751,812,33.567,25.587,0.025,0.0716,9.8467,-0.0533,-1.0344,0.0178
610,746,810,33.585,25.618,0.0097,-0.0506,9.7373,-0.0512,-0.4483,0.7899
615,742,813,33.646,25.672,-0.0058,0.0816,9.854,0.6045,-0.6155,-0.1042
620,745,814,33.67,25.664,0.0383,-0.073,9.8433,0.5711,-0.8379,0.2788
625,747,807,33.645,25.611,0.0103,0.0663,9.8312,0.2444,-0.7404,-0.6409
630,753,813,33.651,25.601,-0.0423,-0.0344,9.8269,0.6235,-0.5083,-0.5451
635,759,805,33.618,25.676,-0.0984,-0.0049,9.8476,-1.0873,0.3687,-0.2804
640,754,806,33.601,25.574,-0.0179,-0.0131,9.8637,-0.5062,-0.5132,1.2337
645,750,806,33.638,25.608,0.0014,0.0469,9.7089,-0.1825,0.0095,-0.3675
650,759,809,33.699,25.669,0.0213,-0.0255,9.7842,-0.3453,-0.4295,-0.2935
655,767,806,33.56,25.67,0.0381,0.0248,9.8336,-0.3456,-0.4691,0.5941
660,766,805,33.597,25.6,-0.0262,-0.0662,9.8444,0.4715,-0.1525,0.0268
665,766,803,33.614,25.588,0.029,-0.0383,9.8722,0.6355,-0.4273,-0.4224
670,775,804,33.56,25.668,-0.0272,-0.0293,9.7909,-0.2436,0.3284,-0.3071
675,786,806,33.57,25.734,-0.0165,0.0061,9.7505,-0.065,-0.2907,0.3257
680,794,799,33.554,25.643,-0.0023,-0.0172,9.9155,0.4235,0.5555,-0.2734
685,793,799,33.636,25.668,0.0425,-0.0958,9.8769,-0.7546,0.4272,0.0514
690,803,796,33.553,25.773,0.0559,-0.0287,9.7752,-0.3629,0.0715,-0.1215
695,811,798,33.717,25.609,0.0288,-0.0494,9.8872,-0.4896,0.1808,0.1274
700,820,796,33.583,25.6,0.0084,-0.0094,9.7748,0.2366,-0.4458,-0.4869
705,831,796,33.627,25.699,-0.0212,0.1157,9.8543,-0.7186,0.1701,-0.1519
710,837,792,33.529,25.593,0.0354,0.0533,9.8013,0.4087,-0.1294,0.0128
715,849,793,33.676,25.527,-0.0096,0.0679,9.797,0.6274,0.3791,1.0862
720,859,792,33.608,25.686,-0.0038,-0.0554,9.7746,0.1226,0.3347,-0.0964
725,872,791,33.661,25.613,-0.0521,0.0231,9.8423,0.7535,-0.3283,-0.0543
730,874,790,33.571,25.64,-0.0055,-0.0183,9.7525,0.0252,0.3611,1.0047
735,905,788,33.583,25.696,0.0297,-0.0002,9.8322,1.0856,-0.2996,-0.7897
740,908,784,33.587,25.658,-0.006,-0.0479,9.8087,0.3123,0.3735,-0.7415
745,921,789,33.607,25.584,0.0769,0.041,9.7165,0.0528,-0.0323,0.338
750,930,781,33.489,25.562,-0.0028,-0.0394,9.8186,0.5165,0.1273,0.3827
755,938,783,33.613,25.673,-0.0313,0.0225,9.8284,-0.5902,0.1514,-0.6174
760,952,778,33.614,25.621,0.0014,0.0861,9.7718,-0.0656,-0.7538,0.2082
765,967,782,33.654,25.727,0.0075,0.03,9.8277,-0.5866,-0.0035,0.178
770,977,779,33.639,25.612,0.0246,0.0476,9.838,-0.9059,0.3739,-0.3305
775,988,777,33.568,25.69,-0.1058,-0.0355,9.8562,-0.1349,-0.1972,-0.2306
780,1007,773,33.49,25.571,0.0226,-0.0698,9.8551,0.1324,0.1466,-0.5706
785,1016,775,33.608,25.605,0.004,0.011,9.708,0.0699,1.0951,-0.2748
790,1025,780,33.629,25.671,0.0476,-0.031,9.8439,-0.5102,0.4641,0.0422
795,1033,766,33.666,25.681,-0.0047,-0.0512,9.7926,0.0289,0.6448,0.1998
800,1048,771,33.526,25.544,0.0101,0.0316,9.8091,0.3783,0.1148,0.0775
805,1066,768,33.526,25.722,0.0129,0.0092,9.84,-0.2571,0.5467,-0.5253
810,1075,768,33.702,25.599,-0.0291,-0.0184,9.7864,-0.5878,0.686,0.444
815,1083,771,33.593,25.719,-0.0208,-0.068,9.85,0.1868,0.1757,0.8904
820,1098,762,33.607,25.612,-0.0201,-0.0331,9.8488,-0.0392,0.3194,1.0009
825,1099,762,33.523,25.563,0.0022,0.0296,9.864,-0.5826,-0.2907,-0.4201
830,1106,762,33.634,25.719,0.0035,-0.0075,9.824,-0.1302,-0.4802,-0.2595
835,1117,761,33.594,25.64,-0.002,0.0192,9.857,-0.6072,0.0719,-0.3262
840,1125,757,33.613,25.685,-0.0247,-0.0526,9.7264,-0.3618,0.5615,-0.8127
845,1136,761,33.595,25.647,-0.052,-0.0549,9.8335,-0.7158,-0.567,-0.2401
850,1141,761,33.628,25.605,0.1196,-0.0954,9.735,0.1505,0.6858,0.9867
855,1140,762,33.627,25.653,-0.0902,0.0884,9.8086,0.2499,0.9508,0.4565
860,1156,759,33.547,25.661,0.0283,0.0831,9.8093,0.2404,0.3476,0.3376
865,1160,758,33.591,25.631,-0.0138,-0.0314,9.7562,0.1573,0.827,0.0593
870,1163,755,33.608,25.63,-0.0845,-0.0078,9.8241,-0.2671,-0.3346,-0.763
875,1170,762,33.625,25.708,0.0609,-0.053,9.8137,0.0807,0.5691,0.4984
880,1165,761,33.635,25.651,-0.0431,-0.0337,9.8279,-0.1331,0.1143,0.0299
885,1177,755,33.753,25.61,0.1143,-0.0208,9.7475,-0.3171,0.2488,0.3587
890,1180,758,33.558,25.611,0.1002,-0.0797,9.9077,0.5909,0.4323,0.2963
895,1179,761,33.612,25.654,-0.0682,0.0766,9.7443,0.4501,0.1681,-0.4282
900,1184,759,33.641,25.572,-0.0405,0.0802,9.7985,0.441,-0.1519,1.0586
905,1174,760,33.576,25.606,0.0367,-0.0094,9.8038,0.5661,0.5277,-0.1083
910,1188,764,33.577,25.625,-0.0362,0.0539,9.736,0.536,-0.3716,0.159
915,1185,766,33.573,25.664,0.0344,0.0536,9.7419,-0.0739,0.9418,0.3869
920,1180,766,33.728,25.689,0.0075,-0.0065,9.7675,0.6761,0.1884,-0.2643
925,1193,762,33.537,25.596,0.0382,-0.0353,9.7789,0.0774,-0.1073,-0.1582
930,1188,767,33.537,25.642,-0.0144,-0.0443,9.8222,-0.0488,-0.167,0.1039
935,1191,767,33.648,25.696,-0.015,-0.0655,9.8585,1.1114,-0.1547,-0.2669
940,1179,774,33.552,25.578,-0.0043,-0.0169,9.7619,0.1858,-0.6595,-0.3227
945,1184,770,33.521,25.598,-0.022,0.0144,9.8813,0.3812,0.6005,0.2004
950,1188,772,33.614,25.66,-0.0027,0.0254,9.7992,-0.1107,-0.4142,0.671
955,1182,771,33.58,25.653,0.0496,0.0609,9.7794,-0.3382,-0.611,0.2366
960,1169,775,33.623,25.597,-0.0403,0.0681,9.8196,0.5428,-0.2761,1.0727
965,1172,777,33.626,25.6,0.0209,-0.0502,9.8292,0.2988,-0.1433,0.0481
970,1176,782,33.618,25.711,-0.0531,-0.0452,9.9289,0.1267,-0.2369,-0.4749
975,1165,779,33.593,25.634,-0.1344,0.0223,9.8519,0.5707,-0.1626,0.9636
980,1169,782,33.612,25.7,-0.0059,-0.1207,9.8628,0.6178,-0.2324,0.3585
985,1160,783,33.657,25.63,-0.0163,-0.0266,9.833,-0.7262,-0.4693,-0.2107
990,1156,778,33.539,25.662,-0.0112,0.0033,9.7844,-0.4084,-0.6534,-0.5531
995,1150,784,33.648,25.672,0.0442,0.1049,9.8541,0.3169,-0.2062,0.0579
1000,1144,781,33.564,25.621,-0.0288,-0.0213,9.9031,0.2321,0.2583,-0.3942
1004,1152,786,33.485,25.709,-0.1047,-0.0329,9.7789,0.732,-0.2314,0.2933
1010,1152,789,33.623,25.624,-0.0731,-0.0049,9.8757,0.5758,0.3396,0.6085
1014,1143,791,33.648,25.667,-0.0172,0.0487,9.8762,-0.3449,0.5002,-0.5288
1020,1134,797,33.633,25.604,-0.0226,-0.0348,9.8886,0.6267,-0.0114,-0.2923
1025,1139,795,33.578,25.764,-0.0272,-0.0715,9.7086,0.0456,0.1398,-0.3817
1030,1134,802,33.578,25.695,-0.0245,-0.0013,9.7197,0.2954,-0.4396,0.8905
1035,1128,800,33.572,25.679,-0.0398,0.0198,9.8415,-0.6382,0.35,0.0842
1040,1127,803,33.617,25.573,-0.046,0.1037,9.8358,0.8273,0.4947,0.1625
1045,1125,807,33.745,25.655,-0.0186,0.0796,9.8753,0.0433,-0.1051,0.6573
1050,1127,809,33.616,25.604,0.0425,-0.0593,9.8357,-0.1948,0.3558,-0.0691
1055,1120,806,33.6,25.692,-0.0113,-0.0268,9.8009,0.2592,-0.458,-0.9035
1060,1109,815,33.58,25.667,0.0654,-0.1139,9.7641,-0.2806,-0.3061,0.1057
1065,1114,815,33.557,25.612,-0.0945,0.0483,9.7959,-0.026,-0.3865,0.2066
1070,1115,819,33.612,25.71,-0.0049,-0.0653,9.7967,-0.5945,0.3573,0.3055
1075,1107,816,33.504,25.74,0.0335,-0.0276,9.8503,-0.1978,-0.3141,-0.3443
1080,1103,817,33.568,25.643,-0.0052,-0.0527,9.8783,0.4226,-0.3044,-0.0932
1085,1098,818,33.665,25.652,-0.0466,-0.0192,9.7771,0.1991,-0.0154,-0.0717
1090,1105,823,33.656,25.778,0.0986,-0.0353,9.7067,0.1823,0.0187,0.1876
1095,1107,820,33.582,25.653,0.0703,0.0637,9.8382,-0.8692,-0.1841,0.0086
1100,1097,821,33.596,25.566,0.0478,0.0327,9.7938,0.3415,-0.1433,-0.9719
1105,1095,822,33.65,25.637,0.0012,0.0397,9.7309,-0.093,0.6988,-0.1183
1110,1094,826,33.616,25.614,-0.0417,-0.0319,9.8515,-0.5264,-0.7583,0.4601
1115,1095,828,33.641,25.699,0.056,0.0509,9.8333,0.4006,-0.289,-0.3729
1120,1095,824,33.665,25.68,0.0637,-0.0133,9.824,0.0492,-0.0384,0.6696
1125,1093,824,33.617,25.63,-0.0861,-0.0484,9.8147,0.6611,0.3552,0.1678
1130,1084,829,33.637,25.672,-0.0254,0.0087,9.8366,0.081,0.1134,0.0162
1135,1084,828,33.599,25.631,0.0897,0.0735,9.7272,0.1147,0.8865,-0.5373
1140,1077,829,33.683,25.715,0.0271,0.0745,9.7392,-0.3565,-0.684,0.182
1145,1078,831,33.595,25.701,0.0668,0.0247,9.7662,-0.3545,-0.7683,0.5958
1150,1077,825,33.603,25.661,-0.0236,-0.0149,9.7749,0.3376,0.121,-0.474
1155,1073,826,33.609,25.594,0.0633,-0.0882,9.7401,0.4016,0.8222,-0.033
1160,1065,831,33.569,25.567,-0.0232,-0.0154,9.7835,0.0536,-0.3699,0.5407
1165,1063,834,33.589,25.628,-0.0387,-0.0345,9.7978,-1.0154,0.5383,0.5003
1170,1062,828,33.753,25.673,0.0774,-0.0047,9.8123,-0.317,-0.4275,0.6503
1175,1055,830,33.635,25.68,-0.0407,0.0007,9.8064,0.5734,0.4614,0.0353
1180,1055,830,33.465,25.57,-0.006,-0.1078,9.9096,0.2821,0.0481,0.0617
1185,1056,829,33.626,25.667,-0.0766,-0.0045,9.8626,0.4076,0.4982,-0.4777
1190,1049,832,33.566,25.666,-0.1248,-0.0888,9.8092,-0.302,0.8138,-0.351
1195,1045,829,33.586,25.726,-0.0413,0.0338,9.7158,0.1898,-0.0129,0.6571
1200,1034,830,33.559,25.685,0.0919,0.0113,9.7927,-0.3664,-0.0633,0.0577
1205,1036,834,33.682,25.64,0.0411,0.0325,9.851,0.4367,-0.4515,-0.7511
1210,1032,833,33.597,25.664,-0.0449,0.0889,9.7699,-1.2923,0.3483,0.206
1215,1029,828,33.692,25.639,0.0577,0.0501,9.8047,0.9659,-0.2887,0.2985
1220,1029,828,33.636,25.743,-0.0209,-0.0317,9.851,-0.0671,-0.3524,-0.8713
1225,1001,827,33.621,25.688,0.0198,0.0581,9.6954,0.6603,0.367,0.0696
1230,1013,820,33.612,25.625,0.0392,-0.0067,9.8181,0.0357,0.7834,0.0409
1235,998,825,33.619,25.64,-0.0686,0.0088,9.7988,-0.7586,-0.7684,0.9501
1240,992,827,33.522,25.623,-0.029,-0.0269,9.8847,0.1073,-0.4151,0.3214
1245,986,823,33.592,25.644,0.0273,-0.0768,9.7433,0.0811,0.3994,-0.4971
1250,980,825,33.56,25.683,0.012,-0.0117,9.7815,0.4036,-0.4386,-0.3714
1255,974,821,33.605,25.626,0.0443,0.0774,9.8418,-0.2174,-0.6352,0.4184
1260,969,827,33.693,25.684,0.0684,-0.0027,9.7903,0.2709,-0.159,0.0967
1265,944,821,33.642,25.687,0.0178,-0.0277,9.8486,-0.2603,-0.5778,-0.1206
1270,940,822,33.57,25.573,-0.0194,0.0047,9.8139,-0.0308,0.6111,-0.88
1275,941,819,33.644,25.651,0.0456,0.0455,9.845,0.7192,-0.436,-0.7387
1280,925,824,33.585,25.681,0.0305,-0.169,9.7145,0.0708,0.8833,0.3648
1285,912,822,33.654,25.622,0.0034,0.015,9.7962,0.3934,0.2214,0.0837
1290,916,822,33.606,25.592,0.0147,-0.0267,9.8121,-0.2312,0.107,-0.0615
1295,900,819,33.617,25.598,-0.0441,0.0024,9.7408,-0.1571,0.2891,-0.6855
1300,888,824,33.584,25.696,0.0219,0.0035,9.8416,-0.3645,-0.9023,0.2082
1305,883,818,33.627,25.691,0.0151,-0.0276,9.9106,-0.1461,0.1453,-0.2924
1310,869,813,33.722,25.672,-0.027,-0.0584,9.813,-0.6645,-0.2837,-0.3032
1315,869,813,33.575,25.718,-0.0064,-0.0479,9.7236,1.0479,-0.1946,-0.2902
1320,858,821,33.689,25.759,-0.0626,0.0061,9.758,0.6039,0.4437,-0.2906
1325,848,818,33.557,25.683,0.0361,0.0022,9.7831,-0.4862,-0.9067,0.1587
1330,837,815,33.601,25.568,-0.0249,-0.0866,9.7886,0.4058,0.4035,-0.9635
1335,829,813,33.631,25.657,-0.0279,-0.03,9.7713,0.704,0.2181,-0.4486
1340,823,814,33.689,25.67,-0.0497,0.0847,9.7562,-0.2499,-0.3594,0.5633
1345,818,817,33.609,25.658,0.0304,0.0899,9.7589,0.7629,0.0047,0.2925
1350,807,818,33.661,25.709,0.0127,-0.0329,9.8493,-0.3973,-0.1106,0.9509
1355,801,817,33.679,25.607,0.017,0.0013,9.8268,-0.2091,-0.4551,-0.0015
1360,799,813,33.618,25.632,-0.0147,-0.0559,9.842,-0.6593,-1.2279,0.0158
1365,783,816,33.63,25.636,0.0331,-0.0171,9.7712,-0.4399,-0.4346,-0.3691
1370,781,809,33.592,25.626,0.0138,-0.0122,9.7551,-0.0541,-0.5714,-0.0302
1375,783,813,33.682,25.731,0.081,-0.0632,9.7811,0.2882,0.1878,0.3548
1380,761,815,33.619,25.613,0.0735,0.0585,9.8272,0.0058,-0.5168,0.2222
1385,766,816,33.672,25.743,0.0255,0.0148,9.8693,-0.9896,0.1867,-0.7682
1390,752,811,33.605,25.731,0.0216,0.0076,9.7216,-0.3081,-0.0602,0.156
1395,761,811,33.665,25.692,0.0367,-0.0593,9.8482,-1.0255,-0.4173,-0.3572
1400,755,814,33.668,25.677,-0.0086,0.0083,9.8129,0.3403,-0.1312,-0.4694
1405,747,811,33.622,25.647,0.0528,0.0707,9.8109,-0.17,-0.3781,1.026
1410,746,808,33.604,25.633,-0.0167,-0.0639,9.7264,0.7993,-0.0592,-0.3556
1415,745,806,33.592,25.718,0.0136,-0.0354,9.79,-0.7694,0.1725,-0.002
1420,761,815,33.649,25.689,-0.0207,0.0141,9.8237,-0.4512,-0.1435,-0.8967
1425,747,810,33.605,25.712,0.0606,0.0785,9.8204,-0.3217,0.1476,0.9199
1430,749,807,33.632,25.638,-0.0655,0.0783,9.8231,-0.7851,-0.5718,-0.6408
1435,751,809,33.598,25.644,0.1214,0.0281,9.7732,-1.029,-0.0535,-0.4593
1440,743,809,33.628,25.761,-0.0425,0.0574,9.8134,-0.1414,1.649,-0.5068
1445,765,806,33.715,25.698,-0.1763,-0.0622,9.8297,-0.2691,-0.0225,-0.0639
1450,754,808,33.592,25.648,0.0181,-0.0511,9.8375,-0.7756,0.4678,-0.2882
1455,762,810,33.655,25.618,-0.0147,0.0201,9.7427,-0.0838,-0.8295,0.0943
1460,762,802,33.664,25.674,0.0255,-0.0615,9.8419,-1.0473,-0.3769,0.2181
1465,773,802,33.705,25.595,0.0732,-0.038,9.8161,0.591,0.1515,0.4055
1470,780,804,33.597,25.642,0.0385,0.0446,9.8238,-0.3577,-0.1583,0.6896
1475,770,806,33.529,25.659,-0.0563,0.0096,9.7735,0.0956,-0.7112,-0.7938
1480,793,799,33.703,25.649,-0.0129,0.0157,9.803,-0.3566,0.5083,-0.063
1485,803,801,33.609,25.682,-0.0066,0.024,9.871,0.2764,-0.4466,-0.4692
1490,813,802,33.598,25.666,0.0745,0.0558,9.8461,0.2966,-0.1202,0.701
1495,811,796,33.644,25.612,0.1337,-0.0618,9.828,1.5564,0.2459,0.1467
1500,816,794,33.624,25.667,-0.0258,-0.0623,9.807,-0.732,0.0236,-0.0156
1505,837,793,33.625,25.694,-0.0264,-0.0315,9.8953,-0.2586,0.3768,-0.2237
1510,847,797,33.633,25.645,-0.0886,-0.0137,9.8378,0.3663,-0.6891,0.8915
1515,851,790,33.582,25.66,0.0048,-0.0389,9.7979,0.7426,0.0624,-0.0355
1520,863,791,33.561,25.741,-0.0292,0.0282,9.7685,-0.1786,0.4251,0.3134
1525,878,793,33.576,25.649,-0.0266,-0.0468,9.7754,-0.4429,0.0882,0.3052
1530,883,789,33.524,25.608,-0.0434,0.0106,9.8096,0.8098,-0.1724,-0.1999
1535,896,786,33.574,25.635,-0.0055,-0.0296,9.8141,0.3574,0.0696,-0.4693
1540,903,783,33.616,25.651,-0.0069,-0.0015,9.7136,-0.0816,0.0424,0.3149
1545,922,785,33.578,25.671,0.0294,-0.1049,9.812,-0.3125,0.4707,0.472
1550,947,784,33.629,25.695,-0.0816,0.0156,9.7455,-0.3494,0.9448,-0.2485
1555,940,780,33.588,25.645,0.1534,0.046,9.8466,0.2719,0.0797,-0.2932
1560,970,775,33.613,25.675,0.0467,0.0508,9.7737,-1.3747,0.2162,0.1647
1565,970,779,33.571,25.704,0.0044,0.0111,9.8899,0.3933,0.3694,0.7636
1570,986,775,33.619,25.629,0.0705,0.0017,9.7634,0.4319,0.5403,0.2536
1575,995,780,33.673,25.655,-0.0009,-0.0065,9.7767,-0.1287,-0.5927,-0.4303
1580,999,775,33.611,25.588,0.0265,0.0121,9.8333,0.3921,-0.3069,-0.2627
1585,1016,772,33.638,25.538,-0.005,0.0151,9.7965,-0.0976,0.9273,0.6593
1590,1035,771,33.554,25.618,-0.0766,-0.0387,9.9005,0.6275,-0.3583,0.8457
1595,1034,771,33.696,25.723,0.0767,0.1195,9.769,0.6319,0.0131,0.8895
1600,1061,770,33.635,25.653,-0.0119,0.0089,9.7527,0.6113,0.3387,-0.1841
1605,1062,765,33.6,25.626,-0.0401,-0.0715,9.7432,-0.7116,-0.0344,0.0029
1610,1073,764,33.595,25.633,-0.0602,-0.0307,9.864,-0.2591,0.2598,1.1587
1615,1086,764,33.563,25.692,0.0548,0.0397,9.8272,0.7864,0.3407,1.3649
1620,1098,766,33.583,25.716,0.0035,0.0693,9.7954,-0.1609,-0.5306,0.2847
1625,1099,763,33.618,25.688,-0.004,0.0922,9.8416,-0.0692,0.2077,-0.6788
1630,1116,761,33.649,25.653,-0.0802,0.0336,9.7683,0.8993,0.2729,-0.0917
1635,1124,764,33.608,25.747,-0.0618,0.0328,9.8169,0.5969,-0.5798,-0.5205
1640,1132,768,33.558,25.619,0.032,-0.0418,9.8792,-0.36,-0.0757,-0.0595
1645,1132,758,33.651,25.596,0.0674,-0.0019,9.7327,0.3888,0.3291,-0.0882
1650,1142,759,33.69,25.637,-0.0236,-0.0181,9.8633,0.347,-0.6403,-0.6757
1655,1153,761,33.593,25.634,-0.0126,-0.013,9.8417,0.4769,-0.1642,0.1119
1660,1143,760,33.606,25.685,0.0235,-0.0275,9.8693,0.2076,-0.5165,0.2006
1665,1161,759,33.531,25.646,-0.0876,0.0248,9.816,0.0952,0.8058,0.0938
1670,1176,759,33.574,25.649,0.0025,-0.09,9.8621,-0.2664,-0.2228,0.2018
1675,1165,759,33.645,25.678,-0.0194,0.0714,9.87,-0.4963,1.0316,0.1522
1680,1170,765,33.643,25.678,0.0277,-0.0125,9.7327,-0.0271,-0.0433,-0.5479
1685,1175,755,33.613,25.721,-0.0449,-0.0018,9.8246,0.5849,-0.6732,0.0016
1690,1192,764,33.55,25.594,0.0383,0.0403,9.7599,-0.509,0.0024,0.8365
1695,1178,765,33.595,25.593,-0.0074,-0.0538,9.8264,0.1505,-0.5283,-0.2047
1700,1178,758,33.58,25.685,0.0489,0.0014,9.8663,0.3767,0.2832,1.0528
1705,1181,761,33.524,25.555,0.0956,-0.09,9.8277,0.1781,0.0773,0.3711
1710,1188,761,33.588,25.685,0.0627,0.0055,9.7198,-0.548,-0.096,-0.1033
1715,1195,762,33.536,25.625,-0.0502,0.0142,9.8237,-0.0432,-0.0895,-0.1986
1720,1195,766,33.669,25.656,-0.0186,-0.0467,9.8724,-0.5615,-0.3243,0.3442
1725,1187,768,33.585,25.639,-0.0478,-0.0701,9.7288,-1.2389,-0.6094,0.1762
1730,1184,769,33.532,25.622,0.0219,0.1307,9.8001,0.5257,-0.5319,-0.5359
1735,1179,768,33.572,25.688,-0.0006,0.0101,9.7183,-0.5596,0.2725,-0.1469
1740,1187,769,33.729,25.671,-0.0398,-0.0092,9.8749,0.3776,-0.1261,-0.7105
1745,1177,768,33.547,25.63,-0.0401,-0.0781,9.7784,0.5337,0.0223,-0.0652
1750,1177,779,33.645,25.637,-0.0859,-0.0013,9.8619,0.7359,-0.2561,0.5971
1755,1174,770,33.626,25.661,0.014,0.0064,9.8179,0.5966,-0.9942,0.1776
1760,1180,773,33.693,25.637,0.0092,0.0391,9.8546,0.3611,-1.9804,-0.0104
1765,1173,774,33.632,25.673,0.0151,0.0299,9.8009,-0.0177,-0.4138,0.7435
1770,1174,778,33.59,25.569,-0.0064,0.0111,9.797,-0.4579,0.3421,-0.5501
1775,1164,780,33.641,25.69,0.0059,0.0355,9.8665,0.2344,0.6208,-0.5608
1780,1164,781,33.694,25.646,-0.0559,0.0228,9.8351,0.6989,0.4403,-0.1202
1785,1163,785,33.582,25.596,-0.072,-0.0147,9.773,0.7281,0.1866,0.4789
1790,1158,784,33.671,25.686,0.0525,-0.0778,9.7795,-0.2144,-0.4316,0.3576
1795,1154,790,33.637,25.668,0.0874,-0.011,9.8526,0.0787,1.0223,-0.7549
1800,1144,791,33.652,25.69,-0.053,0.0558,9.7417,0.4941,-0.6315,-1.0445
1805,1159,791,33.647,25.626,0.0157,-0.0198,9.8207,-0.2975,0.0338,1.6736
1810,1150,792,33.507,25.75,-0.0025,-0.0888,9.7453,0.0228,-0.3491,-0.3455
1815,1146,796,33.668,25.633,0.0393,0.0353,9.7782,-0.6939,0.8705,-1.0722
1820,1137,794,33.625,25.665,0.0785,-0.0189,9.8734,0.303,-0.8246,-0.3417
1825,1144,796,33.622,25.661,-0.0433,0.055,9.7875,0.2079,0.0057,0.0824
1830,1134,802,33.694,25.626,-0.0268,-0.0143,9.7229,0.5748,-0.5222,-0.0243
1835,1125,799,33.663,25.724,0.0599,-0.0514,9.7919,-0.3386,0.1519,-0.1209
1840,1127,804,33.684,25.681,0.0469,-0.0023,9.7433,-0.7718,-0.0056,-0.6832
1845,1126,801,33.574,25.751,0.0095,0.0103,9.8307,0.3666,0.1515,-0.0894
1850,1121,811,33.646,25.687,-0.0351,-0.0531,9.8347,-0.4571,-0.8296,0.1717
1855,1102,807,33.623,25.682,0.0311,0.0806,9.874,0.1031,-0.6018,0.0355
1860,1119,809,33.717,25.673,0.0207,-0.0561,9.8207,-0.1946,0.0266,-0.9199
1865,1116,811,33.62,25.629,-0.0022,0.0403,9.8106,0.0239,0.362,-0.0207
1870,1101,816,33.537,25.641,0.0418,0.037,9.9055,0.4165,0.43,0.5814
1875,1107,815,33.629,25.686,-0.0866,-0.0339,9.8851,-0.1703,0.636,0.3025
1880,1108,817,33.678,25.552,-0.0148,-0.0215,9.8696,-0.8898,0.1285,-0.1786
1885,1111,817,33.66,25.684,0.0905,-0.0146,9.74,0.5605,-0.8485,0.1872
1890,1095,814,33.6,25.611,-0.0499,-0.0258,9.787,-0.7301,-0.4247,-0.551
1895,1096,827,33.719,25.594,-0.0715,0.0685,9.7734,0.5343,-0.1641,0.4047
1900,1094,818,33.635,25.669,0.0697,0.0271,9.8214,0.0393,0.0204,0.6793
1905,1094,822,33.664,25.694,-0.0958,0.1381,9.8074,-0.5427,0.5857,-1.1583
1910,1095,826,33.749,25.667,-0.073,-0.0224,9.8752,-0.212,0.0917,0.2486
1915,1091,825,33.591,25.675,-0.0427,0.0866,9.7382,-0.1721,-0.0144,-0.7384
1920,1075,826,33.633,25.55,-0.021,0.0973,9.7498,-0.8049,0.1777,0.9538
1925,1086,826,33.715,25.554,0.0501,0.0082,9.897,-0.244,0.5357,0.3479
1930,1074,830,33.561,25.635,0.0324,-0.0068,9.8203,0.0877,0.3445,0.4048
1935,1078,831,33.529,25.672,-0.0233,0.0778,9.8216,0.2109,-0.773,0.1049
1940,1078,831,33.589,25.604,0.0171,-0.0334,9.8377,0.0956,-0.8944,0.8404
1945,1071,830,33.63,25.601,0.022,0.0628,9.7826,-0.1606,0.5633,-0.4564
1950,1070,825,33.608,25.672,0.0317,-0.0623,9.8684,-0.1712,-0.3959,0.1884
1955,1081,830,33.634,25.659,-0.0091,0.0601,9.8205,0.3729,-0.7845,0.2906
1960,1072,834,33.572,25.688,0.0473,0.0443,9.7467,0.3492,0.6595,0.9111
1965,1065,835,33.656,25.659,0.103,-0.0023,9.8615,-0.3427,-0.6962,0.7226
1970,1065,834,33.667,25.736,0.0182,-0.0362,9.8065,0.1496,0.101,-0.1323
1975,1061,830,33.671,25.675,0.0024,-0.0001,9.7919,0.3557,0.9283,-0.1605
1980,1049,829,33.693,25.707,-0.0338,-0.0447,9.8025,0.8055,-1.1513,0.6912
1985,1048,831,33.513,25.755,-0.0204,0.0083,9.8029,-0.4088,-0.4103,0.5705
1990,1047,828,33.711,25.685,-0.0689,0.0306,9.8798,-0.0432,-0.415,0.7425
1995,1033,835,33.751,25.636,0.1048,-0.0267,9.868,-0.0146,0.4897,-0.3106
2000,1032,831,33.641,25.757,0.0051,0.0038,9.8992,-0.0927,0.8998,1.2209
2005,1031,831,33.622,25.637,-0.0399,0.0042,9.8056,0.0309,1.1261,0.3316
2009,1025,828,33.64,25.653,-0.0563,0.0726,9.8539,0.3634,0.481,-0.3658
2015,1023,825,33.591,25.656,0.0719,-0.0072,9.8635,-0.1869,-0.835,-0.1777
2020,1020,829,33.657,25.549,-0.0448,-0.1207,9.6709,0.4317,0.2687,-0.3754
2025,1009,831,33.708,25.587,0.003,-0.1222,9.8171,0.3882,0.3822,0.0762
2029,1000,828,33.602,25.656,-0.0789,-0.0092,9.7812,-0.7577,0.4182,0.2236
2035,997,825,33.533,25.742,0.0975,0.0515,9.8501,0.2467,-0.5365,0.434
2040,991,825,33.532,25.726,-0.0059,0.0127,9.8902,0.2111,0.1178,0.5109
2045,974,823,33.647,25.607,0.0058,0.0558,9.8439,-0.0872,0.2299,0.1059
2050,977,828,33.503,25.705,-0.0377,-0.0216,9.8232,-0.5982,-0.4807,-0.1215
2055,961,824,33.542,25.624,-0.0397,-0.0641,9.7538,0.1298,-0.183,0.3796
2060,963,822,33.652,25.748,-0.0024,0.063,9.7459,1.1437,0.0831,-0.1721
2065,947,825,33.697,25.689,0.0431,-0.0674,9.8173,-0.1664,0.5804,-0.1597
2070,933,818,33.581,25.69,0.0247,0.089,9.832,0.3632,-0.1632,-0.6601
2075,925,825,33.714,25.659,0.0594,-0.0242,9.7729,0.122,-0.2637,0.2519
2080,923,829,33.545,25.643,0.0476,0.0428,9.7999,1.0168,-0.5976,-0.9861
2085,916,821,33.741,25.644,0.0206,0.0163,9.8313,0.5092,-1.0742,-0.4757
2090,908,822,33.514,25.678,0.0381,-0.094,9.834,0.1697,0.2183,-0.0721
2095,898,822,33.64,25.65,0.0405,-0.0015,9.7757,-0.0949,0.1691,-0.1063
2100,880,819,33.631,25.601,0.0056,0.0568,9.8733,0.9225,-0.0117,-0.3943
2105,871,816,33.614,25.598,0.0382,0.0299,9.8423,-0.2704,0.0827,-0.531
2110,864,819,33.668,25.672,0.0028,-0.0426,9.8483,0.5884,0.3331,-0.3405
2115,855,818,33.619,25.571,0.0588,-0.0211,9.7404,0.5608,0.6627,-0.0083
2120,849,819,33.67,25.713,0.0302,-0.0419,9.746,-1.3333,-0.6161,-0.342
2125,851,817,33.641,25.629,0.0339,0.0116,9.8186,0.1477,-0.048,0.053
2130,830,815,33.714,25.611,-0.0651,-0.0392,9.8257,0.6922,-0.3304,0.2976
2135,824,811,33.611,25.603,0.0808,0.0099,9.7013,0.1564,-0.5332,-0.0945
2140,824,818,33.681,25.581,0.0742,0.0238,9.8309,-0.1173,-0.2085,-0.068
2145,801,817,33.571,25.692,0.0513,0.085,9.8704,-0.9367,0.1822,-0.0454
2150,806,813,33.612,25.664,-0.0061,-0.0166,9.778,-0.3055,-0.6924,-0.2054
2155,795,818,33.646,25.74,0.068,-0.0252,9.8645,0.103,0.1222,-0.6621
2160,787,811,33.658,25.681,-0.001,-0.0241,9.7901,-0.0702,0.5523,-0.1197
2165,777,814,33.561,25.696,-0.0359,0.04,9.8138,-0.2231,-0.1892,-0.7395
2170,772,809,33.727,25.649,-0.0267,0.092,9.7952,-0.464,0.3411,0.1141
2175,769,816,33.623,25.765,0.0072,0.0504,9.8897,0.5178,1.1733,0.6452
2180,769,816,33.683,25.709,-0.0507,-0.0142,9.8002,-0.081,0.229,-0.3493
2185,762,813,33.605,25.726,-0.09,-0.0066,9.7747,-0.3849,0.2895,1.1854
2190,760,809,33.666,25.66,0.0986,0.0375,9.77,-2.0512,-0.2758,-0.011
2195,752,811,33.48,25.619,0.0298,-0.0049,9.8143,0.2737,0.551,0.6779
2200,759,812,33.57,25.726,0.1117,0.0017,9.7793,-0.1808,0.5243,0.58
2205,749,811,33.608,25.693,0.0255,-0.0268,9.8576,-0.09,-0.549,-0.0549
2210,749,813,33.715,25.767,0.0485,0.0789,9.7474,0.5412,0.1857,-0.0057
2215,743,811,33.564,25.631,0.019,0.0615,9.8446,-0.0223,-0.9747,1.3829
2220,744,812,33.552,25.622,-0.0129,-0.0301,9.7937,-0.1288,-0.1973,-0.7804
2225,741,809,33.653,25.745,-0.0107,0.0043,9.8665,0.1583,-0.0138,0.0545
2230,750,808,33.573,25.594,0.0465,-0.067,9.8012,0.9708,-0.8562,-0.5345
2235,744,813,33.717,25.668,-0.0109,0.0274,9.7833,-0.6703,0.6003,0.1475
2240,750,812,33.609,25.708,0.0013,0.0184,9.8684,0.3265,-0.1663,-0.603
2245,753,807,33.579,25.668,0.0516,0.0164,9.7896,0.0014,-0.6416,-0.56
2250,768,806,33.603,25.681,-0.0734,0.0838,9.8181,0.3785,-0.2867,-0.3723
2255,772,813,33.671,25.681,0.0735,-0.0531,9.7987,-0.7942,-0.4266,-0.5215
2260,759,795,33.606,25.642,0.0373,-0.0532,9.8104,-0.7045,-0.7268,-0.3809
2265,783,807,33.64,25.537,0.0307,0.0585,9.8043,0.0498,0.2232,-0.0889
2270,781,795,33.62,25.599,-0.0431,0.0069,9.8342,0.3028,0.459,-0.3191
2275,789,802,33.678,25.654,-0.0073,0.0059,9.7263,0.2778,0.198,0.2443
2280,794,797,33.656,25.707,0.0405,0.0191,9.7522,-0.0084,0.2951,0.0709
2285,797,799,33.73,25.636,-0.0762,0.0156,9.834,-0.4714,-0.4477,-0.8646
2290,813,796,33.639,25.738,-0.0725,0.014,9.7917,-0.6728,-0.3387,-0.5751
2295,819,795,33.631,25.582,0.0004,-0.0499,9.8262,-0.2452,0.2066,0.8919
2300,835,794,33.58,25.598,0.0107,0.0496,9.8037,-0.6728,0.1768,0.178
2305,841,791,33.556,25.634,0.0011,0.021,9.709,-0.4726,0.3379,-0.8051
2310,849,795,33.615,25.664,-0.0407,0.0708,9.8507,0.0388,0.4494,-0.4033
2315,870,793,33.613,25.569,0.0154,0.0056,9.8024,-0.7813,-0.1675,0.4931
2320,875,789,33.665,25.718,0.0204,0.0452,9.7511,-0.1045,0.3822,-0.2739
2325,886,795,33.635,25.589,-0.0867,0.0043,9.7807,-0.0101,0.3072,-0.4849
2330,895,786,33.621,25.672,-0.0375,-0.0228,9.8407,-0.5091,0.1364,0.6077
2335,920,791,33.659,25.686,0.0372,-0.0012,9.861,0.571,0.4174,0.5421
2340,924,781,33.592,25.711,0.0042,0.0056,9.8493,0.4252,-0.4687,0.7562
2345,935,776,33.619,25.573,0.0051,-0.072,9.7478,-0.1692,0.1304,-0.1093
2350,941,786,33.715,25.645,-0.0309,-0.0268,9.7911,0.0146,-0.2087,1.3706
2355,958,779,33.677,25.665,0.0109,-0.0018,9.8594,-0.4275,-0.9321,-0.4482
2360,963,778,33.619,25.601,-0.0406,-0.0687,9.7684,0.9969,-0.8688,0.3847
2365,983,776,33.58,25.678,-0.0204,-0.0365,9.8066,0.2619,-0.4241,0.5084
2370,986,770,33.671,25.644,-0.0563,0.0314,9.7407,0.1755,-0.9909,-0.7744
2375,1001,771,33.669,25.653,0.0439,-0.0194,9.7767,-0.1586,-1.1062,-1.1399
2380,1026,775,33.672,25.694,0.0422,0.0124,9.8173,-0.0327,0.3137,-0.0364
2385,1034,772,33.649,25.702,-0.006,-0.0336,9.8362,-0.102,0.5713,-0.0168
2390,1036,774,33.551,25.594,-0.0905,0.0347,9.7881,-0.5021,-0.4527,-0.0792
2395,1043,775,33.516,25.63,-0.0577,0.0276,9.8583,-0.8839,-0.6025,0.2356
2400,1066,772,33.616,25.586,-0.0292,0.0559,9.7785,0.7777,0.64,0.3709
2405,1063,765,33.656,25.634,0.0075,0.0421,9.8359,0.3639,-0.8101,-0.5086
2410,1090,763,33.591,25.663,0.008,-0.0426,9.7872,0.4574,0.1457,-1.2333
2415,1085,765,33.571,25.665,-0.0285,-0.0936,9.7273,0.5879,0.2448,-0.7037
2420,1100,761,33.59,25.635,0.0369,-0.0031,9.7717,-0.5234,0.7371,-0.8843
2425,1103,764,33.687,25.66,-0.038,0.0772,9.81,0.7783,-0.4239,0.0194
2430,1120,763,33.636,25.658,0.0118,-0.0067,9.8742,0.2118,0.289,-0.5547
2435,1137,762,33.586,25.626,-0.0294,0.0497,9.7654,0.2232,-0.348,0.3035
2440,1133,762,33.683,25.721,0.0218,0.0137,9.8687,-0.5448,-0.3782,-0.4101
2445,1153,762,33.619,25.698,0.0112,-0.0132,9.8129,0.8094,-0.3795,0.6511
2450,1147,762,33.61,25.65,0.0188,-0.0123,9.8769,0.6513,0.7291,0.2146
2455,1158,763,33.682,25.616,-0.0768,0.0396,9.7867,-0.079,0.2618,-0.0251
2460,1151,756,33.693,25.664,-0.0394,0.0451,9.8355,-0.5228,-1.4115,0.3609
2465,1168,762,33.565,25.675,-0.0378,0.0402,9.8836,0.9422,0.1074,0.3095
2470,1165,759,33.619,25.639,0.0092,-0.0677,9.8396,-0.349,-0.4802,0.2742
2475,1176,752,33.594,25.6,-0.0198,0.0305,9.7845,-0.1931,-0.5064,0.5469
2480,1168,755,33.664,25.605,0.0955,0.01,9.756,0.3882,0.1439,0.661
2485,1182,760,33.663,25.643,-0.0109,-0.0063,9.8268,0.3767,0.3165,0.2759
2490,1169,760,33.7,25.635,-0.0169,0.0879,9.8296,-0.7907,0.033,0.3668
2495,1190,764,33.619,25.68,0.0155,0.1151,9.7482,0.7916,0.5067,-0.5796
2500,1181,761,33.605,25.734,-0.0334,0.0067,9.8178,-0.0005,-0.1993,0.0772
2505,1194,760,33.554,25.694,0.0597,-0.03,9.7924,0.3003,-0.5835,-0.0018
2510,1181,765,33.653,25.644,0.0352,0.0268,9.8282,-0.1768,-0.0292,-0.338
2515,1187,762,33.699,25.742,0.0382,0.0783,9.8731,-0.5928,0.1428,0.324
2520,1181,764,33.595,25.662,-0.0462,0.1062,9.799,-0.3923,-0.2273,-0.4833
2525,1183,769,33.689,25.698,0.0137,-0.0079,9.6746,1.3157,-0.3402,-0.4416
2530,1195,766,33.543,25.608,0.0218,-0.0302,9.7516,-0.5037,1.1731,-0.8532
2535,1187,774,33.604,25.631,-0.0404,0.1035,9.7731,0.3439,-0.2337,0.5819
2540,1186,770,33.633,25.722,0.0287,-0.0315,9.8729,-0.6891,-0.3112,0.5072
2545,1186,773,33.645,25.758,0.0661,-0.039,9.8591,-0.9358,-0.3485,-0.6334
2550,1173,772,33.661,25.673,-0.0071,0.0192,9.8866,-0.079,-0.2158,-0.7819
2555,1170,772,33.635,25.674,-0.04,-0.0486,9.6983,0.2151,0.3908,-0.336
2560,1174,769,33.681,25.654,-0.0044,-0.0746,9.7285,-0.4629,-0.1771,0.4276
2565,1168,777,33.677,25.744,-0.0229,-0.067,9.761,0.3886,-0.0742,-0.5157
2570,1178,778,33.669,25.657,0.0274,-0.0865,9.8081,0.3516,0.0848,-0.4698
2575,1172,782,33.602,25.711,-0.0394,-0.0846,9.8563,-0.4338,0.7373,0.3947
2580,1165,781,33.583,25.721,-0.0774,0.0643,9.7656,0.1431,-0.319,0.082
2585,1162,787,33.695,25.593,0.031,0.0353,9.8225,0.2347,-1.0143,-0.0073
2590,1160,790,33.695,25.646,0.0299,-0.0068,9.7772,0.328,0.2542,0.4947
2595,1140,790,33.611,25.674,-0.0032,0.0308,9.8972,0.3469,0.1919,-0.1507
2600,1154,795,33.646,25.577,-0.0141,0.0891,9.8061,-0.7758,0.0058,0.807
2605,1139,787,33.638,25.816,-0.0645,-0.0459,9.7926,0.0159,-0.0518,-0.4918
2610,1144,795,33.672,25.701,-0.0363,0.0571,9.7442,0.2036,1.0121,-0.1963
2615,1133,802,33.612,25.628,-0.0862,-0.0133,9.7831,-0.3812,-0.5982,0.9633
2620,1137,796,33.605,25.717,0.0096,0.0491,9.7663,0.2831,0.1541,-0.0722
2625,1135,800,33.629,25.643,-0.0981,0.0144,9.7874,0.5207,0.236,-0.537
2630,1139,794,33.59,25.641,0.0424,-0.0436,9.8123,0.769,1.2225,0.1103
2635,1126,804,33.638,25.702,-0.0066,0.0381,9.7729,0.3094,0.284,-0.0588
2640,1127,801,33.571,25.664,-0.1089,0.0135,9.8664,0.1299,-0.5166,0.5063
2645,1129,812,33.595,25.751,0.0604,-0.0029,9.8126,0.455,0.2273,-0.0302
2650,1117,812,33.562,25.583,0.1322,0.036,9.7684,-0.386,0.2837,-0.2412
2655,1120,810,33.61,25.717,0.0066,0.0618,9.9127,0.3976,0.5086,-1.0538
2660,1114,815,33.697,25.742,0.0088,-0.0111,9.8691,-0.8761,0.5167,-0.6415
2665,1108,814,33.56,25.72,-0.0369,0.0627,9.8515,0.2922,-0.0824,0.4423
2670,1110,820,33.533,25.693,0.0136,-0.1058,9.7858,0.1779,0.0076,0.0231
2675,1109,817,33.656,25.616,0.0703,-0.0726,9.8404,0.7427,-0.4294,-0.0043
2680,1108,819,33.52,25.717,0.0974,0.0289,9.8821,0.0806,0.4038,0.6532
2685,1100,819,33.644,25.714,0.0367,-0.025,9.8159,-0.2883,-0.3396,-0.5776
2690,1108,822,33.594,25.708,-0.0616,-0.1053,9.7085,-0.3473,-0.265,-0.4982
2695,1102,827,33.637,25.509,0.0322,0.023,9.8116,1.2888,-0.3101,-0.4822
2700,1092,823,33.523,25.727,0.1277,-0.0114,9.7902,-0.592,-0.1259,0.3442
2705,1099,828,33.636,25.565,0.0218,-0.0655,9.8385,-0.1886,0.4872,0.1064
2710,1089,825,33.551,25.619,0.0382,0.0258,9.7715,0.0919,0.2164,-0.4939
2715,1091,824,33.699,25.778,0.0428,0.0216,9.8016,0.9592,0.1864,-0.082
2720,1093,824,33.544,25.658,0.0373,0.0234,9.7964,0.1394,1.6351,0.2027
2725,1085,832,33.628,25.67,0.0104,0.0017,9.7746,-0.4503,-0.8922,-0.4111
2730,1086,834,33.652,25.608,-0.0214,0.0127,9.88,0.1635,0.1324,1.0755
2735,1086,828,33.618,25.736,0.017,0.0605,9.7864,-0.4776,0.5499,0.6402
2740,1080,830,33.676,25.725,-0.0096,0.0221,9.7653,-0.1799,-0.2844,0.0616
2745,1075,833,33.628,25.646,-0.0601,0.0713,9.8284,0.5512,-0.3591,-0.1101
2750,1076,831,33.707,25.681,0.0659,0.0185,9.8856,-0.5108,0.9461,0.0008
2755,1067,832,33.602,25.675,-0.0378,-0.0642,9.7888,-0.1957,0.0274,0.1592
2760,1058,832,33.705,25.746,-0.0284,-0.0315,9.7637,0.4045,0.3417,0.1915
2765,1065,831,33.534,25.688,0.072,-0.0203,9.8083,0.6902,-1.2127,-0.4892
2770,1054,830,33.627,25.745,0.0177,-0.0115,9.8098,-0.3307,0.7221,-0.2048
2775,1058,832,33.622,25.628,0.0269,0.0599,9.8719,0.4776,-0.216,-0.2742
2780,1050,828,33.608,25.739,0.0607,0.1004,9.8294,0.6931,0.2923,-0.3118
2785,1044,836,33.672,25.694,0.0474,0.07,9.7863,0.9848,0.3292,0.116
2790,1052,831,33.643,25.642,0.0819,-0.0279,9.805,0.3762,-0.4929,-0.1236
2795,1037,828,33.595,25.675,0.0097,0.0377,9.9722,0.5399,0.2845,-0.1599
2800,1032,828,33.532,25.652,-0.0197,-0.0109,9.7796,-0.36,1.281,-0.1616
2805,1030,825,33.581,25.674,0.0009,0.0371,9.8867,0.2205,0.4927,-0.2402
2810,1026,833,33.651,25.744,0.0217,-0.015,9.7586,-0.065,0.0687,-0.0312
2815,1019,828,33.564,25.631,0.0184,0.0712,9.8157,0.5675,0.4474,-0.4612
2820,1009,827,33.637,25.608,-0.0325,0.0182,9.8665,-0.2346,-0.022,0.0217
2825,1006,823,33.621,25.688,0.0105,-0.041,9.7924,0.2808,-0.4269,0.2046
2830,994,826,33.608,25.714,0.0048,-0.1084,9.8431,1.2264,-0.3743,-0.0503
2835,1000,818,33.564,25.635,0.054,0.1075,9.7579,-0.0511,0.8245,0.4131
2840,984,826,33.587,25.562,-0.0576,0.0317,9.8428,0.0351,-0.2339,-0.0459
2845,976,823,33.67,25.634,0.0315,0.0219,9.7777,0.0353,-0.5405,-0.5022
2850,968,822,33.658,25.604,0.0543,0.0026,9.8882,1.5859,-0.1009,0.5651
2855,973,821,33.622,25.624,-0.04,0.0596,9.7884,-0.6419,0.3118,-0.6727
2860,956,822,33.671,25.767,0.0101,0.1114,9.7865,-0.7212,0.2628,0.0114
2865,938,822,33.657,25.651,-0.0668,-0.0131,9.8749,-0.4651,0.6749,-1.5135
2870,927,825,33.574,25.719,0.0204,0.0339,9.8662,0.2647,0.4451,-0.8949
2875,926,821,33.578,25.652,0.0812,0.0026,9.8082,0.4559,0.4216,-0.1147
2880,916,821,33.661,25.61,0.0387,0.0072,9.7057,0.9812,0.8294,0.3201
2885,911,819,33.696,25.664,-0.081,0.0859,9.9002,0.6308,-0.2391,0.1143
2890,905,818,33.63,25.685,0.0197,-0.0065,9.7306,-0.0594,0.1799,-0.1514
2895,901,820,33.694,25.62,0.0755,-0.0637,9.8438,-0.0556,-1.0614,-0.1344
2900,886,820,33.524,25.635,0.0391,0.0143,9.7792,-0.396,-0.0442,-0.6474
2905,875,821,33.62,25.711,0.1112,-0.0817,9.7654,0.0494,-0.0662,-0.3289
2910,871,817,33.631,25.715,0.0144,-0.0543,9.8319,-0.4059,-0.6856,-0.065
2915,849,813,33.608,25.641,0.0683,0.0242,9.842,-0.0987,-0.416,-0.7827
2920,846,822,33.61,25.744,-0.0591,-0.0121,9.7907,0.8048,-0.808,0.043
2925,833,818,33.662,25.716,0.0567,-0.0032,9.7726,0.0099,1.0178,-0.0312
2930,832,816,33.71,25.685,-0.0651,0.0451,9.8707,0.4954,0.1754,-0.6957
2935,812,819,33.641,25.668,0.0583,0.0228,9.7631,-0.6408,-0.3974,0.9104
2940,808,821,33.56,25.738,0.0629,0.0243,9.7994,0.6657,0.0149,0.5797
2945,799,816,33.605,25.761,-0.052,-0.0612,9.8735,-0.1528,-0.1127,-1.1578
2950,796,816,33.508,25.699,-0.0351,-0.0346,9.8231,-0.3215,-0.2307,0.0838
2955,799,814,33.627,25.711,0.0083,-0.0888,9.8795,0.6179,0.6023,0.0651
2960,782,817,33.683,25.626,0.0665,0.0325,9.8485,0.1679,0.848,-0.669
2965,781,813,33.722,25.664,0.0284,-0.0437,9.8808,0.2204,-0.1363,0.6672
2970,772,814,33.589,25.666,0.0461,-0.096,9.7775,-0.2161,-0.7049,-0.1785
2975,765,814,33.611,25.668,0.0179,-0.0491,9.715,-0.2657,-1.6302,-0.7683
2980,765,813,33.579,25.672,0.0137,-0.0106,9.7354,-1.0487,-0.2698,0.1854
2985,759,808,33.677,25.694,0.0955,-0.0527,9.8373,0.0285,0.5421,0.2036
2990,759,812,33.661,25.644,-0.0058,-0.0146,9.8201,-0.0789,-0.2401,0.0456
2995,762,813,33.602,25.675,-0.0749,-0.0116,9.7678,0.9775,0.4615,-0.5411
3000,746,810,33.682,25.582,-0.0718,-0.0545,9.7527,-0.0749,-0.4931,0.4983
3005,739,814,33.704,25.664,0.0567,-0.0327,9.8493,0.4555,-1.5269,-0.0797
3010,746,805,33.643,25.613,-0.0861,-0.0532,9.8051,-0.8666,0.0304,0.0244
3015,748,813,33.674,25.712,0.0148,-0.0302,9.786,-0.0151,-0.6694,0.7521
3020,740,809,33.654,25.756,0.1105,0.0008,9.761,0.5841,-0.6478,0.6893
3025,744,811,33.585,25.716,0.0313,-0.0289,9.7438,0.4833,-0.3516,-0.4918
3030,744,802,33.633,25.681,-0.0883,0.0043,9.9328,-0.4129,-0.3519,-0.061
3035,747,805,33.64,25.703,-0.0272,-0.0002,9.8143,-0.6555,0.7403,-0.4893
3040,753,809,33.625,25.627,0.0032,-0.0076,9.844,-0.2418,0.1167,-0.54
3045,749,809,33.632,25.64,0.0205,-0.0005,9.8395,0.4023,-0.4757,-0.3417
3050,757,806,33.63,25.578,-0.0046,0.0759,9.768,0.0052,-0.168,0.5494
3055,761,803,33.705,25.736,0.0049,-0.0307,9.7579,-0.7425,-0.0358,-0.2163
3060,782,807,33.607,25.613,0.0275,-0.079,9.814,-0.0244,-0.5611,-0.565
3065,781,795,33.587,25.707,-0.0183,-0.0362,9.805,0.1919,0.0141,0.349
3070,789,801,33.565,25.65,-0.0869,0.0689,9.8307,-0.1538,0.1498,0.8156
3075,789,793,33.594,25.752,0.0513,0.0508,9.7397,0.1133,0.0696,0.7298
3080,801,796,33.553,25.737,0.0738,0.017,9.6903,0.5921,0.1907,-0.7504
3085,808,797,33.67,25.673,-0.0134,-0.0499,9.8223,0.1348,0.2748,-0.3565
3090,808,798,33.617,25.638,0.0571,-0.0204,9.7955,-0.5572,0.8478,0.1947
3095,838,800,33.719,25.671,-0.0146,-0.0599,9.8415,0.8678,-0.086,0.4279
3100,837,794,33.679,25.717,0.0428,-0.0674,9.7971,-0.0522,-0.1202,0.7775
3105,847,794,33.741,25.667,0.0834,0.0157,9.6961,-0.2176,-1.1756,0.2332
3110,857,792,33.596,25.517,0.0079,0.0144,9.8722,0.461,-0.2076,0.3267
3115,867,788,33.611,25.617,-0.0499,0.0188,9.8362,-0.6135,-0.1835,0.0991
3120,882,783,33.699,25.635,0.0123,0.0442,9.8565,-0.4273,0.7161,0.1639
3125,900,786,33.59,25.732,0.0106,-0.0399,9.857,-0.0029,0.4603,0.219
3130,901,787,33.645,25.689,-0.0364,0.0606,9.704,-0.0731,0.0742,-0.3528
3135,925,780,33.653,25.712,-0.0221,0.0375,9.798,0.2454,-0.2613,-0.3668
3140,931,783,33.708,25.591,-0.0637,-0.0468,9.907,0.8486,-0.2262,0.432
3145,944,780,33.74,25.715,0.0185,-0.0182,9.8001,0.0309,1.007,0.3049
3150,946,775,33.637,25.659,0.044,0.1009,9.7785,-0.0389,0.802,-0.3705
3155,954,782,33.588,25.703,-0.0186,-0.0696,9.8542,0.333,-0.0365,-0.0192
3160,973,779,33.647,25.685,-0.0305,-0.0068,9.8046,0.2492,-0.4767,0.91
3165,982,774,33.613,25.562,-0.0076,0.0211,9.8375,-0.1782,-0.1425,-0.498
3170,996,774,33.625,25.698,-0.0123,-0.0014,9.7663,0.3034,0.2025,0.0318
3175,1010,775,33.594,25.707,0.018,-0.0531,9.8255,0.3162,0.1807,-0.5988
3180,1018,766,33.604,25.623,-0.0186,0.0599,9.7754,-0.4039,0.188,-0.0759
3185,1032,773,33.643,25.656,0.09,-0.0469,9.7371,0.4473,1.0239,0.1362
3190,1055,766,33.624,25.748,0.0003,-0.0675,9.8659,0.561,-0.0081,-0.1338
3195,1060,767,33.651,25.654,-0.0699,0.0841,9.872,-1.0551,0.2234,0.0032
3200,1070,771,33.653,25.663,0.041,-0.033,9.8358,0.0672,0.4665,-0.0676
3205,1083,765,33.627,25.677,0.0758,-0.0208,9.7581,0.3161,-0.2776,0.2645
3210,1098,764,33.653,25.693,0.0205,0.0006,9.8149,0.083,0.6337,0.4733
3215,1091,761,33.529,25.599,0.0178,0.0335,9.75,0.0671,-0.8978,-0.4543
3220,1101,761,33.663,25.544,-0.0179,-0.0159,9.7558,0.0719,-0.8476,0.2549
3225,1113,763,33.658,25.69,-0.0645,0.0466,9.8149,-0.6036,-1.1699,-0.2695
3230,1113,762,33.593,25.726,-0.0508,0.0298,9.8424,0.7784,-0.3954,-0.0205
3235,1129,761,33.583,25.671,0.0662,-0.0227,9.8945,0.2023,-0.508,0.8469
3240,1147,759,33.689,25.741,0.0551,0.0048,9.8706,0.0328,0.3204,0.0117
3245,1143,760,33.653,25.667,-0.0467,-0.0311,9.6787,-0.548,-0.2185,-0.3575
3250,1147,758,33.591,25.569,0.0675,0.0323,9.7282,-0.4538,0.8327,-0.2709
3255,1151,756,33.67,25.631,0.0339,-0.0325,9.7224,-0.8245,0.1747,0.6594
3260,1162,757,33.645,25.569,0.037,0.1269,9.7284,0.1252,-0.9549,0.0578
3265,1177,763,33.639,25.684,0.017,0.0704,9.8453,0.586,0.1204,0.0152
3270,1166,764,33.607,25.749,-0.0265,-0.0067,9.7577,-0.5723,-0.4172,-0.1267
3275,1168,759,33.614,25.642,0.0282,0.0374,9.7789,0.1701,-0.23,0.7283
3280,1179,761,33.678,25.703,0.0022,0.0013,9.7417,0.3318,0.1423,0.2579
3285,1175,754,33.575,25.723,-0.0592,0.0237,9.8256,0.9588,0.505,-0.3051
3290,1188,760,33.606,25.664,-0.0814,-0.0442,9.8544,-0.1537,0.0508,0.2512
3295,1186,761,33.536,25.656,0.0114,0.0926,9.8386,-1.3175,0.8688,-0.4344
3300,1185,764,33.587,25.711,-0.0363,-0.032,9.8643,0.0684,-0.2355,-0.4261
3305,1185,762,33.67,25.676,0.0806,-0.0618,9.774,0.6654,-0.373,-0.1618
3310,1182,764,33.695,25.687,0.0108,0.0331,9.769,-0.1956,0.0863,-0.2592
3315,1193,763,33.669,25.66,0.0854,0.0154,9.7209,-0.2643,-0.6992,-0.495
3320,1190,761,33.599,25.655,-0.0274,0.016,9.8062,0.4055,-0.2492,-0.8492
3325,1194,765,33.639,25.683,0.0331,-0.0144,9.7611,-0.1511,-0.0977,-0.0005
3330,1186,764,33.594,25.726,-0.057,0.0701,9.8189,0.4718,-0.9438,-0.1397
3335,1187,773,33.598,25.695,-0.0407,0.025,9.8223,-0.4715,0.4726,-0.0656
3340,1178,766,33.697,25.661,0.0368,-0.0107,9.9067,-0.2424,0.0429,-0.1412
3345,1182,773,33.631,25.728,0.0778,-0.0653,9.8741,0.2994,0.3661,0.0507
3350,1181,772,33.599,25.683,0.0576,0.0337,9.8349,0.7611,-0.3507,-0.1324
3355,1181,773,33.62,25.567,-0.0459,-0.0877,9.7881,-0.4456,-0.2632,-0.5601
3360,1174,773,33.547,25.72,0.0563,0.0084,9.8587,-0.4322,0.291,-0.1369
3365,1167,776,33.577,25.626,0.0235,0.0308,9.7547,-0.1821,-0.4107,0.0054
3370,1170,780,33.599,25.703,-0.0782,0.1143,9.7455,0.0193,-0.0886,-0.6121
3375,1170,783,33.498,25.713,-0.0526,0.0605,9.836,-0.4731,-0.2828,0.2817
3380,1161,784,33.596,25.722,-0.0298,-0.1012,9.7858,-0.1813,0.78,-0.3611
3385,1168,783,33.606,25.645,-0.0643,0.0328,9.7631,0.0127,-0.3853,-0.4244
3390,1160,787,33.565,25.619,-0.0247,-0.0122,9.8511,0.2388,-0.2721,0.2831
3395,1156,787,33.62,25.734,-0.0624,0.0012,9.837,-0.0636,0.0634,0.2023
3400,1148,795,33.574,25.607,-0.035,0.0561,9.8304,0.0369,-0.045,-0.3378
3405,1143,798,33.716,25.669,0.0426,0.0322,9.8311,-0.3308,-0.2367,0.0117
3410,1139,798,33.641,25.68,-0.0694,-0.0167,9.737,0.1699,1.0559,-0.4546
3415,1137,796,33.699,25.678,0.0073,-0.0544,9.8449,0.299,0.3197,-0.0915
3420,1137,801,33.677,25.699,0.0225,0.0028,9.9255,-0.1426,-0.4816,0.4873
3425,1134,808,33.66,25.684,0.0027,0.0122,9.8413,0.0761,0.2409,-0.4789
3430,1131,800,33.699,25.722,-0.0038,0.0538,9.7617,-1.2509,-0.1768,-0.2206
3435,1121,804,33.641,25.656,-0.0664,-0.0812,9.7972,0.2862,-0.899,-0.4756
3440,1120,799,33.604,25.709,0.0209,-0.0029,9.7724,-0.9416,-0.0946,0.1665
3445,1120,807,33.699,25.63,0.0369,0.0061,9.7571,-0.3621,0.7909,-0.185
3450,1121,812,33.676,25.774,0.0539,0.0481,9.7268,0.1739,0.3308,0.008
3455,1119,809,33.679,25.679,-0.0401,0.046,9.745,-1.1613,0.2166,-0.0005
3460,1118,813,33.672,25.623,0.132,-0.069,9.7087,-0.5737,-0.1237,-0.0146
3465,1110,814,33.65,25.643,0.0901,-0.0573,9.7934,0.5187,-0.375,-0.6573
3470,1103,816,33.663,25.717,-0.0384,0.0627,9.7147,0.3809,1.0567,-0.3737
3475,1105,816,33.675,25.725,0.0812,-0.0046,9.7559,0.0253,-0.1116,-0.2923
3480,1101,820,33.566,25.691,-0.0847,-0.0197,9.8609,0.1747,0.2018,-0.0535
3485,1095,821,33.61,25.75,-0.0432,-0.0335,9.8051,0.2614,0.3583,0.8454
3490,1094,817,33.602,25.621,-0.0548,-0.0915,9.7991,-0.2104,0.4351,-0.1906
3495,1102,826,33.533,25.599,-0.0435,0.0069,9.8399,-0.0634,0.1279,0.1649
3500,1092,818,33.585,25.617,-0.0624,0.0235,9.7425,0.4099,-0.2842,-0.2663
3505,1089,829,33.642,25.662,-0.0266,0.0799,9.7841,-1.1137,0.3183,0.44
3510,1091,821,33.646,25.748,-0.0279,-0.0207,9.7995,-0.0359,0.4376,-0.5513
3515,1092,830,33.595,25.655,0.0163,-0.0029,9.8365,-0.1368,-0.6591,0.2316
3520,1082,829,33.607,25.724,0.0205,0.0214,9.841,0.0656,0.6157,-0.645
3525,1076,825,33.709,25.603,0.0535,-0.0124,9.7905,-0.2859,-0.8294,0.4286
3530,1088,826,33.672,25.71,-0.0721,-0.0086,9.8108,-0.1505,0.3032,0.5621
3535,1068,830,33.612,25.65,-0.0249,-0.0286,9.7482,0.2403,0.3186,-0.5511
3540,1087,830,33.583,25.698,-0.1103,-0.056,9.865,0.251,-0.4164,0.1912
3545,1071,829,33.656,25.722,-0.005,0.1032,9.7826,0.3376,-0.5949,-0.3908
3550,1067,830,33.694,25.677,-0.0186,-0.0171,9.8375,0.5861,-0.0726,0.3609
3555,1068,832,33.603,25.636,0.019,0.0036,9.7102,-0.3607,-1.113,-0.2506
3560,1067,829,33.593,25.669,0.0451,0.0294,9.7599,-0.4374,-0.254,0.3005
3565,1069,834,33.614,25.617,0.0203,-0.0113,9.8264,-0.539,-0.1549,-0.654
3570,1056,834,33.557,25.687,-0.0037,-0.0197,9.8132,0.1263,-0.7041,0.0548
3575,1043,825,33.619,25.654,0.0299,0.0882,9.8014,0.2505,0.8577,-0.0088
3580,1058,829,33.607,25.706,0.0761,0.0211,9.8443,-0.125,-0.2761,-0.2934
3585,1044,833,33.576,25.711,-0.0293,0.0066,9.8112,-0.6311,-0.4953,-0.0102
3590,1041,829,33.643,25.695,-0.0397,-0.0563,9.7573,0.1233,0.4899,0.7337
3595,1036,827,33.596,25.663,-0.0177,0.0389,9.7812,-0.0745,0.949,-0.0446
3600,1024,825,33.596,25.748,0.0262,-0.0089,9.8366,0.3887,-0.0787,0.5467
3605,1025,831,33.656,25.658,-0.0308,-0.0293,9.8489,0.0121,-0.0246,-1.1501
3610,1013,826,33.686,25.646,-0.0355,-0.0459,9.8924,-0.4311,-0.0287,0.4443
3615,1009,825,33.632,25.659,0.0329,-0.0387,9.8361,-0.0005,-0.49,-0.2294
3620,1015,826,33.585,25.71,-0.0332,0.0341,9.8146,-0.1409,-0.9417,-1.2026
3625,1005,820,33.615,25.674,0.0131,-0.0199,9.7437,-0.7416,0.1956,-0.9664
3630,998,827,33.632,25.665,0.0305,-0.0062,9.819,1.5941,-0.3618,0.4027
3635,992,826,33.592,25.669,0.0232,0.0436,9.8065,-0.1408,0.2561,0.4757
3640,991,823,33.711,25.669,0.0003,0.0413,9.8513,0.2548,-0.0927,0.2272
3645,969,825,33.627,25.652,0.0316,0.0314,9.715,0.6249,0.3335,-0.141
3650,969,824,33.564,25.72,-0.0593,-0.0312,9.8665,-0.1049,-0.094,-0.4058
3655,956,817,33.702,25.643,0.013,-0.0215,9.7738,-0.821,-0.013,0.1299
3660,952,825,33.63,25.738,0.0154,-0.0923,9.7296,0.9343,-0.2925,-0.7014
3665,947,819,33.679,25.726,0.0136,-0.0147,9.8018,-0.2021,0.6161,0.8741
3670,927,822,33.678,25.729,0.0015,-0.0072,9.8373,-0.576,-0.2254,-0.0073
3675,923,824,33.59,25.67,0.0033,-0.0196,9.8397,0.4894,-0.0033,0.8807
3680,914,818,33.625,25.788,0.001,-0.0089,9.7086,0.1878,0.1428,-0.1031
3685,910,822,33.632,25.646,0.0091,0.058,9.7894,0.9374,0.2397,-0.1794
3690,888,817,33.594,25.732,0.0673,0.0712,9.7211,0.2805,0.5289,0.0717
3695,891,817,33.585,25.679,-0.0086,0.0899,9.8308,-0.279,0.2105,0.0226
3700,875,821,33.716,25.651,0.0748,-0.0432,9.8033,0.5081,0.4091,0.3416
3705,864,815,33.689,25.623,0.1023,-0.0235,9.8195,-0.4117,-1.2932,0.5714
3710,855,820,33.615,25.584,0.1065,-0.0419,9.756,0.5732,0.2402,-0.5339
3715,846,817,33.682,25.68,-0.0165,-0.0179,9.8135,0.5684,0.0711,0.7409
3720,838,819,33.728,25.703,0.0197,-0.0019,9.7421,-0.7888,-0.2553,-0.4087
3725,832,816,33.707,25.654,-0.0257,-0.0209,9.7853,-1.0125,0.6455,0.2367
3730,820,819,33.716,25.659,-0.0158,0.0958,9.8286,0.2682,0.3342,0.3741
3735,819,817,33.657,25.659,-0.0392,0.0051,9.7512,-0.0529,0.8459,0.7409
3740,809,816,33.564,25.741,-0.0714,-0.0619,9.7755,0.0963,-0.5259,0.3371
3745,806,811,33.649,25.715,-0.0266,-0.0459,9.8588,0.5215,0.1014,0.1916
3750,804,809,33.625,25.699,0.0758,-0.0236,9.7729,-1.1806,0.4991,-0.0088
3755,785,818,33.621,25.695,0.0218,0.0492,9.8331,0.2924,-0.251,0.0198
3760,787,819,33.62,25.734,-0.0017,-0.0042,9.7405,0.2368,0.055,-0.2113
3765,782,812,33.666,25.735,-0.0652,-0.0051,9.8967,-0.2184,0.3639,0.3684
3770,767,814,33.509,25.7,0.014,0.0045,9.9062,0.0044,0.0407,-0.2541
3775,774,813,33.695,25.699,0.0008,0.1176,9.8292,-0.4368,0.0221,-0.2884
3780,753,810,33.668,25.627,0.0031,-0.0409,9.7963,-0.7677,0.203,0.126
3785,766,813,33.648,25.644,0.0273,-0.0101,9.8051,-0.3063,0.1278,0.8228
3790,750,813,33.705,25.712,0.0434,0.0515,9.8218,0.2507,0.8658,-1.101
3795,749,813,33.621,25.687,0.0122,0.034,9.8147,0.1418,0.7782,-0.0164
3800,750,810,33.622,25.699,0.1072,-0.0687,9.8201,-0.1623,-0.1376,-0.5409
3805,759,810,33.76,25.692,0.0186,0.0022,9.7777,-0.5637,0.1021,-0.0692
3810,752,816,33.727,25.689,-0.024,0.0025,9.8225,-0.4033,0.3867,0.2384
3815,744,811,33.691,25.671,0.0014,-0.0729,9.7856,0.1872,-0.4118,0.4531
3820,750,804,33.737,25.664,0.0454,0.0057,9.8734,-0.1701,0.0839,-0.801
3825,751,808,33.617,25.715,0.0777,0.021,9.7755,-0.7029,-0.4965,0.3595
3830,754,804,33.567,25.683,-0.115,-0.0383,9.7661,-0.0611,0.2528,-1.1326
3835,754,813,33.645,25.666,0.0154,-0.0821,9.7904,-0.0186,-0.0263,-0.479
3840,761,806,33.553,25.632,0.0366,0.0988,9.7982,-0.3525,0.0678,0.0617
3845,764,808,33.732,25.665,0.0257,-0.0268,9.7799,-0.8679,0.6326,-0.0054
3850,764,807,33.682,25.714,0.0037,-0.0256,9.8028,-0.2904,-0.4238,-0.2463
3855,765,802,33.72,25.676,-0.0782,-0.0978,9.8267,-0.7528,-0.2314,-0.2857
3860,777,804,33.627,25.701,0.0112,0.1026,9.7925,0.2085,-0.2823,-0.0257
3865,782,802,33.653,25.599,0.1001,-0.0263,9.8373,0.2664,0.3114,-0.3825
3870,793,802,33.703,25.648,-0.0541,-0.0391,9.7399,-1.1286,-0.1969,0.1179
3875,801,799,33.674,25.719,0.0271,-0.0583,9.8223,1.1773,0.0359,0.2643
3880,804,797,33.645,25.68,0.0461,0.0031,9.8087,0.2281,-0.5726,0.052
3885,808,798,33.646,25.63,0.0453,0.0077,9.7955,-0.7292,-0.2791,-0.0431
3890,823,796,33.641,25.691,-0.0252,-0.0297,9.839,-0.2994,-0.5148,-0.4151
3895,835,794,33.538,25.697,0.0036,-0.0085,9.8012,0.2137,-0.5994,-0.2012
3900,848,794,33.676,25.714,-0.0079,0.0749,9.8057,-0.1277,0.7733,0.1484
3905,850,791,33.681,25.643,0.0006,-0.0703,9.8005,-0.2908,0.4954,0.4975
3910,876,797,33.712,25.643,-0.0424,-0.06,9.8429,-0.3706,-0.0245,0.4513
3915,876,787,33.645,25.614,-0.0232,0.0476,9.7795,-0.2587,0.5928,0.3058
3920,894,786,33.69,25.622,0.0564,0.0759,9.8081,-0.144,-0.1265,-0.1947
3925,891,791,33.582,25.771,0.0515,-0.0713,9.8635,-0.5748,0.8413,0.2888
3930,915,784,33.596,25.595,-0.0505,-0.0363,9.773,-0.4621,1.5485,-0.616
3935,922,787,33.711,25.675,0.0224,0.0313,9.8308,0.2249,0.8047,-0.2646
3940,936,785,33.695,25.657,0.1129,0.1409,9.7679,0.3368,0.9038,0.1006
3945,948,784,33.573,25.619,0.0225,-0.0494,9.676,-0.1456,-0.2464,0.1159
3950,953,782,33.645,25.646,0.1111,-0.0093,9.808,-0.5735,-0.5777,0.1456
3955,967,778,33.792,25.616,0.0219,-0.0798,9.8477,0.568,0.8225,-0.4971
3960,982,782,33.623,25.579,0.0211,0.048,9.8016,0.0088,-0.6834,-0.4404
3965,991,776,33.619,25.672,0.0426,-0.0364,9.7607,0.5054,0.2726,-0.0583
3970,1005,777,33.713,25.703,-0.0269,-0.0572,9.8018,0.1466,0.2774,-0.2358
3975,1012,774,33.671,25.663,0.0357,-0.0468,9.8248,-0.1668,0.086,0.4681
3980,1023,772,33.764,25.638,0.0935,0.0109,9.8199,0.2455,-0.1721,-0.2136
3985,1029,770,33.6,25.672,0.0701,0.0835,9.865,0.603,0.3074,-0.0508
3990,1042,769,33.661,25.673,-0.0216,-0.042,9.7415,0.5603,0.0439,-0.09
3995,1064,764,33.645,25.72,-0.0817,-0.0166,9.74,0.4361,0.307,1.0005
4000,1071,770,33.76,25.702,0.0711,-0.0861,9.7357,-0.5183,1.0329,-0.1955
4005,1070,767,33.686,25.669,-0.121,0.0164,9.8427,-0.7538,0.1868,0.6617
4010,1095,759,33.675,25.72,-0.0298,0.0618,9.7922,0.0228,-0.7344,-0.203
4014,1101,761,33.662,25.664,0.0329,0.0807,9.8267,-0.042,1.2377,0.1832
4019,1112,761,33.646,25.776,-0.0512,-0.0634,9.7585,-0.4261,0.7394,0.6111
4025,1122,762,33.669,25.73,-0.0745,-0.034,9.7544,0.2168,-0.0658,-0.1751
4030,1128,763,33.626,25.647,0.044,0.0213,9.8625,-0.8976,0.9082,-0.3226
4035,1140,764,33.622,25.728,-0.0366,-0.0277,9.8136,0.2321,-0.5869,-0.2859
4040,1141,754,33.66,25.727,0.0202,-0.0306,9.801,0.5579,-0.2625,-0.0635
4045,1148,758,33.656,25.601,0.0837,-0.0447,9.7594,0.4182,0.2127,0.3081
4050,1161,760,33.595,25.718,-0.0656,-0.0538,9.8214,0.0613,0.4844,-0.7009
4054,1163,753,33.696,25.698,-0.0723,-0.0403,9.7627,-0.0455,-0.0202,0.838
4059,1161,754,33.669,25.78,0.0159,-0.0145,9.8125,0.9144,0.3297,0.1845
4065,1175,755,33.607,25.734,-0.0324,-0.0204,9.7345,0.9193,-0.8207,0.1299
4070,1182,762,33.625,25.694,0.0271,0.057,9.8042,0.6036,0.7582,-0.0237
4075,1179,757,33.707,25.651,0.0917,0.0666,9.8507,-0.225,-0.1807,-0.8859
4080,1178,761,33.647,25.657,-0.0186,-0.0393,9.8505,-0.5826,0.0438,0.5761
4085,1174,759,33.663,25.724,0.1097,-0.0008,9.8472,0.1788,-0.1366,-0.054
4090,1177,761,33.676,25.588,0.0887,-0.0197,9.8149,0.481,0.6966,-0.7374
4094,1184,761,33.624,25.579,-0.0348,0.0414,9.7999,0.3191,0.3214,-1.0751
4100,1188,760,33.635,25.724,-0.0503,-0.0523,9.7358,0.3143,-0.6858,0.3457
4105,1193,770,33.669,25.697,0.0539,0.0889,9.8374,-0.6004,0.324,0.3681
4110,1187,764,33.704,25.713,0.0093,-0.0255,9.779,-0.0509,-0.728,-0.3387
4115,1197,764,33.606,25.65,0.0543,0.0194,9.8072,-0.0437,0.0717,0.2843
4120,1198,766,33.623,25.704,-0.0335,-0.0417,9.91,-0.1225,-0.0416,0.4401
4125,1184,765,33.7,25.679,0.1147,0.0687,9.8536,-0.6523,-0.4479,-0.2597
4130,1188,768,33.644,25.706,-0.045,0.0134,9.8116,-0.5902,0.6706,0.03
4135,1195,772,33.618,25.773,-0.0172,-0.0072,9.8044,-0.4799,-0.4928,0.0512
4140,1173,770,33.645,25.647,0.0016,-0.0654,9.8216,0.6959,-0.5973,-0.4408
4145,1186,771,33.631,25.657,0.1219,-0.0481,9.7324,1.0534,0.191,0.0667
4150,1171,778,33.58,25.609,-0.0602,-0.0338,9.7938,0.2368,-0.3215,0.5016
4155,1178,775,33.603,25.667,-0.0129,-0.0201,9.7925,-0.6322,0.2459,-0.078
4160,1174,774,33.627,25.591,-0.0734,-0.0893,9.7829,0.2112,0.3889,0.0885
4165,1169,781,33.585,25.65,0.0536,0.1192,9.8476,0.5728,0.1165,0.3825
4170,1170,781,33.675,25.726,0.0307,-0.0322,9.8339,-0.0717,0.6245,0.1945
4175,1156,782,33.66,25.689,-0.0095,-0.0055,9.7574,-1.0147,1.4529,0.4433
4180,1154,783,33.686,25.722,-0.0447,-0.0254,9.8505,-0.6536,0.2165,0.1433
4185,1160,782,33.656,25.642,-0.0179,0.042,9.844,-0.5973,-0.2107,0.5355
4190,1156,788,33.665,25.611,-0.0719,-0.0677,9.8575,-0.2206,0.7897,-0.4623
4195,1135,791,33.644,25.703,-0.0041,0.0659,9.8426,0.681,-0.1661,-0.2643
4200,1145,788,33.649,25.69,-0.0115,0.0078,9.949,0.5562,-0.0923,-0.3834
4205,1142,795,33.57,25.739,0.0482,-0.0264,9.8298,0.1144,-0.5536,0.9177
4210,1144,796,33.644,25.666,-0.0044,-0.0803,9.7682,0.4873,-0.3974,-0.315
4215,1135,799,33.622,25.748,-0.0322,0.0022,9.8037,0.0613,-0.6299,-0.4395
4220,1130,795,33.611,25.674,0.0152,-0.0102,9.8551,0.0506,-0.8009,0.7058
4225,1133,803,33.591,25.737,0.0398,-0.025,9.8063,-0.0893,0.2942,0.0947
4230,1123,804,33.608,25.661,-0.0544,0.0228,9.8317,-0.2006,-0.3119,0.3528
4235,1119,805,33.683,25.66,-0.0333,0.0462,9.8523,-0.7684,-0.4895,0.5167
4240,1119,805,33.675,25.675,-0.0608,-0.0657,9.8803,0.4165,-0.8913,0.1991
4245,1113,814,33.644,25.677,0.0894,-0.0773,9.7993,-0.155,0.9993,-0.9473
4250,1115,810,33.647,25.696,-0.0078,0.0042,9.7746,-0.0096,0.1983,-0.8352
4255,1124,811,33.645,25.626,0.0442,-0.0749,9.8891,1.1464,-0.544,-0.1534
4260,1120,818,33.68,25.647,0.0576,-0.0228,9.8361,-0.1099,1.4495,0.2367
4265,1111,814,33.61,25.718,-0.0295,0.0152,9.8332,0.5918,0.5985,0.4698
4270,1107,823,33.621,25.697,-0.0091,-0.0457,9.8771,0.597,0.5164,-0.2511
4275,1102,815,33.766,25.748,-0.0085,0.0045,9.7069,-1.158,0.1913,-0.511
4280,1103,821,33.575,25.673,0.011,-0.0436,9.8267,0.8723,-0.3011,0.0283
4285,1099,824,33.669,25.626,0.0422,0.0905,9.8704,-0.1487,0.7929,0.0884
4290,1090,823,33.632,25.613,-0.0523,-0.0254,9.7781,0.3443,0.1116,0.3039
4295,1091,820,33.71,25.674,0.0181,-0.077,9.7848,0.6616,0.4194,-0.1851
4300,1094,826,33.695,25.716,0.0054,-0.0321,9.8273,0.3362,-0.1067,0.7427
4305,1094,824,33.651,25.667,0.1199,0.0907,9.854,-0.0525,-0.1076,-0.676
4310,1095,828,33.575,25.614,-0.0599,0.0456,9.858,0.0652,-0.0841,-0.3952
4315,1087,830,33.604,25.645,-0.0018,0.0563,9.7453,-0.4343,-0.0997,-0.5632
4320,1084,831,33.575,25.675,-0.0259,0.0446,9.7776,0.3413,-0.1676,-0.2113
4325,1087,829,33.633,25.811,0.0812,0.0195,9.8371,-0.1708,-0.8509,-0.6622
4330,1081,831,33.617,25.697,0.0062,0.0436,9.805,0.0779,-0.1034,-0.414
4335,1073,834,33.675,25.768,0.0859,-0.0634,9.8285,-0.4921,0.2527,1.0277
4340,1072,825,33.585,25.677,0.0543,-0.0304,9.849,-0.3337,-0.3353,0.1066
4345,1074,831,33.691,25.635,0.0188,-0.037,9.8074,-0.2737,-1.0628,0.486
4350,1069,830,33.658,25.703,0.0002,-0.0383,9.8455,-0.7277,0.2445,-0.1674
4355,1061,827,33.644,25.673,0.0527,-0.0575,9.8182,0.1169,0.3437,-0.2182
4360,1057,830,33.644,25.712,0.0533,-0.0481,9.8493,0.815,0.8479,-0.0749
4365,1062,828,33.642,25.632,0.1323,0.0203,9.8335,0.4838,0.235,-0.1445
4370,1058,830,33.595,25.618,0.1004,0.0417,9.84,0.5029,0.4435,-0.2631
4375,1059,830,33.61,25.686,-0.0725,-0.0722,9.8564,-0.4789,0.1729,-1.0695
4380,1052,827,33.737,25.686,-0.0529,0.0051,9.8298,-0.7582,0.7125,0.3735
4385,1044,826,33.555,25.66,-0.0092,-0.0173,9.8435,0.0154,0.2865,-0.3527
4390,1035,827,33.584,25.648,-0.0016,-0.0103,9.8554,-0.1781,0.565,-0.1263
4395,1034,834,33.621,25.719,0.0214,-0.077,9.7831,0.059,0.4259,-0.1177
4400,1025,827,33.687,25.694,0.048,-0.0378,9.8425,-0.1153,0.1054,0.6613
4405,1028,829,33.702,25.721,0.0709,0.0308,9.8214,0.0084,0.0722,-0.1236
4410,1014,831,33.723,25.715,-0.0304,0.0449,9.8146,-0.1145,0.2621,-0.5587
4415,1017,827,33.646,25.683,-0.0594,0.0258,9.7769,-0.6272,0.1374,0.7248
4420,1004,826,33.592,25.647,0.0105,-0.0364,9.7551,-0.2042,0.1356,0.002
4425,1005,831,33.666,25.774,0.0324,0.0049,9.8074,-0.014,-0.1171,0.4286
4430,995,829,33.774,25.703,0.0246,0.03,9.8964,-0.4482,0.4636,-0.4371
4435,984,823,33.649,25.598,-0.0085,-0.0211,9.8152,0.0728,-0.5616,-0.3064
4440,981,829,33.668,25.619,-0.0289,0.0054,9.8791,-0.0761,0.0194,-0.4099
4445,965,819,33.65,25.739,-0.1103,0.0482,9.8519,0.7522,0.7328,-0.4102
4450,959,824,33.609,25.724,0.01,0.005,9.8141,-0.7323,-0.5161,-0.53
4455,948,821,33.567,25.651,0.0051,-0.0062,9.8266,-0.6311,0.4276,0.4615
4460,943,826,33.682,25.662,-0.0161,0.0638,9.8008,-0.2469,0.3982,0.1673
4465,945,819,33.604,25.737,0.0637,-0.0272,9.835,-0.6586,-1.1217,-0.2346
4470,923,817,33.633,25.732,0.0591,-0.0074,9.7215,0.0532,-1.2039,0.5856
4475,916,819,33.633,25.595,-0.0195,0.0271,9.8455,-1.2771,0.7036,0.6674
4480,911,818,33.657,25.716,-0.006,-0.0139,9.7502,-0.1794,0.606,0.3991
4485,903,818,33.716,25.655,-0.0411,0.0872,9.8301,-0.4859,-0.2575,-0.0798
4490,888,820,33.736,25.711,-0.0278,0.0342,9.8211,-0.3042,-0.3564,0.2011
4495,888,819,33.526,25.733,0.0095,0.0679,9.817,-0.216,0.3902,-0.2887
4500,876,814,33.648,25.735,0.0952,0.0391,9.7933,-0.609,0.7156,-0.1719
4505,859,817,33.68,25.645,0.0289,-0.0901,9.8262,-0.4679,-0.3434,0.8424
4510,856,818,33.645,25.785,0.0241,0.0048,9.8407,0.0411,-0.6211,0.4642
4515,845,819,33.632,25.736,0.0407,-0.0179,9.8111,0.5873,-0.2909,0.507
4520,828,812,33.694,25.618,0.0411,-0.0803,9.8745,-0.197,0.163,-0.7447
4525,824,818,33.575,25.674,-0.076,-0.0465,9.8764,0.3449,0.9226,-0.8694
4530,827,820,33.604,25.697,-0.0014,-0.0148,9.8328,0.4576,-0.5436,0.0813
4535,814,818,33.642,25.753,0.023,0.0395,9.8258,0.762,0.5606,0.1428
4540,803,816,33.633,25.778,0.1057,-0.004,9.7496,0.0438,0.5327,0.1815
4545,795,821,33.725,25.756,0.0138,-0.0136,9.7084,0.5231,-0.0298,-0.9274
4550,780,820,33.644,25.69,-0.0577,0.0022,9.7718,-0.5959,-0.5006,-0.7329
4555,785,808,33.659,25.69,-0.1124,0.0456,9.8003,-0.0517,0.4297,0.4822
4560,780,815,33.605,25.593,0.0396,0.0068,9.7878,-0.3873,0.5558,0.9811
4565,778,813,33.622,25.664,-0.0328,0.0275,9.6817,0.4743,0.0352,-0.2915
4570,766,809,33.763,25.742,-0.0059,0.0682,9.7961,-0.6962,-0.0602,0.1112
4575,756,816,33.592,25.663,-0.0424,0.1097,9.7821,-0.5749,0.2403,-0.3968
4580,760,816,33.692,25.691,0.0383,-0.0124,9.8444,-0.4925,0.7946,-0.1063
4585,761,811,33.691,25.591,0.0344,-0.0303,9.8668,0.593,-0.3375,0.646
4590,759,815,33.536,25.704,-0.0007,0.0281,9.805,0.1672,-0.4181,0.3613
4595,750,812,33.708,25.678,-0.0476,-0.0934,9.8054,0.5229,-0.3207,0.4295
4600,750,811,33.624,25.653,0.0237,0.0002,9.8086,-0.8626,0.1979,-0.6067
4605,750,808,33.643,25.571,0.0022,0.0958,9.7682,0.0843,0.4662,-0.1919
4610,750,811,33.684,25.589,-0.0558,-0.0168,9.7771,0.3786,0.421,0.5678
4615,747,805,33.732,25.716,-0.0671,0.005,9.7691,0.3703,-0.1071,-0.3574
4620,748,806,33.638,25.703,-0.087,-0.0593,9.7984,-0.5787,0.0984,-1.428
4625,756,811,33.645,25.552,-0.0538,-0.0279,9.7784,-0.4065,-0.5136,-1.0394
4630,753,808,33.632,25.684,0.0056,-0.0285,9.689,0.0337,0.0482,0.0542
4635,755,808,33.615,25.737,0.0219,0.0399,9.8987,-0.7491,0.1358,0.1099
4640,757,802,33.682,25.67,-0.0978,0.0363,9.8426,0.1324,0.5215,0.7527
4645,768,804,33.68,25.658,0.0553,-0.0812,9.8328,-0.2771,-0.0852,-0.5327
4650,763,803,33.637,25.665,0.0592,-0.0315,9.7229,-0.2966,-0.0393,0.8804
4655,775,805,33.564,25.645,0.002,-0.1213,9.8247,-0.4665,-0.6519,-0.4668
4660,781,808,33.549,25.783,0.0043,-0.0605,9.855,-0.1231,-0.4449,0.2762
4665,784,805,33.671,25.677,-0.0267,0.0272,9.7956,0.4772,0.252,-0.1096
4670,785,800,33.619,25.712,-0.0128,0.0054,9.8079,0.568,1.2936,-0.3307
4675,794,800,33.578,25.606,0.014,0.0327,9.8191,0.2362,-0.2039,0.5498
4680,802,798,33.626,25.75,-0.0529,0.0413,9.8145,0.4406,0.1535,-0.3102
4685,816,801,33.627,25.801,-0.0181,-0.1088,9.8145,-0.0554,0.5259,0.2306
4690,831,798,33.656,25.592,-0.1273,-0.0018,9.7998,0.5022,0.0453,0.2285
4695,843,791,33.575,25.674,0.0177,-0.0152,9.9136,-0.2712,-0.187,0.0329
4700,845,790,33.65,25.704,-0.0296,0.1205,9.7798,1.0287,-0.0317,0.2827
4705,854,788,33.582,25.771,-0.0315,-0.0819,9.774,-0.2809,0.2555,-0.3105
4710,880,791,33.506,25.659,-0.0825,0.0904,9.8304,-0.1901,0.0437,-0.0894
4715,881,791,33.584,25.738,0.1359,-0.0017,9.8799,-0.6334,0.6577,0.0853
4720,885,789,33.685,25.662,-0.0321,0.0496,9.8612,-0.7504,-0.5405,-0.1031
4725,892,793,33.639,25.692,-0.0298,0.0226,9.812,-0.0437,-0.3646,-0.411
4730,913,781,33.687,25.707,-0.0014,0.0152,9.7869,1.275,0.2117,0.907
4735,932,783,33.646,25.683,0.0303,0.0136,9.7377,-0.0461,-0.0073,1.1065
4740,945,777,33.577,25.664,-0.0096,0.0505,9.7131,-0.376,-0.1583,-0.2311
4745,953,780,33.696,25.682,0.0326,-0.0569,9.8129,0.8059,0.4738,0.6842
4750,954,778,33.679,25.66,-0.0122,-0.0213,9.954,-0.286,-0.8458,-0.209
4755,976,779,33.709,25.638,-0.026,-0.0862,9.8146,-0.0603,0.2354,0.3484
4760,997,775,33.615,25.65,-0.0533,0.0132,9.886,0.0957,0.4427,-0.168
4765,991,770,33.62,25.768,0.0815,-0.0461,9.7835,-0.846,-0.4175,-0.0085
4770,1001,778,33.685,25.765,0.057,-0.0634,9.8494,-0.1024,-0.79,-0.0913
4775,1031,767,33.518,25.666,0.0276,-0.0584,9.8838,1.1615,-0.0761,-0.4371
4780,1035,774,33.684,25.688,0.122,-0.0997,9.8638,0.2142,0.9656,0.3255
4785,1045,768,33.727,25.704,-0.0423,0.1571,9.8607,-0.2259,0.0673,-0.1579
4790,1048,775,33.607,25.718,0.0221,0.0041,9.7856,-0.4664,0.1438,0.0274
4795,1064,767,33.667,25.744,0.0218,-0.0268,9.7671,0.3404,-0.2014,0.1781
4800,1074,762,33.659,25.697,0.0415,-0.0011,9.8442,-0.539,0.7001,0.0476
4805,1087,767,33.695,25.7,-0.0274,0.0286,9.847,-0.6227,0.4979,0.3918
4810,1113,762,33.641,25.636,-0.0334,0.0223,9.8656,0.5896,0.1471,1.3066
4815,1097,764,33.664,25.726,0.0406,-0.1029,9.7266,-0.3437,0.2479,-0.066
4820,1110,768,33.612,25.703,0.0253,0.0601,9.8595,-0.5714,-0.3544,-0.556
4825,1133,761,33.644,25.662,0.0936,-0.0967,9.7781,-0.1482,-0.3707,0.4306
4830,1127,761,33.688,25.681,0.0126,-0.062,9.7809,0.4759,0.4251,0.1866
4835,1150,760,33.678,25.621,0.0718,0.0813,9.7942,0.0011,-0.1404,-0.0875
4840,1143,757,33.552,25.671,0.1315,0.034,9.8813,-0.7361,0.4483,0.2644
4845,1153,758,33.654,25.618,-0.0793,0.0706,9.7829,-0.1453,0.11,-0.0604
4850,1158,757,33.675,25.698,-0.0041,-0.0034,9.8302,0.2718,-0.6264,-0.1592
4855,1168,764,33.566,25.697,0.0314,-0.0017,9.7976,-0.1413,0.1493,0.3567
4860,1161,756,33.689,25.714,-0.0185,-0.0525,9.794,-0.5997,0.764,0.7048
4865,1168,755,33.679,25.694,0.037,-0.037,9.9062,0.5432,-0.5642,-0.0911
4870,1181,761,33.641,25.617,-0.0347,0.0518,9.8153,0.8178,0.4189,0.809
4875,1183,757,33.553,25.621,-0.0096,-0.0977,9.8596,-0.1562,-0.0273,0.3772
4880,1180,756,33.692,25.679,0.0765,0.0255,9.8477,-0.4811,0.1446,-0.418
4885,1186,758,33.618,25.632,0.0416,0.0178,9.8359,-0.6602,-0.8388,0.0499
4890,1176,762,33.613,25.663,-0.009,0.0503,9.7779,0.0028,0.5788,-1.3056
4895,1179,762,33.672,25.806,-0.0271,-0.0245,9.7631,-0.9034,0.7667,-0.527
4900,1183,759,33.612,25.641,0.0194,0.0782,9.8364,0.2123,0.8596,0.0629
4905,1182,763,33.625,25.65,0.0136,0.054,9.8434,-0.6234,0.7085,-0.212
4910,1186,761,33.698,25.642,0.0319,0.0862,9.77,-0.0377,-0.6714,0.2496
4915,1181,765,33.677,25.584,-0.0113,-0.097,9.8969,-0.2166,0.7442,0.0432
4920,1188,765,33.686,25.643,-0.0242,0.1032,9.7934,-0.1313,-0.7505,-1.0598
4925,1186,765,33.613,25.727,-0.0366,0.0231,9.8123,0.1042,-0.6206,0.3679
4930,1183,763,33.66,25.689,0.0513,-0.0121,9.7713,-0.5153,-0.3936,0.3541
4935,1190,770,33.634,25.688,0.0364,0.0788,9.9137,1.0606,0.4733,0.1235
4940,1169,768,33.63,25.718,0.0431,0.0334,9.7805,-0.7528,-0.0528,0.125
4945,1177,774,33.607,25.644,0.0181,0.0284,9.817,0.5113,0.0712,-0.1879
4950,1167,774,33.654,25.659,0.0411,0.0125,9.7971,-0.0516,-0.4832,0.1986
4955,1174,776,33.686,25.697,0.0251,-0.0707,9.791,-0.5328,0.0888,0.7929
4960,1175,783,33.566,25.653,0.0325,0.0558,9.7796,0.6253,0.1898,-0.4625
4965,1166,781,33.682,25.657,-0.0097,-0.0252,9.8566,0.0557,0.0412,0.193
4970,1166,787,33.719,25.671,-0.0363,-0.1065,9.7426,-0.1867,-0.2709,-0.1891
4975,1165,779,33.71,25.666,-0.0257,0.0348,9.8018,0.6608,-0.1136,-0.0458
4980,1157,783,33.725,25.692,-0.0221,0.0711,9.8155,0.262,0.0959,1.0398
4985,1155,786,33.71,25.709,-0.0316,-0.0799,9.7183,0.6887,-0.4487,0.8054
4990,1149,792,33.671,25.709,-0.1138,0.059,9.7722,0.3972,0.0168,0.4587
4995,1153,790,33.632,25.842,-0.0512,0.0005,9.7769,0.0968,-0.284,0.2356
5000,1147,789,33.565,25.744,0.0191,0.0224,9.8843,-0.809,-0.7103,-0.8215
5005,1140,800,33.703,25.685,-0.0432,-0.02,9.8965,-0.4415,0.1353,0.2642
5010,1139,797,33.589,25.68,0.0085,-0.0871,9.7386,-0.2066,0.0084,0.5824
5015,1142,798,33.659,25.721,-0.0867,0.0242,9.8999,-0.1583,-1.1396,-0.4004
5020,1125,800,33.649,25.705,0.1196,0.0418,9.7776,-0.2608,0.4481,-0.4969
5025,1131,805,33.617,25.68,0.0471,0.0044,9.7604,-0.3001,0.2877,0.3242
5030,1128,804,33.632,25.661,0.0688,0.0313,9.7385,0.843,-0.3212,0.444
5035,1130,808,33.633,25.6,-0.115,-0.0198,9.8038,0.1237,-0.3785,-0.9446
5040,1116,806,33.632,25.709,-0.1051,-0.0098,9.8189,0.2313,0.4738,-0.1415
5045,1108,812,33.687,25.713,-0.0998,0.0215,9.9098,-0.1273,-0.2191,-0.4287
5050,1108,811,33.591,25.641,-0.0787,0.0113,9.7705,-0.8952,-0.478,0.8079
5055,1123,811,33.677,25.654,0.009,-0.0106,9.7334,0.7519,-0.2729,0.5209
5060,1106,815,33.59,25.693,-0.0018,0.0262,9.742,-0.2807,0.3961,0.6558
5065,1110,815,33.651,25.62,-0.1193,-0.0022,9.8109,0.5481,-0.6872,0.4867
5070,1112,813,33.678,25.705,-0.0237,0.0289,9.8209,-0.0487,-0.5965,-0.2613
5075,1108,818,33.72,25.702,-0.0324,0.0283,9.7478,0.2918,0.7062,-0.0774
5080,1095,822,33.578,25.644,-0.0575,0.0136,9.8466,0.781,-0.4977,-0.5871
5085,1103,820,33.653,25.723,0.0353,-0.0415,9.8405,-0.4208,0.1729,-0.3541
5090,1100,828,33.642,25.73,-0.0676,-0.0551,9.735,-0.1079,0.0212,-0.4634
5095,1097,820,33.602,25.682,0.0085,-0.0037,9.8306,-0.5073,0.4603,-0.3916
5100,1088,822,33.688,25.721,0.0225,-0.057,9.7681,-0.1833,0.4511,0.1222
5105,1097,823,33.641,25.666,0.0052,0.0526,9.7665,0.4656,0.9166,0.2936
5110,1089,826,33.655,25.617,0.0175,-0.0659,9.7696,0.0718,-0.4667,-0.0376
5115,1085,827,33.584,25.64,0.0229,0.0587,9.8014,-0.0011,0.4633,0.1379
5120,1082,828,33.636,25.799,-0.0457,-0.0422,9.8276,-0.6348,0.3078,-0.359
5125,1079,832,33.63,25.734,-0.0256,0.053,9.7947,0.1032,0.6744,-0.2474
5130,1079,826,33.596,25.669,0.0689,-0.0429,9.8454,0.1654,0.7786,0.6319
5135,1064,834,33.715,25.601,0.0177,0.0278,9.9159,0.7193,0.2131,0.132
5140,1074,832,33.611,25.698,-0.0295,-0.0113,9.7975,-0.1643,-0.3992,0.0348
5145,1067,833,33.604,25.691,-0.0218,0.0142,9.7103,0.176,-0.03,0.1514
5150,1059,829,33.587,25.618,-0.0091,0.087,9.8176,-0.0241,0.5647,0.3019
5155,1060,834,33.651,25.701,0.0527,-0.0304,9.7511,1.1112,1.1214,-0.8184
5160,1060,830,33.655,25.653,0.1324,-0.087,9.7643,-0.2147,-0.0471,0.0908
5165,1059,829,33.687,25.64,0.0243,0.0387,9.7487,-0.8083,0.544,-0.3164
5170,1056,834,33.635,25.744,0.0317,0.0529,9.8609,-0.2521,-0.1253,-0.5852
5175,1042,829,33.689,25.697,0.0826,-0.0328,9.8837,0.6706,0.603,-0.3641
5180,1052,828,33.636,25.71,0.0139,-0.0185,9.7736,-1.4229,0.3911,-0.0396
5185,1044,830,33.625,25.655,-0.0771,0.046,9.8659,-0.418,0.4619,0.6077
5190,1035,827,33.639,25.692,0.0287,0.0162,9.8223,0.0514,0.5185,-0.4566
5195,1035,827,33.672,25.685,0.1487,0.1085,9.7454,0.6435,0.0178,0.1496
5200,1025,822,33.623,25.663,0.0724,0.0356,9.7719,-0.5873,1.0402,0.0136
5205,1014,825,33.743,25.716,0.041,-0.0133,9.8716,0.5947,0.2551,-0.0072
5210,1014,829,33.704,25.727,-0.01,0.0136,9.8756,-0.5736,-0.6958,-0.7396
5215,1007,825,33.64,25.767,0.0046,-0.0778,9.874,0.1843,-0.7886,-0.2444
5220,998,825,33.672,25.655,-0.0079,0.006,9.8056,0.567,0.6661,0.8681
5225,990,823,33.641,25.705,-0.0536,0.0514,9.6938,0.2075,0.056,0.7684
5230,982,825,33.687,25.685,-0.0342,0.0428,9.8472,0.0035,0.0834,-0.4748
5235,984,827,33.638,25.688,0.0168,-0.0016,9.7733,-0.2567,-0.1896,0.6131
5240,963,828,33.661,25.674,-0.0334,0.0368,9.9748,0.4839,-0.2018,0.4537
5245,962,823,33.656,25.75,0.0076,-0.0112,9.7134,-1.1838,0.9076,-0.053
5250,951,825,33.651,25.716,0.0276,0.052,9.8374,-0.8634,-0.2989,-0.5161
5255,941,821,33.726,25.717,-0.0227,0.0425,9.8034,0.7735,0.2208,0.4087
5260,952,828,33.559,25.686,-0.0614,-0.0139,9.8359,0.6883,-0.1864,-0.0392
5265,923,824,33.626,25.738,0.0072,0.0208,9.855,-0.2125,-0.7225,-0.3568
5270,925,823,33.621,25.653,0.0242,-0.0303,9.8463,0.124,0.0846,-0.5054
5275,917,820,33.61,25.756,0.0932,0.0069,9.8445,-0.3485,-0.0654,0.3442
5280,906,823,33.554,25.684,0.0553,-0.017,9.824,0.8157,0.1594,0.9414
5285,885,825,33.714,25.718,0.0057,-0.0033,9.8725,-0.6233,0.1017,0.2242
5290,886,823,33.615,25.779,-0.0186,-0.0335,9.8519,-0.4485,0.6414,-0.183
5295,874,820,33.603,25.675,-0.0096,-0.0636,9.7999,0.0722,-0.4833,-0.2613
5300,879,814,33.644,25.683,0.0058,0.1074,9.7595,0.4636,0.2342,0.1945
5305,861,814,33.582,25.694,-0.0503,-0.0039,9.8348,0.1336,-0.0313,0.0542
5310,849,819,33.636,25.713,-0.027,0.0844,9.8275,0.0747,0.3153,0.5885
5315,835,814,33.685,25.73,0.0373,0.0569,9.7278,0.4131,0.0057,-0.7013
5320,843,816,33.562,25.702,-0.0256,-0.0156,9.7832,-0.07,-0.5841,0.9303
5325,827,814,33.611,25.57,-0.0969,0.0284,9.8281,0.2518,-0.2797,0.808
5330,825,816,33.732,25.608,-0.0481,-0.0587,9.7348,-0.9242,0.6548,-0.2646
5335,814,813,33.686,25.682,-0.0547,-0.1116,9.8775,0.4226,-0.396,0.5539
5340,810,822,33.647,25.7,-0.0605,0.0257,9.803,-0.0304,0.027,-0.7583
5345,799,811,33.712,25.664,-0.0223,-0.0445,9.8052,0.0614,0.0164,-0.2774
5350,788,811,33.609,25.715,-0.0804,0.0896,9.8273,-0.0755,-0.1781,-0.7538
5355,788,814,33.613,25.71,0.0201,-0.046,9.7806,-0.1969,-0.6764,-0.9638
5360,774,812,33.675,25.741,-0.0221,-0.0218,9.8333,-0.7879,0.7794,0.2222
5365,771,815,33.63,25.735,-0.0115,-0.0261,9.7863,-0.0055,-0.3336,1.2136
5370,773,807,33.686,25.68,0.008,-0.0179,9.7585,-0.5724,-0.8479,0.2188
5375,757,814,33.67,25.72,-0.0003,0.0094,9.8231,1.1877,-0.7912,0.1329
5380,760,809,33.685,25.782,-0.011,-0.0336,9.8977,0.0578,-0.2346,0.3281
5385,750,810,33.7,25.669,0.004,-0.0214,9.7577,0.0093,0.2899,-0.4085
5390,761,814,33.646,25.746,-0.0243,0.0177,9.7377,0.1715,-0.2824,0.4612
5395,743,807,33.731,25.733,0.0052,0.0057,9.8309,0.4874,-1.462,0.3385
5400,741,808,33.69,25.706,-0.0357,-0.0122,9.7947,-0.3358,-1.3557,0.6586
5405,753,814,33.582,25.662,-0.0215,-0.0228,9.8042,-0.132,-0.184,0.0294
5410,744,810,33.72,25.622,0.0444,-0.0327,9.8076,0.6722,-0.2999,0.3978
5415,746,807,33.68,25.772,0.0406,-0.0264,9.8273,-0.1471,0.8302,1.0664
5420,749,811,33.72,25.688,0.0554,0.0334,9.8774,0.0584,-0.2,-0.1622
5425,752,805,33.644,25.63,0.009,-0.0225,9.9073,0.241,-0.0353,-0.191
5430,746,805,33.677,25.65,-0.009,0.0379,9.7801,0.0471,-0.2172,-0.5072
5435,759,806,33.69,25.812,-0.0357,-0.0158,9.755,-0.0803,0.1932,-0.9168
5440,768,806,33.617,25.716,0.0041,0.0619,9.8453,0.3528,-0.246,0.2372
5445,767,807,33.68,25.669,0.0115,0.0583,9.8501,0.1216,0.4891,-0.3951
5450,767,812,33.703,25.664,-0.0922,0.0198,9.7849,-0.3204,0.095,1.6042
5455,779,801,33.546,25.668,0.0489,-0.0589,9.8039,0.3864,0.4016,-0.1203
5460,782,802,33.713,25.703,0.0043,0.0397,9.753,0.5373,-0.1515,0.2534
5465,792,803,33.686,25.702,0.0296,0.0341,9.799,0.5652,0.4852,0.442
5470,805,801,33.622,25.738,-0.0041,-0.0359,9.8093,-0.5216,-0.9012,0.7069
5475,810,801,33.643,25.661,-0.0335,0.0129,9.6966,-0.0831,0.5038,-0.4233
5480,810,797,33.65,25.645,-0.0955,0.0398,9.8603,0.5416,0.5787,-0.0136
5485,826,795,33.648,25.746,0.0644,0.0322,9.8259,-0.0374,-0.0304,-0.0622
5490,829,790,33.649,25.672,-0.0376,-0.0292,9.7561,0.2846,0.5355,-0.1263
5495,851,793,33.726,25.646,0.0381,0.0662,9.786,-0.4402,-0.0776,-0.0728
5500,843,793,33.721,25.673,-0.0111,0.0223,9.7933,0.2596,-0.6832,1.3815
5505,867,786,33.7,25.703,-0.0011,0.045,9.8714,-0.652,0.1005,0.4449
5510,876,785,33.62,25.624,0.0458,-0.0272,9.8599,0.1591,-0.6802,0.0713
5515,884,790,33.764,25.655,-0.0219,-0.0022,9.7768,0.275,-0.6443,-0.124
5520,901,788,33.633,25.647,0.0664,0.0245,9.706,0.7754,0.2526,0.4557
5525,909,782,33.728,25.671,0.0688,0.0189,9.7576,-0.6579,0.4522,-0.6171
5530,913,787,33.564,25.7,-0.0281,-0.0438,9.845,-0.0007,0.2278,-0.0648
5535,929,780,33.563,25.643,-0.0317,0.0027,9.8349,0.6123,0.0529,0.4107
5540,945,779,33.718,25.644,0.0333,0.0039,9.7645,-0.3808,-0.5117,0.3276
5545,957,777,33.689,25.718,-0.0129,0.0211,9.6933,0.341,0.0752,0.7561
5550,960,779,33.668,25.681,-0.0098,-0.0382,9.9142,0.1766,-0.1123,-0.0361
5555,983,777,33.636,25.71,0.0795,-0.0215,9.8963,-0.1342,0.5497,-0.2043
5560,993,777,33.684,25.759,-0.0031,-0.016,9.8249,-0.4458,0.243,-0.5413
5565,997,769,33.737,25.67,0.0338,-0.0463,9.9337,-0.2122,-0.6209,0.1118
5570,1019,771,33.604,25.712,0.004,-0.0552,9.8236,0.1614,-0.2307,0.1104
5575,1039,772,33.701,25.659,-0.0261,0.1079,9.7939,-0.1962,-0.2701,0.6051
5580,1044,766,33.682,25.636,0.106,-0.0154,9.8446,0.795,-0.2394,0.0594
5585,1053,777,33.641,25.721,0.0195,-0.1084,9.7502,0.6309,0.3847,0.0503
5590,1068,766,33.7,25.677,-0.0434,0.0234,9.8555,-0.8114,-0.1819,-0.3279
5595,1075,766,33.68,25.632,-0.041,-0.0665,9.7434,0.0073,-0.3647,0.8346
5600,1086,764,33.692,25.708,0.096,0.0564,9.7295,-0.0289,1.0757,0.2728
5605,1099,766,33.657,25.678,0.0532,-0.0813,9.7507,-0.7632,0.2021,-0.088
5610,1103,761,33.715,25.734,-0.0798,0.0039,9.7949,-0.3606,0.4002,0.3924
5615,1108,764,33.621,25.715,0.0073,0.0158,9.8382,0.5802,-0.1054,0.0663
5620,1126,757,33.683,25.767,0.0246,-0.0632,9.8339,0.2723,0.124,-0.1189
5625,1136,761,33.617,25.623,0.0471,0.061,9.8429,0.5951,-0.3451,-0.3828
5630,1144,762,33.668,25.678,0.007,0.0095,9.7624,0.2142,-0.3364,0.0046
5635,1132,758,33.663,25.593,-0.105,0.0316,9.777,0.4158,0.4945,-0.441
5640,1140,759,33.654,25.664,0.0071,-0.0528,9.7978,-0.6203,-0.4788,-0.28
5645,1157,757,33.638,25.7,0.0405,-0.0537,9.7999,0.7011,0.1874,-0.5083
5650,1156,754,33.67,25.688,0.0461,-0.011,9.8706,-0.7344,-0.8464,0.421
5655,1168,756,33.555,25.704,0.054,-0.1399,9.8182,-0.3102,0.6105,-0.131
5660,1163,759,33.655,25.704,0.0599,-0.0625,9.8172,0.4499,-0.5072,0.3926
5665,1166,762,33.675,25.643,0.0836,0.0256,9.8409,-0.5077,0.3403,-0.246
5670,1176,762,33.694,25.761,0.0094,-0.0829,9.8612,0.2901,0.0401,0.9664
5675,1180,754,33.654,25.602,-0.0906,0.0569,9.8061,-0.1949,-0.1394,-0.0996
5680,1185,765,33.67,25.711,-0.0098,-0.0403,9.8281,-0.5269,-0.0582,0.202
5685,1177,764,33.639,25.734,0.0034,-0.0345,9.7932,0.2659,0.134,-0.0269
5690,1186,761,33.669,25.718,0.0416,-0.0433,9.771,-0.0673,-0.4116,0.6285
5695,1196,758,33.713,25.636,0.0779,-0.0155,9.9013,0.0578,1.0273,0.8317
5700,1185,766,33.64,25.615,-0.03,-0.0059,9.8561,-0.4193,0.1432,0.6889
5705,1184,762,33.603,25.704,0.024,-0.0524,9.8266,0.088,0.0712,0.008
5710,1184,764,33.615,25.696,-0.0204,0.0008,9.7796,0.621,0.485,-0.0536
5715,1195,766,33.62,25.738,0.0507,0.1326,9.8799,1.3284,0.6713,0.0124
5720,1181,770,33.609,25.609,-0.0234,-0.1415,9.7544,0.1348,0.0725,-0.1404
5725,1178,766,33.645,25.768,-0.1095,0.0468,9.7982,-0.5439,-0.2576,0.2691
5730,1184,770,33.648,25.631,0.0712,0.0432,9.8255,0.3033,-0.2274,0.0443
5735,1183,769,33.687,25.7,0.0318,-0.0,9.8338,-0.1674,-0.193,0.1056
5740,1187,773,33.658,25.669,0.0116,0.0216,9.8218,-0.1146,0.1923,0.4021
5745,1176,778,33.704,25.761,0.0775,0.0238,9.9217,-0.0372,0.9527,-0.1548
5750,1175,773,33.648,25.724,0.0508,-0.0177,9.8027,-0.9932,-0.7445,-0.6295
5755,1166,774,33.6,25.691,0.0385,-0.1135,9.7527,0.0612,-0.0312,-0.6062
5760,1169,780,33.727,25.686,-0.0681,0.0493,9.7828,0.2568,0.1639,-0.7213
5765,1168,781,33.721,25.787,-0.0362,-0.0185,9.7782,0.0013,0.2666,-0.4266
5770,1168,784,33.678,25.627,0.0231,0.0291,9.835,0.1076,-0.1744,0.0671
5775,1153,790,33.566,25.66,-0.0053,0.0487,9.7843,0.1229,-0.0318,-0.4106
5780,1151,794,33.67,25.656,0.0871,0.0329,9.7887,-0.4712,0.8075,0.0136
5785,1152,787,33.7,25.655,-0.0352,-0.0537,9.8322,-0.1379,-0.2756,0.1559
5790,1145,790,33.596,25.664,0.0514,-0.0538,9.836,-0.3889,0.0913,-0.1489
5795,1140,792,33.685,25.653,-0.001,-0.0065,9.8003,0.0028,-0.4483,0.2464
5800,1147,794,33.624,25.575,-0.0621,0.0364,9.8557,0.3469,0.6062,0.2758
5805,1134,792,33.708,25.702,0.0428,0.0426,9.7955,-0.257,-0.7441,-0.8361
5810,1141,800,33.694,25.678,-0.0355,0.0758,9.7713,-0.046,0.708,-0.6566
5815,1133,802,33.658,25.641,0.0536,-0.0353,9.8488,-0.6382,-0.1389,-0.6991
5820,1130,800,33.652,25.671,-0.0382,0.074,9.7615,0.2514,0.8499,0.5649
5825,1120,805,33.704,25.769,-0.0826,0.0152,9.8616,-1.2241,0.0449,-0.1097
5830,1123,805,33.655,25.744,-0.0952,0.0406,9.8294,-0.4609,-0.3519,-0.6122
5835,1122,811,33.607,25.718,0.0274,0.0196,9.7901,0.3735,-0.0541,1.2872
5840,1123,813,33.645,25.727,0.0059,-0.0384,9.7546,-0.7252,-0.7116,-0.6986
5845,1111,813,33.748,25.651,0.1114,-0.1146,9.7854,0.1324,-0.4783,-0.1625
5850,1115,809,33.554,25.676,0.0602,0.0176,9.9093,-0.2759,-0.352,0.1682
5855,1109,822,33.668,25.789,0.0418,0.0584,9.8344,-0.0002,-0.7333,-0.1548
5860,1104,816,33.687,25.706,0.0657,-0.0141,9.7919,0.3055,-0.4884,0.0115
5865,1119,818,33.64,25.746,0.0321,-0.0142,9.8869,-0.2957,0.2944,0.4205
5870,1114,821,33.662,25.71,0.0316,-0.0911,9.766,0.0033,0.4039,-0.1029
5875,1104,821,33.608,25.73,0.0283,0.0245,9.8465,-0.3588,0.1898,-0.0105
5880,1097,827,33.681,25.679,-0.0238,-0.0717,9.7292,-0.6242,0.1479,-0.1169
5885,1098,822,33.646,25.69,-0.0594,-0.031,9.7671,0.2162,0.364,-0.4684
5890,1103,827,33.669,25.671,0.0175,0.041,9.7745,-0.429,0.9389,-0.0769
5895,1086,826,33.734,25.767,-0.0192,0.0391,9.9055,-0.7504,-0.7801,0.751
5900,1084,827,33.615,25.693,-0.0334,0.0745,9.756,0.6132,0.1738,-0.0895
5905,1088,825,33.612,25.689,-0.0239,-0.0561,9.9075,-0.3661,-0.4094,0.0613
5910,1091,830,33.622,25.578,0.0043,-0.0537,9.7801,-0.0664,0.2065,0.004
5915,1081,825,33.659,25.686,0.043,0.0438,9.8402,1.5576,0.0053,0.0809
5920,1084,829,33.699,25.776,-0.0033,0.0032,9.8896,-0.4575,-0.3841,0.3878
5925,1082,825,33.687,25.752,0.0187,-0.0416,9.8059,-0.6695,0.0565,-0.393
5930,1076,833,33.646,25.688,0.0559,-0.0636,9.8484,-0.0509,-0.0868,-0.0671
5935,1066,831,33.604,25.614,0.0041,0.0392,9.851,-0.074,0.3316,-0.2339
5940,1066,831,33.641,25.702,-0.0144,0.0421,9.8449,0.0782,0.2032,-0.0125
5945,1067,832,33.649,25.786,0.0215,0.0059,9.7406,0.1275,-0.0217,0.583
5950,1068,837,33.631,25.655,-0.0129,0.0265,9.7791,-0.3658,0.0131,-0.1679
5955,1071,826,33.703,25.732,-0.0054,-0.0668,9.7644,-0.0033,0.0595,0.1141
5960,1062,827,33.64,25.68,0.0255,-0.1261,9.8845,-0.8458,-0.2717,-0.8853
5965,1053,831,33.642,25.594,-0.0808,-0.0143,9.7963,0.0743,1.0724,0.2695
5970,1061,828,33.615,25.657,0.0811,-0.0453,9.7895,0.7517,0.3565,0.256
5975,1051,830,33.767,25.703,-0.0078,0.0152,9.8213,-1.3534,0.0804,-0.2565
5980,1044,831,33.649,25.726,-0.0319,-0.045,9.841,1.027,-0.3367,0.611
5985,1039,827,33.684,25.694,-0.0005,-0.0409,9.7998,0.2513,-0.5918,0.0282
5990,1041,824,33.673,25.646,0.1075,0.07,9.7885,0.0083,-0.0232,-0.4586
5995,1024,831,33.706,25.713,-0.014,0.02,9.8598,0.0403,-0.2135,0.8887
6000,1021,836,33.676,25.7,0.0388,-0.0074,9.7764,0.264,-0.066,-0.3545
6005,1006,829,33.666,25.716,0.0029,-0.0445,9.8093,-1.0674,-0.2072,0.342
6010,1013,825,33.659,25.689,0.0351,-0.0427,9.8814,-0.0368,-0.5422,0.3914
6015,1004,829,33.656,25.684,0.0877,-0.0337,9.8507,0.3351,-0.0328,-0.0602
6020,997,827,33.744,25.705,-0.0535,0.0516,9.879,0.231,-0.4377,0.5916
6025,991,823,33.745,25.694,0.0123,-0.0,9.8086,0.8857,-0.3119,0.0643
6030,974,828,33.809,25.716,-0.0085,0.0521,9.7922,0.278,0.2801,0.2627
6035,961,821,33.701,25.74,-0.0228,0.0149,9.7893,-0.1358,0.1323,-0.4772
6040,969,826,33.645,25.713,-0.0658,0.0409,9.7771,0.0621,0.4047,0.173
6045,961,824,33.554,25.542,-0.0676,-0.0185,9.7753,-0.7613,-0.3401,-0.4064
6050,954,817,33.674,25.662,-0.078,-0.04,9.7484,0.3536,0.4279,0.1921
6055,940,823,33.573,25.643,-0.0463,-0.0595,9.8319,0.519,0.6833,-0.5411
6060,939,819,33.634,25.74,0.0183,0.0628,9.7658,0.2914,-0.1516,0.6433
6065,924,821,33.636,25.623,-0.0985,0.0474,9.7942,0.5494,-0.5625,0.0092
6070,906,819,33.658,25.652,0.022,-0.0215,9.7133,-0.3463,0.3894,0.0592
6075,900,823,33.746,25.694,0.0097,-0.0365,9.8587,-0.6562,-0.0072,-0.0252
6080,891,820,33.603,25.663,-0.0323,-0.0112,9.7997,0.4054,0.1777,-0.9821
6085,883,819,33.628,25.667,-0.036,-0.0207,9.7717,-0.2673,0.3776,1.3689
6090,870,812,33.58,25.66,0.0002,0.0205,9.7411,-0.1496,-0.6406,0.0659
6095,867,819,33.617,25.702,-0.0084,-0.0363,9.7287,0.668,-0.1126,-0.2261
6100,869,820,33.626,25.662,-0.0342,0.113,9.8864,-0.2858,-0.3276,-0.3219
6105,851,812,33.706,25.628,0.0397,-0.0066,9.8154,-0.7058,0.7861,-0.1701
6110,847,815,33.603,25.619,0.0298,0.0202,9.7811,0.4057,-0.2251,0.1418
6115,845,816,33.713,25.873,-0.0113,-0.0703,9.7612,-0.0151,-0.6633,0.0831
6120,827,815,33.675,25.641,0.0225,0.1021,9.8517,-0.3188,1.0088,-0.5549
6125,822,816,33.678,25.702,0.0478,-0.0459,9.7074,-0.1138,0.3206,0.4179
6130,810,818,33.619,25.643,0.0855,-0.0337,9.876,0.631,-0.1899,0.2094
6135,803,816,33.7,25.669,-0.0254,-0.0238,9.7521,0.3109,-0.2904,-0.065
6140,806,820,33.669,25.73,-0.0038,0.0229,9.8103,-0.2034,-0.3924,-0.3161
6145,782,818,33.537,25.709,-0.0708,0.0604,9.7388,-0.4248,0.2596,0.7169
6150,792,812,33.585,25.792,0.0425,-0.0046,9.7568,-0.2214,0.5047,-0.2016
6155,769,811,33.644,25.661,-0.038,-0.0317,9.758,-1.2424,0.2786,-0.1188
6160,772,813,33.671,25.673,0.0727,-0.0588,9.844,0.492,-0.2206,-0.1795
6165,773,813,33.634,25.665,-0.0269,-0.0194,9.8595,0.6167,0.8714,-0.251
6170,760,816,33.747,25.737,-0.0102,-0.01,9.7701,-0.2935,0.1492,-0.2393
6175,759,812,33.623,25.772,-0.0591,-0.06,9.7926,-0.333,-0.2299,0.5204
6180,750,814,33.673,25.718,0.0436,0.0179,9.7683,0.0827,-0.3201,-0.5664
6185,756,810,33.718,25.669,-0.0723,-0.0071,9.8795,-0.5246,-0.3635,0.3112
6190,745,816,33.64,25.665,0.0154,-0.0227,9.8247,0.3931,-0.7346,-0.2064
6195,750,811,33.682,25.734,-0.0855,0.0624,9.7601,0.314,-0.0389,0.4564
6200,759,808,33.659,25.626,0.0676,0.0018,9.7996,0.1248,-0.3324,0.0375
6205,743,813,33.648,25.588,-0.0698,0.0336,9.7858,0.0813,-0.5148,0.2514
6210,749,811,33.595,25.639,0.1446,-0.0043,9.8321,-0.3352,0.2373,-0.3692
6215,737,812,33.698,25.609,-0.0583,0.028,9.8318,-0.2723,1.0542,0.5584
6220,750,805,33.599,25.683,-0.0394,-0.0672,9.757,-0.2502,0.9062,-0.1761
6225,745,807,33.627,25.741,0.0518,-0.0002,9.7115,0.0078,-0.2246,-0.6756
6230,757,805,33.707,25.774,0.0752,0.0299,9.9008,0.3273,-0.87,0.1833
6235,761,812,33.683,25.779,-0.0088,-0.0324,9.773,-1.4864,-0.1786,-0.1653
6240,756,806,33.721,25.687,0.074,-0.0797,9.8146,-0.3353,0.3081,-0.5039
6245,779,805,33.73,25.705,0.0143,0.0202,9.8482,-0.5192,-0.7348,0.1407
6250,770,807,33.576,25.72,-0.0071,-0.032,9.8317,0.265,-0.4872,0.0591
6255,779,794,33.665,25.709,-0.0478,-0.0711,9.7565,0.5997,0.5097,0.7044
6260,785,802,33.651,25.693,-0.0669,0.0274,9.8121,1.1692,0.3546,0.221
6265,802,801,33.665,25.664,0.0514,0.0104,9.691,-0.2875,-0.0941,-0.3342
6270,804,805,33.601,25.731,0.0866,-0.0438,9.749,0.0566,-0.008,0.2569
6275,813,800,33.719,25.669,0.0859,0.01,9.8267,-0.5362,-0.2588,-0.6133
6280,816,800,33.628,25.629,-0.0079,-0.0101,9.835,0.3444,0.2783,-0.1828
6285,832,799,33.673,25.685,-0.0381,-0.0886,9.8444,0.0789,0.2475,0.3149
6290,840,795,33.579,25.682,0.0309,-0.0246,9.8122,-0.5812,0.566,0.5213
6295,853,799,33.582,25.721,0.0079,0.0272,9.7721,0.7822,-0.7269,0.0754
6300,863,793,33.73,25.66,-0.0953,0.0186,9.8363,1.001,-0.1678,0.4242
6305,859,795,33.699,25.645,-0.0403,0.0114,9.7573,0.4558,0.1879,-0.8621
6310,887,786,33.636,25.786,-0.0158,-0.0694,9.7614,-0.6088,-0.6138,0.1181
6315,892,786,33.615,25.734,0.0084,-0.0588,9.765,-0.3367,1.1019,0.4226
6320,912,785,33.634,25.738,-0.0407,0.0116,9.8227,-0.1835,0.2073,0.3952
6325,916,785,33.631,25.726,0.008,-0.0493,9.7482,-0.014,-0.052,0.6355
6330,933,781,33.624,25.797,0.0447,-0.0021,9.7039,-0.745,0.5037,-0.8333
6335,938,788,33.612,25.663,-0.0878,0.0126,9.8488,0.6119,0.0967,-0.3279
6340,952,784,33.685,25.805,0.0386,0.0948,9.7791,-0.3017,-0.1614,0.4988
6345,959,782,33.731,25.607,0.0124,-0.1125,9.7388,0.1281,-0.3829,-0.0597
6350,975,780,33.634,25.719,0.0716,0.0281,9.8795,-0.5375,-0.5723,-0.4652
6355,988,780,33.685,25.687,0.0198,-0.0017,9.7788,-0.0692,0.5153,0.4504
6360,1003,777,33.711,25.727,-0.0393,0.0304,9.8392,-0.497,-0.3952,-0.4202
6365,1010,768,33.628,25.73,-0.0568,-0.0804,9.7861,0.1829,0.5438,-0.0697
6370,1026,771,33.686,25.759,-0.0619,0.03,9.8505,0.602,-0.0346,0.3316
6375,1032,770,33.614,25.712,-0.0434,-0.0315,9.8104,-0.9455,-0.7667,0.3235
6380,1041,771,33.735,25.704,-0.0226,0.067,9.8961,0.0889,-1.1362,-0.2819
6385,1048,774,33.722,25.719,-0.0494,-0.0558,9.7884,0.3717,0.4653,0.4177
6390,1061,775,33.651,25.649,0.0185,0.0294,9.7883,0.0544,-0.5672,-0.2483
6395,1086,768,33.617,25.711,-0.0328,0.0084,9.8744,-0.2028,-0.3314,-0.5037
6400,1085,770,33.651,25.701,-0.0316,-0.0237,9.8802,-0.1082,0.854,-0.7766
6405,1098,769,33.675,25.784,0.052,0.0179,9.8357,-0.2259,0.0365,0.4843
6410,1101,765,33.585,25.651,-0.0581,-0.0075,9.791,1.0734,0.1625,-0.2463
6415,1119,753,33.674,25.701,-0.0652,0.0003,9.8507,-0.3425,0.0866,0.2588
6420,1124,763,33.713,25.6,0.0176,0.0287,9.7721,0.2075,-0.3067,-0.9618
6425,1135,765,33.63,25.738,-0.0308,-0.1397,9.8497,0.5999,1.1176,-0.1415
6430,1134,758,33.668,25.628,0.0043,0.0514,9.7731,0.0605,-1.0769,-0.7402
6435,1142,758,33.712,25.711,-0.0139,0.0807,9.8332,-0.6648,0.977,0.0617
6440,1157,758,33.59,25.661,-0.0842,-0.017,9.8752,-0.045,0.7381,-0.207
6445,1152,755,33.661,25.591,0.0301,-0.0384,9.8382,-0.3172,-0.4435,-0.006
6450,1167,756,33.72,25.642,-0.059,-0.0412,9.7924,-0.5573,0.3,-0.2082
6455,1160,762,33.68,25.733,-0.0784,0.0904,9.8038,-0.1404,0.0803,-0.9649
6460,1168,761,33.731,25.736,0.0127,-0.0194,9.7401,0.4195,-0.0403,0.9424
6465,1172,767,33.617,25.707,-0.0335,0.0055,9.8268,-0.5518,0.4038,-1.2223
6470,1183,762,33.712,25.637,0.0042,0.0276,9.8371,-0.0305,-0.0433,0.2186
6475,1180,765,33.68,25.732,0.044,0.075,9.8433,-0.4415,-0.0061,0.0266
6480,1192,761,33.574,25.689,-0.0584,0.1314,9.8179,-0.5901,0.3493,0.8456
6485,1188,761,33.67,25.808,0.0161,-0.043,9.8054,-0.554,0.4848,0.8214
6490,1197,766,33.736,25.73,0.0337,0.0315,9.8599,-0.6413,-0.4348,0.2993
6495,1183,761,33.7,25.622,-0.0018,-0.0812,9.8052,0.2311,0.9119,0.0277
6500,1190,763,33.684,25.782,0.0163,0.0419,9.839,-0.2874,-0.5049,-0.2794
6505,1187,762,33.647,25.719,-0.01,0.032,9.7677,0.3328,0.636,-0.0139
6510,1191,765,33.694,25.75,-0.0012,-0.0467,9.7846,-0.3907,1.4679,-0.2749
6515,1195,766,33.619,25.658,0.0191,-0.0219,9.7805,-0.6295,-0.4815,-0.3437
6520,1183,761,33.656,25.699,-0.006,0.0415,9.8891,0.6015,-0.0686,-0.0007
6525,1181,769,33.692,25.8,0.0618,0.0809,9.746,-0.3534,-0.4663,-0.3085
6530,1184,767,33.753,25.725,-0.012,-0.0374,9.8028,0.5402,0.4796,0.1183
6535,1182,772,33.693,25.684,-0.0172,0.0618,9.7872,0.3516,0.2417,-0.7706
6540,1184,764,33.601,25.683,-0.055,-0.0535,9.7997,-0.3124,0.344,1.0061
6545,1176,777,33.777,25.702,-0.0174,0.0074,9.8927,-0.2699,-0.5819,0.1609
6550,1180,779,33.674,25.781,-0.0263,0.012,9.8445,-0.4821,0.6131,1.1795
6555,1168,775,33.631,25.684,0.0526,0.1127,9.7574,-0.3868,-0.0961,0.0672
6560,1164,776,33.706,25.695,-0.092,-0.0149,9.8364,-0.4306,0.664,1.0135
6565,1162,779,33.575,25.678,0.0112,0.0633,9.7695,-0.8014,0.5726,0.064
6570,1162,781,33.715,25.72,0.0031,0.0222,9.8209,-0.0311,-0.1723,-0.7365
6575,1147,787,33.573,25.708,-0.028,-0.0685,9.8096,-0.5407,0.1933,0.2126
6580,1155,784,33.708,25.718,0.0181,0.0029,9.8141,0.3989,-0.1857,0.0854
6585,1152,786,33.669,25.633,0.0266,0.0635,9.8082,0.8822,-0.4665,-0.726
6590,1155,794,33.661,25.64,-0.0352,-0.0184,9.7369,-0.3313,0.1275,0.2724
6595,1144,793,33.685,25.665,-0.0461,0.0578,9.7896,-0.0594,-0.4618,0.0216
6600,1136,795,33.666,25.669,0.146,-0.0172,9.7822,0.0456,0.2509,-0.2927
6605,1134,796,33.688,25.707,0.0335,-0.0086,9.8556,-0.5055,-0.5454,-0.3773
6610,1142,797,33.681,25.74,0.0405,0.0603,9.8221,-0.3665,0.2218,-0.3775
6615,1124,802,33.594,25.651,-0.0044,-0.0205,9.7822,-0.3685,-0.1148,0.0582
6620,1128,808,33.746,25.639,-0.0189,-0.1062,9.7585,-0.4312,0.8135,0.1727
6625,1124,803,33.639,25.728,0.0242,0.0145,9.7926,-0.2756,-0.6713,0.7654
6630,1123,804,33.669,25.776,-0.0074,0.0363,9.8731,0.3607,-0.1815,0.4206
6635,1118,809,33.586,25.651,0.0358,0.0364,9.7249,-0.5884,-0.1555,0.3118
6640,1123,805,33.658,25.686,0.0565,0.0458,9.7087,-0.2361,0.1459,-1.256
6645,1113,810,33.72,25.684,-0.0037,-0.016,9.7633,0.2498,-0.0589,-0.0009
6650,1108,809,33.587,25.708,-0.0658,0.018,9.8646,0.0115,0.0657,-0.5122
6655,1112,812,33.664,25.726,0.1155,-0.0893,9.8232,-0.4531,0.2989,0.3983
6660,1120,817,33.679,25.617,0.0337,-0.0698,9.8681,-0.7416,0.3847,-0.7575
6665,1110,816,33.66,25.745,0.0095,-0.0223,9.883,0.1376,-0.1817,-0.614
6670,1109,818,33.807,25.689,0.0432,-0.0887,9.7645,0.6236,0.1141,-0.2572
6675,1104,817,33.646,25.797,0.0194,0.1034,9.8125,0.6841,-0.6523,-0.262
6680,1098,825,33.747,25.702,0.0246,-0.0391,9.773,-0.296,0.4644,0.1053
6685,1101,825,33.765,25.758,-0.0112,0.0797,9.7452,0.3582,-0.2457,-0.9855
6690,1093,823,33.669,25.697,0.0609,-0.1056,9.8039,-0.336,0.0293,-0.5159
6695,1094,825,33.651,25.672,0.0702,0.0917,9.7691,-1.143,-0.1086,-0.1109
6700,1081,825,33.722,25.721,0.0158,0.0604,9.8818,-0.2928,0.3646,0.0615
6705,1087,825,33.638,25.661,0.0285,-0.0164,9.7401,-0.8716,0.2056,0.5315
6710,1077,824,33.618,25.692,0.1072,-0.051,9.7756,1.2153,-0.1744,0.0842
6715,1086,826,33.674,25.641,-0.0227,-0.071,9.7778,-0.6164,-0.4907,-0.3532
6720,1078,831,33.681,25.668,0.063,-0.0292,9.766,-0.3955,0.2963,-0.8818
6725,1075,830,33.639,25.677,-0.0426,0.0401,9.814,-0.0552,0.4746,0.9906
6730,1075,832,33.626,25.769,-0.021,0.0071,9.8427,-0.8379,0.2641,-0.3607
6735,1071,838,33.619,25.74,-0.0674,-0.0352,9.7657,-0.0874,-0.1985,-0.2162
6740,1065,830,33.699,25.638,0.0001,-0.0287,9.7876,0.6935,-0.7942,-0.177
6745,1060,832,33.612,25.726,-0.0476,-0.0234,9.8842,0.0708,0.7988,-0.335
6750,1055,828,33.669,25.699,-0.049,-0.0567,9.8378,0.2699,-0.2145,-0.0089
6755,1068,827,33.735,25.769,-0.0632,-0.0442,9.8394,-0.2263,-0.258,0.5388
6760,1057,827,33.68,25.708,0.0299,0.0114,9.7894,0.16,-0.5006,0.1712
6765,1051,826,33.678,25.706,-0.0122,-0.0876,9.7325,0.4368,-0.1409,-0.0852
6770,1047,828,33.633,25.722,0.0334,0.0469,9.8086,-0.1874,0.1164,-0.3881
6775,1046,834,33.626,25.707,-0.0721,-0.0289,9.7955,-0.1165,-0.435,-0.3405
6780,1035,829,33.627,25.639,0.0502,0.0809,9.8566,-0.1644,0.2052,-1.1459
6785,1034,830,33.622,25.786,0.0044,-0.0588,9.8162,-0.7934,0.0781,0.4889
6790,1026,830,33.79,25.773,0.0328,0.0488,9.8495,0.0917,-0.2386,-0.1609
6795,1028,823,33.657,25.707,0.0029,0.0118,9.8591,-0.4333,-0.0562,0.324
6800,1028,831,33.706,25.66,-0.0191,-0.0212,9.8549,-0.5401,-0.1174,0.2861
6805,1016,827,33.682,25.697,-0.0144,0.1211,9.8314,-0.6406,-0.5915,-0.0816
6810,1013,828,33.635,25.721,0.0311,0.0087,9.813,-0.3373,0.0358,-0.3933
6815,999,821,33.621,25.726,-0.0733,-0.0202,9.7081,0.2645,0.8712,-0.5802
6820,994,828,33.64,25.706,0.0114,0.0683,9.8796,0.7878,-1.1737,0.1395
6825,988,828,33.615,25.725,0.0956,0.018,9.7553,0.4737,-0.1793,0.1492
6830,971,829,33.617,25.727,0.0878,-0.06,9.8498,-0.6659,0.1125,0.3466
6835,976,823,33.656,25.776,0.076,-0.0635,9.7826,0.6064,-0.7706,0.4287
6840,966,818,33.683,25.67,0.0598,-0.0385,9.9002,1.1961,0.074,0.1915
6845,950,825,33.629,25.696,-0.0451,-0.0618,9.8669,0.5645,0.1434,-0.0961
6850,944,823,33.605,25.732,0.022,-0.013,9.9054,-0.6459,1.0848,0.1336
6855,932,829,33.622,25.72,0.0402,-0.0252,9.702,0.1236,0.9341,0.6248
6860,939,817,33.556,25.706,0.0057,-0.0453,9.8282,0.5939,0.4517,-0.5095
6865,917,827,33.666,25.748,-0.0471,0.0665,9.7622,-0.1002,0.0458,0.0519
6870,904,822,33.671,25.638,-0.0746,-0.052,9.836,0.601,0.2191,-0.3483
6875,906,818,33.612,25.721,0.052,-0.003,9.8351,0.3653,0.7265,0.4668
6880,894,820,33.642,25.742,-0.0429,-0.0203,9.8421,-0.7502,0.34,-0.1377
6885,883,818,33.653,25.679,-0.0083,0.0533,9.7713,0.1567,-0.4844,-0.3168
6890,871,821,33.661,25.722,-0.0361,-0.0199,9.8776,0.4367,-0.1328,-0.4344
6895,874,817,33.723,25.698,0.0033,0.0189,9.8283,0.0089,0.201,0.0552
6900,856,818,33.655,25.801,0.0432,0.0331,9.7997,-0.034,0.6387,-0.7902
6905,852,812,33.719,25.755,0.0679,0.0295,9.7544,-0.467,0.533,-0.4101
6910,840,821,33.653,25.652,0.0083,-0.0944,9.7988,0.4598,0.3541,0.6733
6915,826,818,33.62,25.75,0.0151,-0.0024,9.8812,0.0623,0.1467,1.0232
6920,821,818,33.618,25.737,-0.0598,-0.0232,9.8342,0.7646,-0.2643,-0.519
6925,815,819,33.698,25.687,0.0307,-0.0605,9.8153,-0.4056,0.1572,0.2052
6930,807,814,33.673,25.734,-0.0468,-0.013,9.7996,-0.3109,0.181,-0.0213
6935,795,816,33.656,25.708,-0.0773,0.1086,9.8841,-0.0912,-0.0246,0.08
6940,793,806,33.598,25.79,0.0384,-0.0062,9.7622,0.2393,1.1045,-0.2725
6945,790,816,33.675,25.731,-0.0109,0.0408,9.9547,0.368,-0.2857,0.4492
6950,779,813,33.694,25.688,-0.0216,-0.0334,9.7547,0.377,0.1769,0.6044
6955,772,816,33.629,25.655,-0.0582,-0.0015,9.8329,-0.4788,0.5156,0.3027
6960,781,811,33.65,25.707,0.091,0.038,9.8013,-0.4917,0.3874,-0.4749
6965,766,812,33.617,25.705,-0.0562,0.0522,9.7893,-0.4326,0.0573,0.022
6970,761,810,33.693,25.677,-0.0894,0.0237,9.7147,-0.6954,-0.1623,0.3141
6975,757,816,33.615,25.733,0.0423,0.0345,9.8714,-0.0528,0.2762,0.2031
6980,759,813,33.613,25.691,0.0425,-0.0057,9.8065,0.5409,-0.2733,0.1065
6985,762,813,33.631,25.763,-0.0037,0.0341,9.816,-0.0042,-0.318,0.0232
6990,749,811,33.747,25.737,0.0094,-0.0045,9.808,0.1439,0.6782,0.9384
6995,754,809,33.655,25.767,0.0224,0.0168,9.8109,0.2119,0.3541,0.2988
7000,749,809,33.67,25.737,-0.0405,0.0464,9.7844,0.1322,0.8898,-0.5074
7005,751,815,33.722,25.642,0.0187,0.0954,9.9337,1.2419,0.1037,-0.4419
7010,749,813,33.689,25.716,-0.0275,-0.0767,9.7892,0.148,-0.1905,0.2015
7015,748,809,33.602,25.653,-0.0394,0.0254,9.7678,-0.4357,-0.2855,-0.4054
7020,758,809,33.653,25.515,0.0411,0.0868,9.8765,-0.3426,0.4349,0.0247
7025,751,809,33.594,25.709,0.0033,0.0667,9.8912,0.034,-0.673,-0.0205
7030,761,811,33.678,25.641,-0.0827,0.1085,9.8172,-0.6903,-0.7601,0.6958
7035,759,807,33.6,25.683,-0.0576,0.0511,9.8291,-0.4452,-0.5418,-0.5977
7040,774,805,33.684,25.626,0.0279,-0.0821,9.8988,0.8661,0.6616,1.1305
7045,773,805,33.733,25.706,0.0198,-0.1169,9.8469,0.9464,-0.3169,-0.3471
7050,777,799,33.703,25.786,0.0619,-0.019,9.73,-0.008,-0.6406,-0.3081
7055,794,803,33.653,25.765,-0.0373,-0.0322,9.804,-0.2742,0.447,-0.0122
7060,793,799,33.698,25.765,0.0767,0.0253,9.8243,-0.4222,0.225,0.0028
7065,791,802,33.635,25.739,-0.0506,0.0174,9.796,0.0582,0.4401,-0.202
7070,797,799,33.687,25.702,-0.0721,0.0251,9.74,0.2215,0.5543,0.5331
7075,815,797,33.649,25.726,-0.0095,0.0232,9.8523,-0.7154,-0.0503,0.3703
7080,829,796,33.702,25.714,0.0084,-0.0404,9.7633,0.597,0.0488,-0.3388
7085,833,801,33.748,25.756,0.0118,0.0717,9.7922,-0.4018,0.6146,0.6088
7090,841,795,33.657,25.769,0.0257,-0.0785,9.8324,0.3354,0.1491,-0.1531
7095,857,794,33.66,25.792,0.0364,-0.0012,9.7576,-0.1558,0.2761,-0.2369
7100,857,792,33.649,25.698,0.0025,-0.008,9.7371,-0.4265,0.2028,0.2434
7105,874,794,33.64,25.691,-0.0606,0.0735,9.7955,0.8051,-1.0363,-0.2905
7110,888,788,33.669,25.695,0.0094,0.0689,9.7418,-0.4085,0.3242,0.5893
7115,894,790,33.65,25.708,-0.0638,0.0606,9.8456,-0.4404,-0.0693,0.5418
7120,916,787,33.578,25.704,-0.0126,0.1112,9.841,0.7578,0.625,-0.3466
7125,923,779,33.612,25.692,-0.0177,-0.0175,9.8102,-0.0922,-0.3529,0.4113
7130,938,784,33.659,25.655,-0.0226,0.0303,9.7168,0.2571,-0.3902,-0.5235
7135,940,780,33.726,25.695,-0.0429,-0.0251,9.7619,0.5197,0.1506,-0.1181
7140,962,776,33.707,25.649,-0.0064,0.0541,9.8635,0.1582,0.2781,-0.2589
7145,968,776,33.598,25.682,0.0018,0.0575,9.7155,-0.2773,0.4245,-0.722
7150,978,774,33.646,25.682,0.041,0.0025,9.6874,-0.3583,0.7096,-0.8475
7155,999,781,33.688,25.742,0.0006,-0.1396,9.9124,-0.4915,-0.3881,-0.3838
7160,1010,772,33.742,25.796,-0.0199,0.004,9.7943,-0.0663,0.074,-0.067
7165,1006,772,33.761,25.788,-0.0209,-0.0613,9.8064,0.4291,-0.3018,0.8199
7170,1029,761,33.719,25.664,-0.0581,0.0729,9.8223,-0.2035,0.3225,-0.2778
7175,1037,774,33.662,25.673,0.0611,-0.002,9.7474,-0.1965,-0.0828,-0.0672
7180,1053,767,33.603,25.736,0.0117,-0.0275,9.8458,0.7866,-0.0666,-0.5461
7185,1066,767,33.7,25.683,0.0281,-0.0385,9.773,-0.2404,0.2431,0.0498
7190,1073,768,33.655,25.705,0.0542,0.0366,9.8095,-0.1014,-0.0714,0.2639
7195,1076,766,33.591,25.803,0.0147,0.0218,9.844,-0.1798,-0.4901,0.2918
7200,1087,763,33.592,25.662,-0.023,-0.0629,9.8357,0.6324,-0.2912,0.0822
7205,1099,759,33.719,25.773,0.0168,-0.0849,9.8374,0.4606,1.4915,0.1609
7210,1114,760,33.679,25.759,-0.0285,0.0346,9.7429,-0.0501,1.1629,-0.1327
7215,1116,759,33.673,25.707,-0.0485,0.0009,9.7974,-0.0979,-0.0974,-0.4297
7220,1119,760,33.629,25.727,-0.0163,0.0234,9.7918,0.2606,-0.0392,-0.3812
7225,1140,763,33.703,25.711,-0.0856,0.0087,9.7865,-0.6769,-0.2032,0.0586
7230,1134,755,33.694,25.717,-0.053,0.0079,9.8293,-0.2348,1.1441,0.1629
7235,1147,763,33.682,25.695,-0.083,-0.0145,9.7963,0.0744,-0.2761,1.0363
7240,1147,762,33.649,25.645,0.0202,-0.0163,9.8577,0.3016,-0.0644,-0.3152
7245,1169,757,33.642,25.738,0.0072,0.038,9.8189,0.1557,-0.2239,1.258
7250,1172,760,33.714,25.681,0.0522,0.0023,9.7525,-0.0388,-0.3251,0.0539
7255,1174,768,33.668,25.681,-0.0315,0.1034,9.9326,0.3081,0.3314,0.1077
7260,1182,760,33.703,25.659,-0.0244,0.0757,9.8443,-0.0727,0.392,-0.3579
7265,1170,762,33.718,25.614,-0.0025,-0.0238,9.8162,0.5387,0.9596,0.1642
7270,1172,757,33.603,25.743,0.0133,-0.0144,9.8411,-0.6963,-0.0309,-0.3702
7275,1183,763,33.694,25.703,0.0819,0.0175,9.8269,0.2846,1.0333,-0.6113
7280,1187,760,33.658,25.732,-0.0098,0.0217,9.942,-0.3438,0.1755,-0.3459
7285,1191,763,33.65,25.637,0.0598,-0.0169,9.7367,-0.0457,0.1412,0.7643
7290,1189,761,33.737,25.69,-0.0838,0.1027,9.7884,-0.4844,-0.722,-0.3753
7295,1180,763,33.657,25.718,0.0098,-0.102,9.7679,0.3176,-0.1667,-0.6059
7300,1186,759,33.563,25.68,0.0177,-0.0771,9.8064,-0.1253,-0.1584,-0.1814
7305,1192,764,33.679,25.711,-0.0102,-0.0107,9.9094,0.012,0.5022,-1.0337
7310,1180,762,33.72,25.683,0.0316,-0.0291,9.9024,-0.0367,0.3596,0.6387
7315,1185,766,33.65,25.679,0.0634,0.0071,9.6828,-0.1853,0.6643,-0.0883
7320,1185,768,33.669,25.645,-0.0185,-0.0559,9.7977,-0.0749,0.0355,0.6096
7325,1192,771,33.665,25.753,0.0077,0.0526,9.8087,-0.1897,0.544,0.6906
7330,1185,766,33.788,25.73,-0.0348,-0.0175,9.8046,0.1425,-0.0961,0.3459
7335,1177,769,33.755,25.747,-0.0015,-0.0628,9.8036,-0.2493,0.2732,-0.0681
7340,1175,771,33.713,25.701,0.0297,0.0062,9.889,-0.0927,0.0992,0.2794
7345,1177,776,33.686,25.72,-0.0292,0.0316,9.8428,-1.1632,-0.4725,-0.562
7350,1174,776,33.679,25.681,-0.0121,-0.0595,9.8015,0.8167,0.6126,0.382
7355,1166,778,33.596,25.668,0.1056,0.0192,9.7788,-0.1301,0.2524,0.2804
7360,1168,779,33.626,25.598,0.002,0.0624,9.758,0.8508,-0.6258,-0.0917
7365,1174,779,33.599,25.621,0.039,0.0138,9.766,-0.2697,-0.2634,-0.0237
7370,1154,777,33.646,25.756,-0.0887,0.0514,9.8154,-0.4144,0.1386,-0.5831
7375,1158,781,33.648,25.745,0.0019,0.0165,9.7642,0.3176,0.1899,0.7801
7380,1158,790,33.673,25.693,0.0508,-0.0109,9.7967,0.6718,0.7891,0.7291
7385,1146,793,33.754,25.694,0.0173,0.0315,9.8152,-0.3033,-0.8644,-0.8495
7390,1147,790,33.687,25.704,-0.0474,0.0367,9.791,0.1521,0.0798,0.547
7395,1139,794,33.679,25.778,0.0575,0.0353,9.8247,-0.3894,-0.1131,-0.2834
7400,1139,797,33.673,25.707,-0.0436,-0.0488,9.7993,-0.8014,0.3761,0.6578
7405,1138,799,33.647,25.653,-0.0563,-0.0616,9.727,0.3802,-0.8406,0.1893
7410,1136,797,33.696,25.766,-0.0257,-0.0092,9.831,-0.3353,-0.1362,0.1476
7415,1119,808,33.725,25.709,0.0424,-0.0005,9.8,-0.4857,-0.069,0.2242
7420,1125,810,33.71,25.675,-0.0164,-0.0992,9.8082,-0.3091,0.1581,-0.0116
7425,1132,809,33.703,25.677,-0.0075,-0.0159,9.829,-0.5877,-0.3208,-0.516
7430,1124,809,33.698,25.711,0.0324,0.1597,9.8105,-0.3738,0.5241,-0.4384
7435,1121,809,33.642,25.697,-0.0839,0.0116,9.8835,0.2474,-0.3621,-0.9753
7440,1113,810,33.655,25.771,-0.0232,0.0463,9.8152,0.8422,0.2556,-0.6603
7445,1113,815,33.648,25.678,-0.0503,0.0842,9.8317,0.1995,-0.6825,0.5967
7450,1111,812,33.836,25.745,0.0162,0.0054,9.8648,-0.4395,0.2909,0.3192
7455,1110,818,33.704,25.748,-0.0145,-0.0241,9.838,-0.6506,0.2119,0.8901
7460,1106,814,33.708,25.652,0.005,0.026,9.8361,0.8824,-0.2557,0.2185
7465,1104,819,33.677,25.784,-0.0288,-0.0855,9.8143,1.3776,-0.6624,-0.4827
7470,1101,820,33.72,25.687,-0.0007,0.0264,9.8185,-0.5765,-0.6754,-0.4809
7475,1103,821,33.62,25.723,-0.0902,0.0225,9.8149,-1.2261,-0.4215,-0.0094
7480,1094,818,33.643,25.677,-0.0153,0.0193,9.8196,-0.5785,-0.6718,-0.6503
7485,1098,823,33.658,25.657,0.0401,-0.029,9.7053,-0.4832,0.4748,-0.185
7490,1101,820,33.728,25.621,-0.0126,-0.0375,9.863,-0.4724,0.4141,-0.2473
7495,1089,823,33.675,25.738,-0.0516,0.0747,9.7904,0.7052,0.7138,-0.4406
7500,1076,824,33.703,25.703,0.0257,0.0591,9.8623,0.1667,-0.0939,-0.4064
7505,1083,827,33.632,25.808,0.0773,-0.0414,9.793,0.1189,0.1176,0.3557
7510,1084,827,33.624,25.673,0.0959,0.0206,9.7804,0.0546,-0.3231,0.2254
7515,1091,829,33.608,25.7,-0.0177,-0.0381,9.7339,-1.5029,-0.0916,0.0819
7520,1081,830,33.636,25.619,-0.068,0.0237,9.8665,-0.5212,0.2248,-0.2985
7525,1081,830,33.699,25.724,0.0223,-0.0413,9.7311,-0.3468,-0.6519,0.1018
7530,1074,829,33.619,25.791,0.056,0.057,9.7662,0.2827,-0.2439,-1.1317
7535,1082,831,33.671,25.771,0.0371,-0.0255,9.7933,0.0596,0.3242,-0.533
7540,1068,831,33.704,25.696,-0.0063,0.01,9.7532,0.1652,-0.1941,0.293
7545,1071,827,33.774,25.71,0.0724,0.0083,9.8321,0.1404,-0.3458,0.9189
7550,1057,835,33.688,25.702,-0.0603,-0.0798,9.8424,-0.0207,-0.0588,0.4628
7555,1064,833,33.674,25.683,0.0863,-0.0031,9.8434,-0.4424,-0.2905,0.1625
7560,1054,829,33.64,25.694,-0.036,0.0141,9.7407,-0.5532,1.787,0.0482
7565,1054,835,33.677,25.687,-0.0431,0.035,9.7993,0.7988,0.388,-0.5095
7570,1043,829,33.78,25.69,-0.0445,-0.0236,9.8152,-0.7464,0.4209,0.5262
7575,1031,834,33.592,25.737,0.0195,-0.0032,9.8264,0.7136,0.6968,-0.3786
7580,1046,831,33.648,25.667,0.0007,-0.0893,9.8305,-0.3066,0.3667,0.2589
7585,1031,825,33.664,25.732,-0.0083,-0.0692,9.8763,0.149,-0.0688,-0.8182
7590,1028,824,33.7,25.667,0.004,0.075,9.7902,-0.3841,0.3761,0.1197
7595,1023,830,33.667,25.733,0.0555,0.0279,9.805,0.7672,0.3467,0.8146
7600,1014,829,33.634,25.685,0.0646,-0.0469,9.7752,0.1727,0.0458,-0.2944
7605,1004,828,33.684,25.644,0.0505,0.0748,9.8861,-0.5019,0.0918,-0.0178
7610,999,826,33.675,25.659,0.0116,0.0233,9.917,0.0634,-0.4698,0.1963
7615,999,818,33.684,25.683,-0.0362,-0.0695,9.8135,0.221,0.1148,-0.5767
7620,990,826,33.535,25.723,-0.0452,-0.0451,9.8358,0.7351,-0.322,0.074
7625,987,827,33.807,25.706,0.0573,0.0256,9.7607,-0.3369,-0.2038,0.7863
7630,974,825,33.709,25.715,-0.0694,0.054,9.8233,0.2558,-0.3496,0.7528
7635,968,825,33.641,25.709,-0.0117,-0.0445,9.767,-0.437,-0.1598,0.4578
7640,955,826,33.702,25.7,0.0665,-0.0427,9.8609,-0.2419,0.8136,0.3684
7645,956,821,33.764,25.66,-0.0025,0.0318,9.7443,-0.6033,0.597,-0.3757
7650,935,823,33.65,25.777,-0.0496,0.0061,9.819,-0.0457,-0.3627,0.9173
7655,933,821,33.659,25.653,-0.0751,0.0579,9.7802,-0.4161,-0.214,-0.2052
7660,930,828,33.628,25.674,0.094,0.005,9.8452,-0.1027,-0.3293,0.8266
7665,913,820,33.645,25.723,0.0449,0.1182,9.8213,0.0835,-0.5152,0.3866
7670,910,820,33.715,25.72,0.0326,-0.0299,9.7769,-0.4533,-0.2666,0.1988
7675,897,824,33.689,25.714,0.0622,0.0098,9.8554,0.0107,-0.2974,0.1597
7680,878,813,33.724,25.756,-0.0277,-0.0191,9.7956,-0.0326,-0.9075,-0.0008
7685,879,818,33.677,25.722,0.0418,-0.0542,9.782,0.1451,-0.3138,0.9882
7690,878,816,33.715,25.601,-0.0868,-0.0243,9.8094,-0.054,0.5134,-0.018
7695,861,820,33.542,25.679,-0.0116,0.0268,9.7885,0.174,0.3137,-1.5219
7700,854,818,33.69,25.667,0.0003,-0.0227,9.8338,-0.1112,-0.306,0.0582
7705,852,820,33.647,25.672,-0.0385,0.0069,9.8276,0.1973,-0.2823,0.0613
7710,835,822,33.621,25.667,-0.02,0.0388,9.7797,0.391,-0.9172,0.0824
7715,830,822,33.789,25.633,0.0344,0.028,9.7572,-0.6632,-0.0791,0.2727
7720,817,811,33.645,25.655,0.0711,-0.024,9.7854,-0.2392,0.0185,-0.4426
7725,818,816,33.739,25.647,0.0015,-0.0182,9.7372,-0.6732,-0.1502,-0.5396
7730,803,815,33.759,25.678,0.0346,0.0397,9.8779,0.4472,-0.4505,0.0828
7735,808,814,33.641,25.718,-0.0139,-0.0129,9.8737,-0.1452,-0.1927,0.8412
7740,790,809,33.688,25.708,0.0367,0.0604,9.8006,-0.7224,0.4867,-0.6331
7745,779,814,33.612,25.709,-0.0258,-0.0706,9.8704,-0.4042,-0.6161,0.1143
7750,783,816,33.754,25.726,0.0361,-0.0221,9.8327,0.2143,-0.5886,0.2652
7755,778,813,33.688,25.698,-0.0031,0.0484,9.8428,-0.094,0.1895,0.4193
7760,763,811,33.654,25.705,0.0066,0.0611,9.8362,-0.2161,0.1167,0.0928
7765,757,810,33.716,25.622,-0.0253,-0.0509,9.7614,-0.3849,0.5247,0.3393
7770,763,811,33.721,25.719,-0.0333,-0.0256,9.7747,0.4041,0.0111,0.2031
7775,758,812,33.669,25.738,0.0609,-0.0309,9.779,-0.8784,0.1352,-0.5831
7780,758,821,33.667,25.829,0.0197,-0.0198,9.8427,0.2735,-0.0131,-0.6492
7785,746,817,33.583,25.773,-0.0286,-0.0794,9.8281,0.432,0.5095,0.4156
7790,753,808,33.639,25.698,-0.0271,0.0225,9.8351,-0.5245,-0.1514,0.0994
7795,743,809,33.654,25.613,-0.0459,0.0477,9.8299,-0.1628,0.1356,0.304
7800,754,813,33.68,25.695,-0.0177,0.1234,9.824,-0.4408,0.3986,-1.2771
7805,746,805,33.588,25.707,0.0717,-0.0425,9.8231,0.1859,0.1617,0.0164
7810,744,805,33.697,25.689,-0.0022,0.0386,9.7694,-0.1049,-1.4521,0.0443
7815,749,806,33.675,25.77,0.09,0.001,9.8753,-0.4633,0.7644,-0.9529
7820,751,812,33.649,25.689,-0.01,0.0935,9.8554,0.7644,-0.5196,-0.3097
7825,756,808,33.659,25.653,-0.0346,-0.0681,9.8432,-0.699,0.5199,-0.1065
7830,763,812,33.656,25.665,-0.0759,0.0124,9.7832,-0.156,0.2956,1.2905
7835,764,807,33.672,25.754,-0.0333,0.0485,9.7754,-0.403,-0.0265,-0.3368
7840,763,809,33.66,25.713,0.0576,0.0361,9.7629,0.1015,-0.3369,0.2287
7845,775,803,33.667,25.704,0.0189,-0.0302,9.8296,-0.6191,0.7445,-0.4538
7850,788,799,33.576,25.676,-0.022,-0.0185,9.7944,0.0875,0.4448,-0.0783
7855,788,802,33.672,25.618,0.0202,0.0172,9.689,-0.2367,-0.3156,0.1744
7860,794,798,33.648,25.653,0.0164,-0.0146,9.8375,-0.1264,-0.3486,0.1162
7865,798,799,33.654,25.713,0.0185,-0.0127,9.8221,-0.3933,-0.0648,0.4368
7870,812,796,33.595,25.759,-0.0315,0.0179,9.7832,0.0612,0.2947,1.2896
7875,820,792,33.625,25.773,-0.0305,-0.0047,9.8592,0.3885,-0.2772,-0.0021
7880,827,795,33.624,25.64,-0.0644,0.0305,9.725,0.2501,-0.2133,0.1704
7885,834,794,33.793,25.798,-0.0147,-0.1114,9.8603,-0.7142,-0.1939,-0.5621
7890,853,797,33.663,25.677,-0.0236,-0.0057,9.7339,-0.0862,0.4265,1.112
7895,862,791,33.691,25.706,0.0252,0.0127,9.8283,-0.4071,-0.3535,-0.3711
7900,868,789,33.569,25.685,-0.0769,0.0538,9.8128,0.3154,-0.2713,-0.1787
7905,881,786,33.768,25.777,0.0643,0.0042,9.8367,-0.8145,-0.1718,0.1768
7910,898,789,33.658,25.696,-0.0363,0.078,9.8837,0.2176,-0.1884,0.1636
7915,903,786,33.682,25.8,-0.0448,0.0321,9.7986,0.8777,0.1334,-0.5133
7920,921,784,33.671,25.815,0.0455,-0.0017,9.7587,-0.03,0.0947,-0.6345
7925,928,783,33.704,25.747,-0.043,-0.0305,9.8144,-0.4543,0.7209,0.5175
7930,943,779,33.669,25.675,-0.0699,-0.0002,9.71,0.6242,-0.0128,0.1659
7935,948,776,33.777,25.693,-0.0883,-0.016,9.7993,-0.1996,-0.4916,-0.3017
7940,962,780,33.646,25.654,0.0602,-0.0113,9.7278,0.1906,0.0078,-0.9396
7945,980,783,33.642,25.722,-0.0353,0.0116,9.8515,-0.2526,1.2883,0.4788
7950,988,774,33.693,25.667,0.0532,-0.0149,9.784,0.5512,0.063,1.4324
7955,1001,779,33.675,25.757,-0.0105,-0.0203,9.8004,0.1328,0.1033,0.4741
7960,1009,769,33.733,25.711,0.0853,-0.0061,9.8361,0.3584,0.2376,-0.052
7965,1029,769,33.743,25.693,-0.0748,-0.0554,9.8186,-0.7851,0.4023,1.28
7970,1034,768,33.62,25.772,0.0067,0.0895,9.914,-0.317,-0.2136,0.2632
7975,1046,768,33.708,25.768,-0.0293,0.0317,9.8097,-0.3487,0.3192,-0.6524
7980,1061,767,33.653,25.72,-0.0391,0.0118,9.7177,0.3575,-0.3888,-0.6156
7985,1073,765,33.654,25.749,0.0481,-0.0151,9.8152,-0.6262,0.2349,-0.8324
7990,1077,764,33.696,25.727,0.0202,0.1199,9.8374,0.7963,0.5875,-0.241
7995,1084,762,33.607,25.715,-0.086,0.0135,9.8088,-0.0564,0.1462,0.7053
8000,1098,766,33.615,25.69,0.0607,0.053,9.6837,-0.4514,0.4051,0.1819
8005,1110,764,33.731,25.783,0.0418,-0.0582,9.8855,-0.9252,0.3291,-0.0314
8010,1105,757,33.681,25.69,-0.039,-0.0797,9.728,0.0228,-0.9643,0.1027
8015,1124,762,33.753,25.701,0.03,-0.037,9.7227,0.3132,0.2791,-0.1011
8020,1128,758,33.681,25.696,-0.0921,-0.0846,9.7923,0.4473,0.95,0.4223
8025,1138,761,33.658,25.78,0.0552,-0.0258,9.8591,-0.1817,-0.8211,-0.5261
8029,1155,754,33.695,25.705,-0.0523,0.0245,9.7748,0.2427,0.1517,-0.0142
8035,1152,753,33.723,25.642,-0.0489,-0.1048,9.7818,0.1855,0.7362,-0.2892
8039,1154,757,33.656,25.749,0.0017,0.0201,9.8465,-0.4967,-0.4379,0.2591
8045,1164,757,33.697,25.72,-0.0118,-0.0408,9.7259,0.1214,0.2353,0.1982
8050,1160,759,33.697,25.759,-0.1033,0.0016,9.7869,0.0445,-0.8733,-0.2976
8055,1173,757,33.712,25.702,-0.0863,-0.0066,9.8516,0.0491,-0.5203,0.4149
8060,1173,766,33.661,25.626,-0.0453,-0.0187,9.8007,-0.0841,-0.8254,-0.1601
8064,1177,760,33.786,25.774,0.0564,-0.0772,9.8853,0.7695,0.4647,-0.0333
8070,1185,756,33.69,25.731,0.0323,0.0618,9.8922,0.37,-0.6573,0.777
8074,1180,755,33.7,25.659,-0.0093,-0.025,9.7704,-0.4465,-0.3301,-0.7156
8080,1190,756,33.657,25.748,0.0039,0.0219,9.864,0.4145,-0.1458,-0.9838
8085,1186,762,33.627,25.714,-0.0036,0.0666,9.8325,-0.1343,-0.5099,0.0103
8090,1188,761,33.676,25.678,-0.0064,-0.034,9.9243,0.1827,0.5387,-0.3946
8095,1186,763,33.646,25.681,0.0536,0.0114,9.8011,0.2948,-0.9773,0.4158
8100,1192,762,33.621,25.697,-0.0132,0.0109,9.769,-0.1684,-0.4413,-0.0084
8105,1193,769,33.679,25.729,0.0231,-0.0288,9.785,-0.5557,-0.9231,-0.6178
8109,1188,765,33.668,25.795,-0.0709,-0.0206,9.7648,0.0755,-0.2098,-0.139
8115,1179,763,33.675,25.682,0.0252,-0.0194,9.7861,-0.1937,0.1856,-0.0032
8119,1185,772,33.698,25.714,-0.0318,-0.034,9.8036,0.3507,-0.4243,-0.1834
8125,1185,763,33.646,25.736,0.0392,0.0213,9.7969,-0.2693,-0.4941,-0.0612
8130,1182,773,33.639,25.621,0.043,-0.0891,9.7545,-0.4353,0.1741,0.5659
8135,1174,774,33.699,25.639,-0.0847,0.006,9.7725,-0.0204,1.2194,-0.3204
8140,1164,774,33.671,25.775,-0.0564,0.0293,9.744,0.3938,0.1014,0.6033
8145,1166,776,33.549,25.746,-0.0382,-0.0175,9.7972,0.1834,-0.4729,-0.7555
8150,1158,775,33.72,25.645,-0.0026,-0.0537,9.8129,-0.2823,0.2947,0.9143
8154,1165,779,33.66,25.733,-0.0164,0.0941,9.778,-0.6232,-0.4799,-0.3835
8160,1157,776,33.653,25.657,-0.0234,0.015,9.7664,-0.1107,-0.0214,0.653
8164,1163,784,33.632,25.76,0.0384,0.0328,9.8398,-0.6057,0.0224,0.1011
8170,1158,783,33.634,25.689,-0.0258,0.0553,9.87,0.3672,0.4474,0.2588
8175,1148,789,33.642,25.687,0.0109,0.0109,9.9227,-0.3293,0.2408,0.3221
8180,1160,787,33.475,25.776,0.0309,0.0713,9.7602,-0.2402,-0.6945,0.1692
8185,1147,797,33.648,25.723,0.0357,0.0226,9.8355,0.6944,-0.2017,-0.8227
8189,1140,797,33.7,25.715,-0.0752,-0.0756,9.7641,-0.1879,-0.1056,0.3262
8195,1143,790,33.703,25.701,0.0607,-0.0282,9.7725,0.6262,0.2904,0.1398
8200,1141,792,33.612,25.707,0.0477,0.0381,9.8604,-0.4522,0.2661,-0.0266
8205,1139,793,33.623,25.664,0.0182,-0.023,9.7682,-0.7074,-0.2868,0.106
8210,1125,803,33.662,25.775,0.0457,0.0343,9.8429,-0.0222,0.3972,0.1566
8215,1133,808,33.553,25.792,-0.0205,0.0368,9.8165,0.8644,-0.7025,0.3182
8220,1130,806,33.704,25.743,0.0233,-0.0697,9.7558,-0.2752,-0.4617,-0.515
8225,1122,804,33.675,25.688,-0.0193,0.0377,9.7513,0.1139,0.4619,-0.0203
8230,1124,808,33.713,25.76,0.0224,-0.0043,9.7956,0.6502,0.2773,-0.3415
8235,1115,809,33.698,25.659,-0.0018,0.0237,9.8834,-0.6443,-0.5912,0.5715
8240,1112,816,33.657,25.677,-0.0405,-0.1023,9.8638,-0.8902,0.2778,0.8282
8245,1118,816,33.582,25.751,-0.0445,0.0519,9.8612,-0.7087,-0.1285,-0.2967
8250,1106,817,33.685,25.734,-0.0239,0.0541,9.8244,0.4829,-0.1364,0.876
8255,1102,811,33.684,25.671,-0.008,0.0354,9.6326,0.6637,1.3789,-0.3307
8260,1109,811,33.689,25.793,0.0779,0.0459,9.865,-0.2196,-0.2882,-0.4096
8265,1100,819,33.691,25.718,-0.0661,0.0545,9.892,0.2499,-0.8332,0.0515
8270,1099,816,33.682,25.69,-0.0054,0.051,9.8755,-0.9539,0.0315,0.7227
8275,1086,824,33.642,25.729,0.0438,-0.0324,9.91,0.3326,0.2068,-0.1485
8280,1094,825,33.703,25.69,0.0001,0.0302,9.8708,-0.2399,0.1101,0.2486
8285,1090,829,33.693,25.685,-0.005,0.0867,9.8044,0.5405,-0.2637,0.1036
8290,1097,827,33.628,25.708,0.0075,-0.0688,9.8406,-0.176,-0.2836,-0.0963
8295,1093,822,33.642,25.737,0.0358,0.0344,9.7928,0.8952,1.1897,0.7256
8300,1087,825,33.708,25.761,0.0774,0.056,9.7872,0.0623,0.1848,0.8544
8305,1086,825,33.654,25.738,-0.0237,-0.0589,9.7732,0.2198,-0.1991,-0.1877
8310,1090,829,33.559,25.701,-0.014,0.0809,9.8351,-0.4909,0.192,0.1495
8315,1084,826,33.734,25.666,-0.0016,0.083,9.7149,-0.6928,1.0356,-0.6382
8320,1076,831,33.74,25.712,-0.0551,0.0076,9.7723,-0.3764,-0.0826,-0.1477
8325,1071,833,33.585,25.665,-0.0113,0.0233,9.8334,0.1187,0.1196,-0.4898
8330,1064,826,33.58,25.822,-0.1157,-0.0812,9.7413,0.3867,-0.4657,-0.2552
8335,1069,830,33.725,25.755,-0.0021,0.0765,9.7549,0.6322,0.395,0.6005
8340,1065,829,33.638,25.73,0.0415,-0.0601,9.7389,0.3029,0.173,0.3376
8345,1052,827,33.672,25.667,0.0366,0.061,9.8126,-0.3277,0.2452,0.4305
8350,1063,828,33.651,25.719,0.0226,0.1475,9.8192,-0.7694,0.6224,0.4758
8355,1068,831,33.657,25.758,-0.0231,-0.0824,9.8602,-0.3164,-0.2003,-0.9545
8360,1052,834,33.771,25.667,-0.0456,0.0082,9.9338,-0.368,-0.2297,0.8099
8365,1046,826,33.62,25.721,0.1072,0.08,9.8135,0.3127,-0.0692,-0.2311
8370,1038,834,33.652,25.734,0.055,0.0186,9.7996,-1.1201,0.5606,0.0987
8375,1048,828,33.612,25.725,0.0764,-0.0289,9.8836,-0.5714,0.2555,-0.7036
8380,1034,831,33.563,25.783,0.0234,0.0672,9.8223,0.0933,1.0939,0.5009
8385,1023,833,33.644,25.733,0.1595,-0.0982,9.8607,0.2575,-1.1694,2.1137
8390,1023,836,33.726,25.679,-0.006,0.0193,9.8194,0.2597,0.9123,-0.5064
8395,1011,823,33.633,25.681,-0.1025,-0.0102,9.786,-0.2517,0.4211,-0.4526
8400,1011,827,33.639,25.732,-0.1382,0.1054,9.8523,-0.4177,-0.166,-0.1532
8405,1000,829,33.735,25.692,0.0044,-0.0141,9.8474,-0.8095,-0.5631,0.4444
8410,993,823,33.665,25.709,-0.0196,-0.0052,9.7524,0.0768,-0.8302,-0.461
8415,998,826,33.705,25.74,-0.0666,-0.0427,9.7596,-0.3504,-0.0065,-0.503
8420,983,822,33.629,25.753,-0.0114,-0.0066,9.7605,-0.3389,-0.3965,0.4328
8425,993,825,33.695,25.746,0.0579,0.0624,9.8572,-0.186,0.6611,-0.2494
8430,978,822,33.548,25.771,0.0354,-0.0194,9.8172,0.2984,0.2511,0.1292
