timestamp_ms,ir_finger,ir_toe,temp_finger,temp_toe,ax,ay,az,gx,gy,gz
0,1044,731,34.031,30.414,0.0605,0.0255,9.8257,-0.0,-0.6573,0.4371
5,1064,718,34.161,30.433,0.013,0.0999,9.8739,0.4159,0.6468,0.3178
10,1066,715,34.112,30.372,0.0671,0.0742,9.8669,0.0382,0.347,0.0883
15,1079,718,34.087,30.387,-0.0006,-0.0317,9.8094,0.2499,0.2247,-0.35
20,1090,721,34.135,30.45,-0.0024,0.0534,9.8354,-0.3947,0.2988,-0.1188
25,1099,714,34.008,30.449,0.0548,0.0149,9.7953,0.1217,-0.0784,-0.1691
30,1113,719,34.117,30.35,-0.0166,-0.0753,9.7936,0.2558,0.4402,-0.1113
35,1113,710,34.111,30.401,-0.0394,0.0163,9.8508,-0.1076,0.1362,1.0009
40,1132,717,34.067,30.344,0.0338,-0.0142,9.8587,-0.1796,0.1161,-0.2575
45,1135,710,34.144,30.401,-0.0373,-0.012,9.879,0.4921,-0.526,-0.1703
50,1145,717,34.138,30.383,-0.0083,0.0263,9.7796,-0.6192,-0.4446,-0.0579
55,1158,708,34.097,30.528,-0.0443,-0.0259,9.8231,-0.0866,0.1714,-0.3906
60,1157,713,34.051,30.453,0.0014,-0.0413,9.8689,0.4458,0.6574,-0.0297
65,1156,715,34.121,30.509,-0.0119,-0.0792,9.6453,-0.1021,-0.7233,0.0213
70,1172,715,34.008,30.405,0.0057,0.0145,9.8639,0.6319,-0.9749,0.596
75,1169,718,33.989,30.406,-0.005,-0.0249,9.8409,-0.1549,0.0678,0.5123
80,1169,719,33.988,30.453,0.0604,0.0017,9.7192,0.1028,0.6899,-0.0123
85,1184,719,34.156,30.427,0.0015,-0.0632,9.8512,0.075,-0.5818,-0.7009
90,1186,718,34.002,30.433,0.0331,-0.0549,9.7972,0.1884,-0.8714,-0.388
95,1189,724,34.072,30.497,-0.0671,-0.0167,9.8326,0.0726,0.5247,0.0378
100,1184,732,34.221,30.328,0.0629,0.078,9.8179,-0.3458,-0.2022,0.573
105,1186,734,34.07,30.48,-0.0803,-0.0914,9.7646,-0.0022,-0.2584,-0.0249
110,1181,736,34.109,30.394,0.0123,0.0942,9.7283,-0.3067,0.407,0.7101
115,1183,734,34.074,30.511,-0.085,-0.0241,9.8568,-0.634,-0.0981,-0.3321
120,1195,745,34.033,30.349,-0.0465,0.0282,9.8316,0.4308,0.8457,-0.6091
125,1189,744,34.172,30.396,-0.0497,-0.0534,9.7683,0.1801,0.0735,-0.4689
130,1184,758,34.092,30.382,0.0388,-0.0272,9.8844,-0.631,-0.0046,-0.0922
135,1192,751,34.129,30.408,-0.0201,-0.0382,9.7418,0.4427,0.3015,-0.7163
140,1173,760,34.08,30.451,0.0694,-0.0421,9.7329,-0.8595,0.0413,-0.2227
145,1180,763,34.229,30.361,0.086,0.083,9.8156,0.1546,-0.0307,-0.3304
150,1162,770,34.144,30.337,-0.003,0.0893,9.8068,0.2675,0.2672,0.6688
155,1178,772,34.155,30.434,0.031,-0.0237,9.8168,-0.0835,0.4191,0.6099
160,1171,777,34.153,30.394,-0.0473,-0.0031,9.8208,-0.1023,-0.369,0.5786
165,1162,781,34.136,30.352,-0.0387,0.0083,9.7928,-0.1984,-0.2892,0.199
170,1159,787,33.976,30.456,0.0309,-0.0416,9.7987,-0.1741,-0.4963,-0.1254
175,1162,797,34.064,30.427,-0.0556,0.0652,9.8493,-0.2078,-0.1918,-0.9554
180,1157,799,34.13,30.361,-0.0897,-0.0547,9.7895,0.9657,0.5263,0.1644
185,1146,800,34.206,30.451,-0.0745,0.104,9.792,-1.3786,0.2139,-0.4062
190,1150,803,34.032,30.451,0.0214,-0.051,9.8368,-0.8441,0.2566,0.2633
195,1150,809,34.157,30.492,-0.0867,0.0545,9.8147,-0.1942,-0.1934,0.7724
200,1136,817,34.076,30.444,-0.0172,0.0407,9.8701,-0.0387,0.5827,-0.7837
205,1137,815,34.145,30.446,0.0788,-0.0195,9.8036,0.6285,-0.7682,-0.087
210,1125,822,34.158,30.379,-0.0467,0.0009,9.839,-0.5363,-0.2293,-0.0877
215,1131,828,34.091,30.393,-0.0248,-0.0895,9.7867,0.2933,-0.0673,0.5501
220,1122,834,34.054,30.438,-0.0094,-0.0696,9.7653,0.7958,-0.1631,-0.5272
225,1126,839,34.099,30.426,0.0481,0.0422,9.7848,-0.7051,0.862,-0.0049
230,1117,835,34.095,30.474,-0.0516,0.1014,9.8291,-0.1672,-0.5702,0.0965
235,1120,842,34.099,30.339,-0.1551,0.0066,9.9293,-0.1457,0.8968,-0.1666
240,1108,844,34.112,30.368,-0.0829,-0.0051,9.6743,0.5645,-0.0528,-0.0565
245,1106,848,34.078,30.371,0.0318,-0.0199,9.8019,0.6332,0.9728,0.8378
250,1109,850,34.12,30.407,0.0489,0.0475,9.8505,-0.2516,0.0111,-0.9333
255,1106,857,34.101,30.351,-0.0699,0.0751,9.8363,-0.1583,-0.0049,-0.5546
260,1097,857,34.106,30.336,0.0063,0.0298,9.7688,-0.417,0.9703,-0.3232
265,1099,858,34.064,30.472,-0.0265,-0.1392,9.9027,-0.7943,0.1554,0.0245
270,1095,851,34.171,30.434,0.0255,0.027,9.7406,-0.4467,-0.7304,0.0148
275,1097,863,34.135,30.419,-0.0227,0.0684,9.7446,0.3631,0.0914,0.4001
280,1092,865,34.124,30.404,0.0082,-0.0635,9.8115,-0.131,-0.1059,0.1823
285,1099,866,34.084,30.36,-0.0226,0.0137,9.7781,0.6144,0.5636,-0.3712
290,1082,860,34.152,30.416,0.0137,-0.0281,9.8497,0.4745,-0.4331,0.6902
295,1077,864,34.093,30.437,-0.0077,-0.033,9.8043,-0.7938,0.4325,-0.0491
300,1072,863,34.154,30.475,0.0864,-0.047,9.9022,-0.0555,-0.2107,0.3947
305,1087,867,34.085,30.428,-0.0475,0.0017,9.7624,0.7281,0.0865,-0.647
310,1069,866,34.101,30.306,-0.0063,0.0173,9.8212,0.6994,-0.7289,-0.1799
315,1081,861,34.086,30.47,-0.0786,-0.0677,9.7933,0.0232,-0.3466,0.5538
320,1074,866,34.108,30.334,0.0041,0.038,9.8874,-0.4749,-0.8081,-0.6001
325,1065,862,34.129,30.387,-0.0735,0.0584,9.7956,0.7138,0.7256,0.1375
330,1057,860,34.034,30.42,-0.0241,-0.013,9.8388,-0.1684,-0.1006,-0.0096
335,1050,863,34.13,30.419,-0.0926,-0.0001,9.8315,-0.6642,0.3155,-0.1248
340,1059,863,34.254,30.405,0.0136,0.0264,9.8848,0.9404,-0.0171,0.2306
345,1046,861,34.147,30.462,0.0294,0.0643,9.8717,0.8042,-0.1528,-0.6184
350,1045,862,34.114,30.469,-0.0264,0.0186,9.8451,-0.1601,-0.3686,-0.2284
355,1049,858,34.128,30.386,-0.0028,-0.0426,9.8229,-0.3769,0.4311,0.3123
360,1038,860,34.092,30.404,0.0522,-0.0472,9.822,-0.3413,0.3285,0.7204
365,1027,862,34.084,30.438,-0.0356,0.0452,9.7924,0.4957,-0.0671,0.0768
370,1019,856,34.106,30.422,-0.0591,-0.0321,9.747,-0.6623,0.5001,-0.5911
375,1015,857,34.149,30.434,-0.0259,0.068,9.7678,0.6973,0.2432,0.9702
380,1009,855,34.089,30.405,0.0081,0.0015,9.8851,0.8504,0.4016,0.0601
385,1002,853,34.134,30.423,0.0984,0.0638,9.7548,-0.0479,-0.3448,0.2886
390,999,850,34.117,30.285,-0.0778,-0.0623,9.7912,0.2714,-0.9603,-0.4466
395,985,847,34.057,30.518,0.07,-0.0153,9.8164,-0.0498,-0.134,0.4083
400,978,849,33.968,30.394,0.0053,0.0612,9.7964,-0.9901,0.0906,0.9996
405,967,847,34.094,30.511,0.0384,-0.0244,9.8809,0.0465,-0.1646,1.1118
410,958,842,34.107,30.383,-0.0188,0.0829,9.8557,-0.1148,-0.6569,-0.7598
415,958,840,34.206,30.399,0.0135,0.018,9.848,-0.6834,-0.0807,-0.1871
420,936,843,33.999,30.447,-0.0532,0.0268,9.856,0.1234,0.5035,0.6978
425,937,844,34.08,30.407,-0.0471,-0.139,9.8722,0.6647,-0.416,0.5589
430,925,844,34.065,30.319,-0.0832,0.0651,9.8015,-0.2783,-0.2733,-0.2523
435,904,837,34.06,30.456,-0.0811,0.0733,9.8207,0.2989,-0.0091,0.5596
440,903,841,34.058,30.346,0.1368,0.0904,9.7038,0.5956,0.6161,0.8975
445,893,837,34.09,30.401,-0.0763,-0.0058,9.7591,0.3717,0.0527,-0.7149
450,879,841,34.145,30.481,0.0184,0.02,9.7992,1.334,0.5293,-0.0814
455,876,838,34.059,30.565,-0.0342,-0.0476,9.7719,-0.2032,0.9813,-0.3658
460,865,833,34.11,30.466,0.0096,0.0262,9.8501,-0.2811,-0.1886,-0.4385
465,855,835,34.165,30.447,0.0314,-0.0458,9.8472,1.1063,0.039,0.3651
470,843,834,34.192,30.503,0.0545,-0.0214,9.9029,0.0318,0.2265,0.1935
475,834,837,34.093,30.419,-0.0579,0.0532,9.7715,-0.1214,0.4755,-0.9571
480,825,827,34.145,30.369,0.0044,-0.0285,9.7532,0.2544,-0.1377,0.2032
485,819,830,34.069,30.338,0.0279,0.0491,9.7644,-0.2507,0.5138,-0.358
490,805,827,34.094,30.438,0.0037,-0.0207,9.8232,-0.107,-0.4774,0.456
495,801,832,34.088,30.451,-0.0044,-0.0069,9.7589,-0.228,0.1385,-0.3987
500,797,822,34.162,30.411,0.0133,-0.0209,9.7486,-0.5861,0.3714,0.6371
505,780,824,34.057,30.41,0.0931,0.0168,9.8579,0.0273,-0.5293,1.0806
510,763,826,34.103,30.366,-0.0047,0.0228,9.8221,-1.135,0.615,1.2685
515,771,826,34.127,30.475,-0.0502,0.0329,9.7455,0.2775,-0.4403,0.1424
520,773,822,34.082,30.503,0.0641,-0.0553,9.8553,0.1116,-0.4,-0.6463
525,761,825,34.151,30.401,0.0129,-0.0289,9.7419,1.1004,0.2842,0.6375
530,758,820,34.134,30.388,-0.0014,0.0786,9.9244,-0.4872,0.2002,0.3305
535,757,820,34.116,30.409,-0.0292,0.0715,9.845,0.9225,0.1225,-0.8247
540,744,824,34.09,30.318,0.0629,0.0979,9.7787,-0.0911,0.2016,0.047
545,749,820,34.057,30.461,0.102,0.0525,9.793,-0.1508,0.4805,1.0138
550,746,817,34.034,30.457,0.0203,0.0536,9.8665,0.5034,-1.1437,-0.7458
555,745,814,34.049,30.341,0.0001,0.0392,9.7371,-0.7854,-0.3533,-0.4669
560,749,810,34.093,30.382,0.0998,-0.0443,9.7538,-0.8372,0.7298,-0.093
565,754,806,34.048,30.389,0.0526,-0.0497,9.7934,0.8246,-0.6881,0.2482
570,752,809,34.111,30.455,-0.0893,-0.0097,9.8869,0.2564,-0.4035,-0.2704
575,758,807,34.207,30.457,0.0206,-0.0566,9.8242,0.548,0.3007,-0.3421
580,758,803,34.077,30.451,0.0099,-0.0862,9.7696,-0.3599,0.1928,0.3936
585,761,796,34.167,30.525,-0.0981,-0.0436,9.8666,0.6978,-0.5774,0.6194
590,777,799,34.098,30.444,-0.0015,-0.0791,9.856,-0.1841,-0.342,-0.1459
595,771,795,34.081,30.497,0.0408,0.0033,9.8527,0.0394,0.382,-0.0023
600,780,791,34.134,30.373,0.0702,0.0136,9.8317,-0.0058,-0.8622,-0.5371
605,792,789,34.144,30.508,0.0079,0.0799,9.7918,0.5077,-0.0287,-0.7113
610,797,785,34.057,30.468,0.0039,0.0868,9.8275,-0.1999,0.1877,-0.6196
615,811,784,34.068,30.493,-0.0532,-0.0527,9.8492,0.6834,-0.1049,-0.1424
620,816,779,34.067,30.461,-0.0495,0.0136,9.8402,0.2384,-0.1981,0.247
625,830,776,34.102,30.407,0.0381,-0.0638,9.8259,0.5435,-0.1063,-0.5541
630,837,775,34.119,30.457,-0.0252,-0.0447,9.7814,1.0226,-0.2074,0.4606
635,851,774,34.101,30.396,0.0568,0.0186,9.7617,-0.1113,0.0021,0.4164
640,864,766,34.203,30.46,0.0892,-0.0586,9.8392,1.0484,-0.1778,-0.8581
645,881,762,34.108,30.368,-0.0143,0.0115,9.7361,0.2061,0.9373,-0.5032
650,885,759,34.167,30.427,-0.1222,0.0386,9.822,-0.1126,-0.2644,0.1385
655,910,757,34.063,30.34,-0.0732,0.0139,9.7354,0.0586,0.5185,0.861
660,914,749,34.145,30.455,0.0325,0.0585,9.7231,-0.7555,0.4336,-0.0565
665,928,746,34.047,30.455,-0.0389,0.0321,9.7951,-0.0599,0.7969,0.1804
670,950,748,34.08,30.46,0.073,0.076,9.8001,-0.3473,-0.2523,0.5277
675,953,742,34.18,30.389,-0.0577,-0.0069,9.7743,1.1304,-0.6527,-0.2327
680,973,737,34.131,30.353,-0.0806,0.0087,9.8477,0.4639,0.8123,0.4084
685,974,734,34.172,30.393,0.1238,0.0164,9.766,-0.1464,0.1154,0.2556
690,1001,737,34.128,30.428,0.0306,-0.0873,9.8393,0.6536,-0.4034,0.203
695,1017,734,34.151,30.421,0.0454,-0.0337,9.9343,0.1663,-0.9759,-0.3182
700,1032,729,34.159,30.53,0.0495,0.0591,9.8624,-0.0616,0.0945,-0.4896
705,1033,722,34.078,30.433,0.0699,-0.0549,9.7866,0.5626,-0.1776,-0.6109
710,1048,722,34.08,30.428,0.0277,-0.0163,9.8451,-1.0292,-0.7269,-0.026
715,1058,719,34.067,30.468,-0.0147,0.0463,9.8274,-0.4822,-0.5384,0.9188
720,1076,723,34.047,30.361,-0.0575,-0.005,9.8652,0.6962,-0.0015,0.133
725,1083,719,34.165,30.44,-0.0359,-0.0101,9.7797,-0.7534,-0.0535,0.4424
730,1093,713,34.076,30.462,-0.0516,-0.0518,9.7937,0.4477,0.6669,-0.8188
735,1112,715,34.081,30.416,-0.003,0.0228,9.8457,0.0927,0.2899,0.4936
740,1113,717,34.115,30.446,0.026,0.0005,9.7951,0.1518,-0.318,0.325
745,1116,715,34.101,30.487,-0.1062,0.0134,9.7352,-0.4042,-0.2814,0.5064
750,1134,710,34.126,30.421,-0.0043,0.0735,9.8683,0.385,0.5338,-0.0714
755,1143,709,34.07,30.392,0.0207,0.0068,9.7794,-0.01,0.2685,0.1015
760,1147,711,34.176,30.423,-0.1439,-0.0249,9.8271,0.1801,-0.664,0.0591
765,1155,711,34.187,30.378,-0.0948,-0.0265,9.7907,-0.393,-0.0887,0.0935
770,1155,711,34.112,30.351,0.0879,-0.0917,9.7792,1.2321,-0.3417,-0.2937
775,1163,712,34.083,30.442,0.0068,-0.0108,9.8376,0.5472,0.0891,-0.0788
780,1177,719,34.201,30.468,0.0282,-0.0462,9.7484,-0.4851,-0.9239,-0.8441
785,1180,712,34.069,30.501,0.0439,0.0184,9.8341,-0.29,0.0318,0.3124
790,1167,720,34.156,30.356,0.0072,0.0036,9.72,0.1917,0.2972,-0.0845
795,1187,721,34.112,30.424,-0.071,0.0501,9.8814,-0.2704,0.5621,-0.3271
800,1180,729,34.069,30.439,0.0133,0.0243,9.8684,-0.4797,0.576,-1.0102
805,1189,726,34.112,30.374,-0.0078,0.0504,9.8636,0.1381,0.4963,0.1508
810,1182,729,34.056,30.442,0.0289,0.0492,9.9214,-0.3002,0.1951,-0.9817
815,1193,734,34.214,30.428,0.0601,-0.0091,9.7619,0.4265,0.0943,-0.7031
820,1192,740,34.081,30.366,-0.0124,-0.0276,9.8199,0.0165,0.7963,0.0742
825,1190,739,34.133,30.426,0.0525,0.0467,9.9054,-0.2653,-0.3189,-0.0316
830,1188,745,34.171,30.463,-0.0477,-0.0217,9.7257,-0.004,0.2455,0.1524
835,1185,748,34.092,30.522,-0.0202,0.0258,9.7101,0.6544,0.974,0.6181
840,1181,749,34.077,30.398,0.0689,0.0195,9.8209,0.5369,0.8798,-0.5972
845,1179,761,34.156,30.493,-0.0606,0.1272,9.8098,0.7705,-0.1704,0.9643
850,1173,759,34.082,30.417,0.0379,0.0384,9.8264,-0.7919,-0.2877,0.2059
855,1176,765,34.086,30.529,0.0296,-0.0202,9.791,0.1486,1.2047,0.2151
860,1169,772,34.148,30.4,0.0053,0.0364,9.7814,-0.6649,-0.025,0.0853
865,1170,776,34.083,30.412,-0.0405,-0.0888,9.7811,-0.8633,-0.2232,-0.6786
870,1164,783,34.15,30.47,0.0301,-0.0174,9.8572,0.1968,-0.1625,0.7991
875,1162,790,34.018,30.38,-0.0146,-0.0155,9.8026,0.203,1.4371,-0.3536
880,1160,790,34.149,30.497,0.0065,0.1036,9.8028,-0.2508,0.1008,-0.279
885,1153,790,34.161,30.377,0.0735,-0.0276,9.8394,-0.054,0.5392,1.3747
890,1150,796,34.048,30.395,-0.0168,-0.0528,9.759,0.3662,-0.6921,-0.6445
895,1147,807,34.041,30.482,-0.0776,-0.034,9.7666,-0.1258,-0.1722,0.5563
900,1132,807,34.097,30.397,0.0035,-0.0478,9.8162,0.5578,-0.7212,-0.0851
905,1146,814,34.154,30.505,-0.0787,-0.0162,9.8432,0.1003,0.0775,0.1286
910,1136,817,34.064,30.385,-0.0276,0.0493,9.7896,0.1182,1.1389,-0.0569
915,1126,821,34.066,30.373,0.0192,-0.0706,9.837,-0.166,0.4686,-0.572
920,1128,827,34.112,30.417,-0.0756,0.0072,9.8079,0.0355,-0.4682,0.5717
925,1125,824,34.038,30.577,0.1089,-0.0679,9.7388,-0.1947,-0.0473,0.0811
930,1122,832,34.237,30.401,0.0141,-0.0044,9.8038,0.2126,0.0811,0.221
935,1126,835,34.145,30.493,-0.0483,-0.0472,9.8699,0.1309,-0.1064,0.3845
940,1112,840,34.05,30.428,-0.0022,-0.0708,9.8363,0.0372,-0.1724,1.1408
945,1124,844,34.119,30.43,0.0009,0.0032,9.8086,0.8795,-0.3288,0.3476
950,1106,848,34.106,30.435,0.176,-0.0331,9.8519,-0.6341,-0.5017,0.2422
955,1102,849,34.097,30.491,0.0166,-0.0346,9.8275,-0.143,-0.496,-0.364
960,1102,855,34.096,30.455,0.0266,-0.0378,9.9214,-0.1992,0.3122,-0.1813
965,1101,852,34.149,30.469,0.0542,-0.07,9.846,0.1656,0.0255,0.0296
970,1112,854,34.13,30.405,-0.0225,0.0328,9.7824,0.9164,0.08,-0.5609
975,1093,862,34.097,30.403,-0.0221,-0.0024,9.7417,-0.6337,-0.3847,-0.4705
980,1098,856,34.083,30.441,0.0154,-0.0289,9.7788,0.1701,0.1819,-1.0275
985,1088,865,34.059,30.408,0.0172,0.0646,9.7848,0.2255,-0.1392,-0.3047
990,1094,860,34.03,30.403,-0.0055,-0.0048,9.807,-0.5271,0.0112,0.0309
995,1089,865,34.093,30.373,-0.0133,0.0496,9.7452,-0.7221,-0.6145,-0.3602
1000,1094,862,34.043,30.371,-0.0735,-0.039,9.9037,-0.8212,-0.4357,0.0743
1004,1081,864,34.124,30.473,-0.0139,-0.0155,9.8074,-1.0911,-1.3882,0.1904
1010,1084,868,34.094,30.402,0.0665,-0.0289,9.7724,1.0843,-0.4854,0.2825
1014,1077,868,34.195,30.442,-0.0583,0.0058,9.8451,1.1003,-0.2756,0.3182
1020,1080,866,34.049,30.428,0.0524,-0.0615,9.8615,-0.0366,-1.003,-0.0974
1025,1065,859,34.144,30.469,-0.0082,-0.0157,9.7805,-0.7061,0.5049,0.3037
1030,1067,861,34.188,30.561,-0.002,0.1056,9.8549,0.1527,0.9631,0.4208
1035,1062,863,34.035,30.441,-0.0163,-0.0017,9.8281,-0.5101,0.1192,-0.6433
1040,1053,865,34.007,30.444,0.0723,-0.0281,9.7742,-0.8488,0.2074,-0.2264
1045,1058,869,34.124,30.52,0.0516,-0.0073,9.8348,0.3,0.0051,-0.1532
1050,1057,870,34.111,30.481,0.045,-0.0071,9.7934,-0.0493,0.1523,-0.5072
1055,1047,864,34.169,30.471,0.0099,-0.104,9.793,-0.13,-0.0941,-0.0203
1060,1044,855,34.149,30.474,-0.0121,-0.0178,9.8268,-0.4222,-0.3097,-0.5741
1065,1036,860,34.068,30.468,0.0908,0.0504,9.7942,-0.1566,-0.101,0.5437
1070,1039,855,34.072,30.411,0.0351,-0.081,9.7733,-0.3009,-1.2249,-0.682
1075,1027,859,34.026,30.39,-0.039,0.0311,9.8381,0.1737,0.5943,-0.5018
1080,1024,856,34.123,30.352,0.0041,0.0611,9.8677,-0.0413,0.1831,-0.2417
1085,1011,850,34.061,30.391,0.0588,-0.0641,9.8332,-0.3618,-0.1333,-0.4404
1090,1001,850,34.114,30.382,-0.018,0.0202,9.7617,-0.0992,-0.6848,0.1289
1095,992,851,34.126,30.472,0.0811,-0.0338,9.8775,0.6968,-0.6645,0.9147
1100,985,852,34.055,30.4,-0.0538,0.0846,9.7417,-0.4144,0.2243,1.1077
1105,989,842,34.129,30.383,-0.0241,0.0183,9.7001,-0.3806,0.2347,0.1383
1110,979,848,34.076,30.378,-0.0065,-0.0007,9.819,-0.4296,-0.4459,-0.4979
1115,959,849,34.167,30.527,-0.002,0.0251,9.8166,-0.0651,-0.0565,-0.7663
1120,953,844,34.037,30.354,-0.0244,0.057,9.7976,-0.1379,0.1404,-0.0313
1125,945,845,34.09,30.474,-0.0022,-0.0178,9.8918,0.5894,-0.5597,-0.6238
1130,938,839,34.092,30.424,0.0183,0.0397,9.8234,0.5103,0.2221,-0.3889
1135,929,839,34.123,30.449,0.0763,-0.0128,9.8482,-0.2305,0.0923,0.4518
1140,919,844,34.157,30.449,0.0009,0.0263,9.8459,0.2914,-0.4234,-0.132
1145,903,839,34.16,30.405,0.0209,0.0082,9.8461,-0.3136,-0.4294,1.3011
1150,900,840,34.08,30.357,-0.0343,-0.0444,9.809,-0.2904,-0.438,-0.3792
1155,895,832,34.032,30.392,-0.0176,-0.0092,9.7791,-0.2307,0.3595,0.534
1160,883,838,34.102,30.432,-0.094,-0.018,9.7531,-0.5909,-0.3351,-0.5753
1165,862,834,34.063,30.428,-0.0014,-0.0465,9.9005,-0.3451,0.0477,0.1697
1170,851,831,34.168,30.369,-0.0078,0.0021,9.8324,-0.3226,0.4026,-0.0496
1175,854,835,34.029,30.374,-0.0257,0.0144,9.8907,-0.3561,0.0345,-0.4794
1180,839,833,34.057,30.477,-0.0398,0.0217,9.8598,-0.3993,-0.0809,-0.059
1185,825,829,34.146,30.475,-0.0356,0.0595,9.7971,-0.231,0.6881,-0.7214
1190,827,831,34.04,30.383,0.0117,-0.0072,9.8437,-0.6112,0.4695,0.3721
1195,812,837,34.172,30.423,-0.0254,-0.0599,9.8492,-0.0015,-0.8322,-0.681
1200,796,827,34.136,30.421,0.0772,0.1141,9.8435,0.1281,-0.4031,0.0654
1205,795,827,34.023,30.373,-0.0325,-0.0436,9.7923,-0.8438,-0.3395,-0.26
1210,784,833,34.096,30.479,-0.0177,-0.0117,9.805,0.5346,-0.1076,0.4685
1215,788,829,34.139,30.438,-0.0234,-0.0274,9.8065,0.582,-0.8474,-0.4191
1220,773,829,34.033,30.474,0.0299,-0.0677,9.8037,0.6765,-0.4312,0.0737
1225,769,825,34.062,30.403,0.0893,-0.0566,9.8311,0.366,-0.0197,0.2969
1230,760,820,34.105,30.329,-0.0461,0.0408,9.7745,0.5464,0.7861,1.294
1235,753,813,34.141,30.471,-0.0497,-0.0388,9.8026,-0.2948,-0.6972,-0.5155
1240,762,822,34.034,30.454,0.003,0.0248,9.7684,-0.6124,-0.9857,0.8277
1245,756,816,34.055,30.345,0.0227,0.1862,9.8373,-0.5469,-0.826,-0.7388
1250,749,815,34.072,30.416,0.0092,-0.0031,9.7751,0.0994,0.5146,-0.3552
1255,736,812,34.099,30.419,0.0008,0.0392,9.7983,0.0831,0.2784,0.5409
1260,747,816,34.152,30.419,-0.0011,0.051,9.8705,0.4191,-0.2269,0.3946
1265,758,811,34.117,30.44,-0.0014,-0.0123,9.8891,0.0853,0.7644,0.4344
1270,748,810,34.045,30.512,-0.0442,-0.0147,9.7487,-0.1525,0.7115,0.0339
1275,745,809,34.077,30.446,0.0003,0.0398,9.7648,0.3317,0.219,0.0888
1280,757,809,34.102,30.323,0.0797,-0.0495,9.7802,0.0183,1.22,0.2823
1285,750,806,34.073,30.505,-0.0682,0.0075,9.7602,0.148,-0.2527,0.7032
1290,766,800,34.123,30.437,-0.0017,-0.0527,9.9086,-0.3902,0.1474,-0.6865
1295,769,802,34.133,30.433,-0.0061,0.007,9.8676,-0.4463,-0.537,0.3716
1300,783,796,34.159,30.411,0.0697,0.015,9.846,0.2066,-0.0451,0.6117
1305,776,794,34.13,30.478,-0.0646,0.056,9.8594,-0.3349,-0.1946,0.8083
1310,796,789,34.178,30.367,0.0523,-0.0269,9.8336,-0.1828,-0.1381,0.0336
1315,797,787,34.102,30.486,0.0519,0.0215,9.8641,-0.5352,0.0774,-0.2266
1320,798,785,34.183,30.396,-0.1055,-0.0163,9.8413,0.0384,0.3535,0.2328
1325,809,784,34.032,30.497,-0.0171,-0.0761,9.8113,-0.3704,-0.6883,0.2911
1330,827,774,34.162,30.435,-0.0239,-0.0197,9.8504,-1.2697,-0.5605,-0.1319
1335,849,777,34.06,30.462,-0.0055,-0.0003,9.818,0.6856,-0.0082,0.1619
1340,840,770,34.119,30.434,-0.0422,0.0051,9.7782,-0.6917,0.2569,0.2069
1345,860,767,34.152,30.415,-0.0152,0.0556,9.8167,-0.0843,0.1808,-0.7233
1350,865,759,34.1,30.498,0.0172,0.0919,9.853,0.1752,0.1329,0.0394
1355,893,764,34.149,30.49,0.0297,0.0104,9.8032,-0.5088,-0.2183,-0.0812
1360,886,754,34.123,30.351,-0.0197,0.0896,9.7786,0.5644,-0.1711,0.061
1365,908,753,34.15,30.375,-0.0446,-0.0335,9.7188,0.4838,-0.0644,0.5368
1370,920,754,34.05,30.428,0.043,0.0207,9.8615,0.0119,0.0661,0.2543
1375,935,748,34.002,30.477,0.0676,0.0247,9.9036,-0.1781,0.4789,-0.1121
1380,948,742,34.063,30.397,0.0046,0.002,9.8056,-0.5337,-0.1454,0.1812
1385,968,742,34.074,30.369,0.0094,0.0228,9.751,0.824,0.2401,-1.157
1390,975,733,34.222,30.431,0.0723,0.0052,9.8009,0.6413,0.133,0.3528
1395,993,738,34.07,30.433,0.0455,0.041,9.8296,0.2384,-0.4325,-0.3247
1400,1004,728,34.188,30.383,0.0181,-0.0344,9.8308,-0.0766,-0.5766,0.0472
1405,1019,725,34.142,30.497,0.0103,0.0136,9.7815,0.163,-0.9229,0.0716
1410,1030,720,34.092,30.451,0.0073,0.1367,9.8877,0.6738,0.0754,-0.1577
1415,1053,722,34.113,30.323,0.1316,-0.0404,9.8231,-0.1169,0.0713,1.4552
1420,1060,720,34.143,30.419,-0.044,-0.1447,9.7581,0.4774,0.9956,-0.1657
1425,1063,715,34.071,30.351,-0.0297,-0.0235,9.7502,0.4854,-0.4377,0.1157
1430,1079,723,34.073,30.458,0.0577,-0.0421,9.835,0.2265,-0.7122,0.2941
1435,1098,711,34.179,30.519,0.0439,0.0527,9.8429,-0.1823,0.8912,0.266
1440,1103,714,34.14,30.41,0.0002,0.0421,9.746,0.2992,-0.1669,0.1649
1445,1108,714,34.033,30.398,0.0177,-0.0565,9.7902,0.2327,-0.5689,0.2196
1450,1119,710,34.12,30.435,0.1229,0.0414,9.7392,-0.0749,0.53,-0.4046
1455,1132,709,34.138,30.372,-0.0745,0.0872,9.8549,-0.4002,0.4488,0.1273
1460,1139,712,34.14,30.355,-0.0004,0.0571,9.722,0.7886,0.1351,0.2684
1465,1142,705,34.085,30.352,-0.0074,-0.0847,9.7525,0.2164,0.4364,0.7546
1470,1148,713,34.1,30.467,-0.0202,0.0409,9.8141,0.2207,-0.9167,-0.3136
1475,1159,715,34.084,30.477,0.0104,-0.0072,9.8553,-0.3839,-0.2831,-0.0334
1480,1166,714,34.198,30.442,-0.0633,0.0608,9.7958,1.7835,0.0112,-0.5282
1485,1172,713,34.106,30.45,-0.0186,-0.0227,9.8895,-0.93,-0.2477,0.3416
1490,1174,719,34.132,30.378,0.0229,-0.0484,9.8535,0.1723,0.0306,-0.7775
1495,1174,719,34.148,30.374,-0.0752,-0.0304,9.859,-1.1087,-0.2303,0.5257
1500,1192,720,34.171,30.52,0.0387,-0.0123,9.7637,-0.5082,-0.5998,0.1586
1505,1180,728,34.039,30.37,-0.0753,0.0474,9.8032,0.5358,-0.2511,0.4224
1510,1188,726,34.148,30.481,0.0607,0.0001,9.7563,0.2117,0.1819,-0.3703
1515,1183,726,34.209,30.462,-0.001,-0.0336,9.8323,-0.389,-0.343,-0.4014
1520,1183,734,34.118,30.508,0.0165,-0.0484,9.7438,-0.3582,-1.1413,0.7578
1525,1186,739,34.019,30.455,0.0466,0.1044,9.7584,-0.8416,0.7276,-0.3514
1530,1189,740,34.175,30.39,-0.016,0.0243,9.791,0.6195,0.0953,0.7028
1535,1179,741,34.16,30.478,-0.0108,-0.1034,9.8057,-0.926,0.485,0.1319
1540,1186,740,34.163,30.482,-0.0354,0.0258,9.7807,-0.3085,0.7969,0.067
1545,1181,752,34.097,30.458,0.0357,0.0783,9.8716,-0.4741,-0.1685,0.4265
1550,1169,753,34.111,30.472,-0.1191,0.0029,9.7597,0.9023,-0.1966,0.2533
1555,1180,762,34.023,30.46,0.0215,-0.0318,9.7805,0.7039,0.1402,0.0148
1560,1178,763,34.131,30.362,-0.1428,-0.0907,9.7755,-0.1124,-0.3772,0.0442
1565,1168,767,34.104,30.472,-0.0661,0.0191,9.8825,0.3795,1.3631,0.479
1570,1180,776,34.181,30.345,0.023,0.0217,9.8355,0.1395,0.201,0.0293
1575,1173,779,34.061,30.475,-0.0125,-0.043,9.806,0.1851,-0.3505,0.1778
1580,1159,784,34.117,30.445,-0.059,-0.0086,9.7393,-0.316,-0.3354,-0.1632
1585,1166,789,34.193,30.476,-0.0254,0.0734,9.7675,0.6542,-1.2252,-0.7322
1590,1153,791,34.057,30.44,-0.05,-0.0294,9.873,-0.0505,0.7664,-0.5065
1595,1150,793,34.096,30.432,0.0097,-0.0366,9.7851,0.9243,-0.357,-0.4083
1600,1153,804,34.086,30.378,-0.0243,0.0104,9.8399,-0.5246,0.5425,-0.4942
1605,1147,806,34.139,30.437,0.033,0.0444,9.7303,-0.4669,-0.2197,0.4191
1610,1144,809,34.037,30.376,0.0235,0.0241,9.8126,0.2017,0.3432,-0.0523
1615,1143,815,34.154,30.438,0.0605,0.0869,9.8239,-0.0652,0.1819,-0.3023
1620,1136,818,34.228,30.485,0.0832,0.0582,9.8861,-0.6148,-0.6047,0.0403
1625,1128,825,34.164,30.466,-0.0237,-0.008,9.8017,-0.2765,-0.056,1.6117
1630,1129,831,34.181,30.417,0.0462,-0.0001,9.8046,-0.2575,0.6534,0.0068
1635,1130,830,34.115,30.467,-0.0428,0.0322,9.8318,0.0728,0.5585,0.0036
1640,1123,837,34.095,30.432,-0.0405,0.1157,9.8357,-0.0998,-0.8166,-0.3149
1645,1120,837,34.17,30.434,-0.0294,-0.0441,9.7847,0.1519,-1.03,0.7723
1650,1111,839,34.097,30.29,0.012,-0.0288,9.8348,-0.5782,-0.9622,-0.4444
1655,1119,846,34.083,30.488,0.0101,-0.0379,9.788,-0.5343,-0.6433,0.9846
1660,1115,847,34.08,30.38,-0.001,-0.037,9.733,-1.1071,-0.2029,-0.2136
1665,1107,852,34.057,30.443,-0.1213,0.0128,9.8084,0.1697,-0.3223,0.7023
1670,1110,854,34.141,30.514,0.0155,0.0139,9.8186,-0.4723,0.4624,0.1962
1675,1099,850,34.16,30.486,0.0146,0.0255,9.7656,-0.0452,0.6671,-0.5585
1680,1099,859,34.139,30.5,0.0609,0.0116,9.7779,0.0767,-0.4055,0.2233
1685,1091,857,34.032,30.435,0.0431,0.0015,9.6885,-0.3736,0.1131,-0.7242
1690,1091,860,34.132,30.327,-0.0495,0.0703,9.8043,-0.1695,-0.631,0.2578
1695,1090,866,34.07,30.471,0.1282,0.0606,9.7408,-0.4166,0.1598,-0.4686
1700,1084,861,34.101,30.412,-0.0245,0.0517,9.7393,-0.0829,-0.0638,-0.1352
1705,1087,858,34.11,30.41,0.0435,-0.1045,9.8369,-0.3853,0.078,0.0453
1710,1084,867,34.07,30.439,0.1001,0.0223,9.8039,0.1372,0.4919,0.336
1715,1081,863,34.105,30.453,0.0673,0.0094,9.7951,1.0225,0.3923,0.5258
1720,1077,864,34.204,30.454,-0.1119,0.046,9.8295,0.5689,-0.4357,1.1561
1725,1071,866,34.12,30.437,0.033,-0.0276,9.7993,0.579,0.3965,0.0843
1730,1075,868,34.118,30.44,0.0739,-0.0267,9.8621,-0.0723,-0.8901,0.1687
1735,1065,863,34.173,30.397,0.016,-0.0313,9.8321,0.6891,0.0254,-0.6883
1740,1063,866,34.185,30.408,-0.0514,-0.0663,9.8016,-0.7005,-0.4604,0.086
1745,1069,867,34.078,30.349,-0.0103,0.0403,9.8295,-0.2305,0.1822,-0.7122
1750,1048,870,34.118,30.504,0.0282,-0.0626,9.7975,-0.2697,-0.0855,-1.0956
1755,1056,863,34.211,30.366,0.0078,-0.0601,9.8115,-0.0667,0.1852,0.0993
1760,1052,864,34.167,30.472,-0.0428,0.0268,9.7832,-0.7993,-0.1971,0.5819
1765,1047,856,34.189,30.382,0.0482,0.0618,9.8362,1.1205,0.5543,-0.5634
1770,1037,863,34.143,30.44,0.0037,0.08,9.8416,-0.4358,1.3189,-0.3756
1775,1030,854,34.079,30.515,0.0098,0.0385,9.7757,-0.1128,0.8649,0.0481
1780,1021,856,34.166,30.369,-0.0544,0.051,9.8441,-0.0038,0.0991,0.5482
1785,1024,856,34.171,30.408,0.0421,-0.0866,9.7738,-0.0146,-0.4113,0.234
1790,1021,858,34.108,30.371,-0.0282,-0.0505,9.6951,0.0459,1.2757,-0.4899
1795,1005,855,34.162,30.401,-0.0303,0.0359,9.7578,-0.7853,0.0121,0.1407
1800,1009,854,34.191,30.402,0.0104,0.0422,9.82,0.1899,-0.1334,-0.3413
1805,995,848,34.112,30.445,0.031,0.0953,9.7962,-0.1229,-0.1023,0.2943
1810,988,853,34.178,30.404,0.0198,0.0258,9.8033,-0.6776,0.2785,0.0217
1815,981,846,34.111,30.462,0.0495,0.0318,9.8339,-0.4066,0.0525,1.0554
1820,974,846,34.219,30.441,0.0097,0.0127,9.8045,-0.1117,1.2702,0.4532
1825,969,847,34.115,30.424,-0.0354,-0.0257,9.9335,0.2568,0.1418,1.3118
1830,957,842,34.123,30.523,0.0172,-0.0154,9.8322,0.2632,0.1512,0.331
1835,939,839,34.191,30.433,0.0754,-0.0035,9.7691,0.3992,0.4071,-0.1615
1840,938,845,34.095,30.452,-0.0085,0.0115,9.8357,-0.2943,-0.0669,1.0605
1845,918,839,34.118,30.45,0.0147,-0.0832,9.7649,-1.0751,1.045,0.7944
1850,915,838,34.092,30.454,0.0457,-0.0131,9.7923,-0.1817,-0.4145,-0.2419
1855,905,839,34.093,30.461,-0.0166,-0.0333,9.8568,0.2839,0.2136,-0.1398
1860,905,835,34.063,30.466,0.0738,-0.0899,9.8336,0.4003,-0.8668,0.5614
1865,876,838,34.12,30.448,-0.034,-0.0512,9.9123,0.0571,-0.0638,-0.1346
1870,875,836,34.169,30.425,0.0094,-0.0552,9.8216,-0.0725,-0.6938,-0.9778
1875,863,837,34.116,30.45,0.0493,0.0384,9.7538,0.5966,-0.2057,0.2787
1880,854,834,34.16,30.407,0.0689,0.086,9.8371,0.7343,-0.0479,0.1441
1885,840,831,34.065,30.415,0.0498,0.0113,9.8448,0.0773,-0.6253,-0.5065
1890,824,831,34.106,30.5,-0.0245,-0.0549,9.7923,0.1506,0.3161,-0.1927
1895,823,828,34.058,30.39,-0.0183,0.0199,9.7882,0.363,0.3268,-0.1616
1900,823,831,34.15,30.472,-0.0038,-0.0232,9.7203,-0.609,-0.1963,1.7269
1905,809,827,34.15,30.433,0.0538,0.0324,9.8589,0.1649,0.0631,-0.6853
1910,797,830,34.104,30.485,-0.0096,0.0518,9.8033,-0.2087,-0.9708,0.6104
1915,789,831,34.183,30.418,-0.0815,-0.0448,9.7729,-0.304,0.0688,-0.3075
1920,780,823,34.102,30.462,-0.0042,0.0371,9.7349,1.0642,-0.7339,-0.6549
1925,769,827,34.072,30.465,-0.0441,0.0312,9.7912,0.2608,0.407,-0.1698
1930,776,826,34.065,30.456,0.0128,-0.0088,9.8095,0.1153,-0.1067,-0.7848
1935,756,826,34.076,30.427,-0.1074,-0.0369,9.8212,-0.4483,0.6938,0.9297
1940,766,827,34.106,30.373,-0.0072,-0.0152,9.7815,0.5945,0.2532,-1.0722
1945,754,821,34.091,30.372,-0.0581,-0.1236,9.8083,-0.3028,-0.5175,-0.4166
1950,758,817,34.058,30.444,0.0578,-0.0466,9.9076,-0.0288,0.5025,0.9183
1955,747,816,34.124,30.459,-0.0898,-0.0391,9.8827,0.1164,-0.8897,-0.2351
1960,749,815,34.136,30.405,0.0124,-0.0658,9.8472,0.3456,0.2607,0.8736
1965,740,813,34.158,30.479,-0.0361,0.0781,9.8532,1.4232,-0.5648,0.4542
1970,750,814,34.104,30.423,0.0059,-0.0293,9.8043,-0.2646,0.5306,-0.256
1975,753,808,34.117,30.467,-0.0815,-0.033,9.8169,-0.5778,-0.2482,0.7889
1980,751,811,34.149,30.362,-0.0635,-0.0359,9.8263,-0.2971,0.5189,-0.4872
1985,756,807,34.078,30.363,-0.0044,0.0361,9.8086,0.2647,0.3766,-0.2029
1990,749,808,34.073,30.475,0.0633,0.0407,9.8313,0.1354,0.1883,-0.5595
1995,760,806,34.151,30.437,-0.0344,0.0688,9.8316,-0.7574,0.1694,0.4306
2000,756,805,34.117,30.393,0.0636,-0.0079,9.7272,-0.1574,-0.3618,0.0037
2005,768,796,34.155,30.465,-0.0553,-0.0184,9.867,0.0373,-0.2784,-0.0868
2009,782,798,34.074,30.486,-0.0068,0.0282,9.7614,0.574,-0.3308,-0.2159
2015,775,790,34.143,30.433,-0.043,0.0319,9.7792,0.6812,0.0487,0.3252
2020,799,790,34.085,30.48,-0.0582,-0.0146,9.8522,-0.0612,0.61,-0.1512
2025,807,780,34.054,30.486,0.0334,0.0365,9.7864,-0.8924,0.0864,-0.5507
2029,809,780,34.13,30.415,-0.0071,-0.0587,9.837,0.0438,0.1741,-0.2516
2035,818,784,34.062,30.424,-0.0016,-0.0126,9.8506,0.4758,-0.0855,0.1775
2040,829,781,34.123,30.459,-0.0482,0.0085,9.8742,-0.3052,0.0935,-0.6646
2045,841,769,34.098,30.505,0.0238,-0.0074,9.7949,-0.3442,-0.1305,0.567
2050,843,771,34.035,30.379,-0.0494,0.026,9.698,0.1662,0.5283,-0.0065
2055,871,766,34.108,30.354,0.0264,-0.0411,9.7883,-0.4431,0.7326,-0.1991
2060,870,762,34.043,30.401,-0.0559,-0.0213,9.8449,-0.1001,-0.1702,1.2092
2065,883,760,34.052,30.447,-0.0014,-0.0261,9.8138,-0.0828,0.0207,-0.4332
2070,905,752,34.053,30.447,-0.0002,-0.0252,9.8126,0.9862,-0.2649,-0.3151
2075,914,746,34.24,30.388,0.0051,0.0752,9.8325,-1.129,-0.1838,1.2088
2080,928,748,34.084,30.384,-0.0022,0.052,9.8659,-0.5197,-0.8638,0.4422
2085,939,746,34.06,30.465,-0.0205,0.0239,9.8143,0.0409,-0.1318,0.1897
2090,950,742,34.135,30.47,0.0478,-0.0357,9.8365,0.5468,0.0006,-0.7553
2095,971,738,34.132,30.432,-0.1031,-0.038,9.8225,-0.2664,0.3427,-0.6086
2100,990,740,34.205,30.497,0.1008,-0.0446,9.845,0.6433,-0.4095,-0.8344
2105,996,735,34.039,30.414,-0.0657,0.0144,9.8227,-0.0069,-0.5789,-0.0852
2110,1010,731,34.206,30.508,-0.0376,-0.0147,9.806,0.0464,0.0386,0.4454
2115,1021,725,34.161,30.417,-0.0458,-0.0236,9.8502,0.1305,-0.1584,-0.0169
2120,1030,724,34.201,30.419,-0.045,0.0084,9.7924,-0.0047,0.2752,-1.1738
2125,1051,723,34.059,30.506,0.0401,0.1006,9.8598,0.3958,-0.0353,0.78
2130,1069,721,34.198,30.48,0.0482,-0.0528,9.7454,-0.197,-0.4692,0.8493
2135,1079,714,34.101,30.45,0.009,-0.0281,9.823,-0.0758,0.4367,-0.1376
2140,1076,717,34.089,30.426,0.0412,-0.0162,9.7891,-0.204,-0.2066,0.9537
2145,1094,716,34.172,30.451,0.0924,0.0184,9.7659,0.5531,-0.1429,-0.0591
2150,1109,714,34.182,30.414,-0.0052,-0.0511,9.8667,-0.2409,0.234,-0.9548
2155,1107,716,34.107,30.425,-0.0091,0.064,9.8388,-1.1191,-0.6336,0.2542
2160,1134,708,34.195,30.391,0.068,-0.0121,9.81,0.3603,0.2297,0.117
2165,1134,713,34.065,30.495,-0.0238,0.0097,9.7503,0.5641,0.3254,-0.8038
2170,1145,708,34.201,30.507,-0.0038,0.0688,9.8959,-0.184,-0.1711,-0.0134
2175,1150,711,34.08,30.462,0.0344,0.075,9.8,-0.0558,-0.102,-0.1837
2180,1148,711,34.194,30.464,-0.091,0.0095,9.7758,0.1458,-0.4128,-0.5961
2185,1166,711,34.191,30.388,0.0253,-0.0018,9.7875,1.0071,-0.1163,-0.0985
2190,1170,712,34.053,30.526,0.0426,-0.0099,9.7474,-0.2875,0.6663,-0.8085
2195,1176,719,34.185,30.475,0.0323,-0.0005,9.7747,0.5737,0.278,0.0807
2200,1184,719,34.035,30.419,-0.0026,0.0518,9.7773,0.1407,0.2812,0.083
2205,1181,717,34.042,30.398,0.0251,0.0263,9.8989,0.06,0.6402,0.3575
2210,1172,717,34.093,30.487,-0.0684,0.0051,9.9066,0.4609,0.6318,0.0252
2215,1179,722,34.052,30.377,0.0464,-0.0085,9.8222,0.302,-0.764,-0.8574
2220,1183,728,34.151,30.464,-0.0155,-0.0139,9.7278,0.1082,-0.0326,0.2311
2225,1196,735,34.149,30.424,-0.0324,-0.1059,9.8724,0.6808,-0.7324,-0.2861
2230,1184,734,34.077,30.467,-0.0404,0.0515,9.8053,-0.3723,0.444,-0.4763
2235,1185,735,34.037,30.476,0.0594,-0.0255,9.9241,0.5848,-0.2893,0.8014
2240,1194,735,34.143,30.446,-0.0818,-0.004,9.7638,-0.0557,-0.8261,-0.0003
2245,1184,744,34.188,30.428,0.0577,0.109,9.8467,-0.1391,0.2253,0.3965
2250,1188,749,34.131,30.464,0.0796,-0.0115,9.8143,-0.3717,-0.0347,1.0246
2255,1183,751,34.147,30.348,-0.0338,-0.0237,9.9199,0.0854,-0.0158,0.7272
2260,1171,754,34.042,30.401,-0.0612,0.0104,9.9073,-0.0927,0.5797,-0.1315
2265,1182,757,34.173,30.419,0.0164,-0.0163,9.8102,0.2113,0.2682,-0.3728
2270,1173,769,34.141,30.425,-0.049,-0.0944,9.8686,-0.6948,-0.7392,0.7739
2275,1169,771,34.13,30.42,-0.0843,0.047,9.741,0.607,-0.92,0.3967
2280,1172,778,34.205,30.441,0.0354,-0.1069,9.7836,-0.0598,-0.2962,-0.0403
2285,1169,780,34.153,30.484,0.1136,-0.0214,9.7024,-0.7578,-0.1987,0.2636
2290,1157,781,33.989,30.433,-0.0239,-0.0396,9.8702,-0.2367,-0.6379,0.5162
2295,1157,791,34.128,30.422,-0.0357,0.037,9.8495,-0.1713,1.0165,0.1321
2300,1151,798,34.043,30.409,0.0114,-0.0162,9.792,0.0152,-0.5721,0.4473
2305,1145,800,34.084,30.456,-0.1044,-0.026,9.7575,0.1951,0.2876,0.0929
2310,1151,802,34.124,30.442,-0.0334,0.0444,9.8472,0.5664,0.6084,0.517
2315,1148,805,34.076,30.439,-0.1073,-0.0417,9.8489,-0.0831,-0.741,-0.5761
2320,1131,813,34.141,30.447,-0.0111,0.0781,9.8102,-0.3884,-0.5541,0.7911
2325,1140,819,34.136,30.293,0.027,-0.0615,9.9191,0.3623,0.3406,0.4008
2330,1134,825,34.237,30.488,-0.0659,0.0901,9.7831,-0.5689,0.0353,-0.0756
2335,1132,829,34.154,30.445,-0.0392,-0.0523,9.7504,0.8433,0.1342,0.1884
2340,1123,831,34.149,30.495,0.0624,-0.0613,9.7942,-0.2896,-0.6118,-0.1585
2345,1120,836,34.213,30.47,0.0247,0.0105,9.8496,0.6825,-0.0925,-0.1385
2350,1113,838,34.053,30.438,0.0135,0.0194,9.8012,0.5744,-0.4366,-0.8739
2355,1118,842,34.094,30.356,-0.0151,-0.0603,9.8495,0.6297,0.0521,0.5987
2360,1116,844,34.169,30.415,-0.0458,-0.0048,9.9114,-0.6122,0.3069,-0.0642
2365,1110,843,34.224,30.425,0.1213,0.0096,9.8616,-0.6387,0.5999,0.8168
2370,1104,855,34.114,30.481,0.0618,0.0183,9.829,-0.6547,0.3158,0.3296
2375,1098,850,34.196,30.443,-0.0466,-0.0415,9.8427,-0.4679,-0.688,-0.0925
2380,1105,857,34.201,30.393,-0.0243,0.0849,9.7549,0.1645,-0.0936,-0.1364
2385,1092,853,34.054,30.53,-0.0468,0.0355,9.9016,0.4881,-0.5166,0.1529
2390,1098,860,34.152,30.436,-0.0515,-0.0134,9.8137,-0.9616,-0.0558,0.6536
2395,1101,857,34.2,30.438,0.0607,0.0403,9.7647,0.9715,0.2547,-0.0387
2400,1085,859,34.12,30.416,0.0425,0.0405,9.8189,0.6797,-0.5865,0.2212
2405,1096,858,34.125,30.478,-0.0489,-0.0175,9.8485,-0.753,0.2355,0.3081
2410,1084,858,34.2,30.412,-0.012,0.0482,9.7856,1.0833,-0.0903,0.8342
2415,1083,867,34.1,30.322,0.0539,-0.0895,9.7524,0.3311,-0.647,-0.7136
2420,1087,867,34.074,30.424,0.0197,0.0222,9.8355,0.1739,0.0191,-0.6645
2425,1084,868,33.999,30.484,0.0005,0.1027,9.8742,0.4018,0.054,0.6329
2430,1081,863,34.141,30.454,-0.053,0.0683,9.7457,-0.0596,-0.0369,-1.5435
2435,1085,867,34.136,30.481,0.0089,-0.1266,9.7775,0.1881,0.2511,-0.4044
2440,1070,865,34.146,30.409,-0.0597,0.0422,9.9075,-0.0013,0.3861,0.6158
2445,1070,859,34.166,30.373,0.0592,-0.061,9.7542,0.1477,-0.9292,-0.6276
2450,1067,863,34.088,30.369,0.043,-0.1327,9.7541,-0.1101,-0.8918,-0.5992
2455,1063,859,34.184,30.486,0.0368,-0.0694,9.7642,-0.3583,0.0454,0.403
2460,1058,859,34.077,30.432,-0.0658,0.0181,9.8331,-0.3966,0.0501,-0.2187
2465,1047,863,34.096,30.384,-0.0524,-0.0234,9.8006,-0.0245,-0.8982,0.1471
2470,1051,859,34.094,30.468,0.0189,0.1023,9.6831,-0.0352,-0.4853,-0.4008
2475,1039,862,34.137,30.457,0.0435,0.0529,9.7683,0.4632,-0.1379,-0.8641
2480,1029,856,34.099,30.415,-0.0225,0.0338,9.8951,0.0407,-0.0483,0.4223
2485,1025,854,34.029,30.412,0.0469,0.0005,9.7899,0.3518,-0.4993,0.6203
2490,1034,858,34.094,30.456,0.0229,0.008,9.8525,-0.0872,0.202,-0.4287
2495,1021,848,34.125,30.428,-0.0109,-0.0119,9.8555,-0.2862,0.2742,-0.7529
2500,1012,850,34.124,30.45,-0.1078,-0.0309,9.9348,-0.0363,-0.5448,-0.4408
2505,1011,855,34.173,30.399,-0.101,-0.0116,9.8991,0.4806,-1.0071,0.0687
2510,990,855,34.149,30.473,-0.0425,0.1058,9.8447,0.8341,-0.7046,0.1408
2515,991,848,34.092,30.451,-0.0721,-0.0334,9.7875,0.9922,0.1607,0.0374
2520,980,852,34.197,30.548,0.0114,0.0107,9.7594,0.4894,-0.3675,-0.4987
2525,971,853,34.108,30.398,-0.0557,0.0746,9.8309,1.3411,-0.09,0.3359
2530,972,842,34.059,30.473,-0.0092,0.0138,9.826,0.3708,0.3584,0.1749
2535,944,848,34.074,30.394,-0.0397,0.022,9.9046,-0.489,0.0168,0.0716
2540,938,840,34.162,30.414,0.0138,0.009,9.6883,-0.0322,0.4248,-0.6769
2545,943,842,34.104,30.45,-0.0372,-0.0263,9.6941,0.2673,0.6278,-0.0032
2550,929,840,34.156,30.463,-0.0678,-0.0555,9.6995,-0.5442,0.5605,-0.3732
2555,924,839,34.056,30.418,0.0554,0.1026,9.7929,0.3992,0.0421,-0.5107
2560,910,839,34.079,30.477,-0.0056,-0.0279,9.7895,-0.0759,1.0561,0.4276
2565,893,840,34.194,30.405,-0.0292,-0.0426,9.8042,-0.1864,0.0214,0.2092
2570,887,843,34.087,30.514,-0.0313,-0.0244,9.8083,-0.3567,1.335,-0.678
2575,878,839,34.108,30.453,-0.0472,-0.0219,9.7902,0.1063,-0.5725,-0.0598
2580,867,833,34.169,30.501,-0.0401,-0.0455,9.7043,-0.1584,-0.4977,-0.4199
2585,851,835,34.178,30.46,-0.0384,0.0422,9.8871,0.7757,-0.2278,-0.0461
2590,839,829,34.055,30.346,0.0128,-0.0303,9.777,-0.5526,-0.0312,0.6617
2595,840,836,34.051,30.426,-0.0129,0.0135,9.7533,0.0655,0.0204,-0.1915
2600,828,831,34.171,30.519,-0.0616,-0.0224,9.8575,-0.4326,-0.1512,-0.7454
2605,817,824,34.176,30.497,0.0438,0.0007,9.7697,-0.6304,-0.9686,-0.3027
2610,807,832,34.02,30.377,0.014,-0.0335,9.9471,0.456,-0.5108,0.1782
2615,799,829,34.102,30.472,-0.1194,-0.0139,9.745,-0.0346,0.423,-0.049
2620,802,829,34.112,30.512,0.0479,-0.0629,9.7703,-0.6373,0.1664,-0.1508
2625,789,827,34.056,30.465,0.0558,-0.046,9.7905,0.326,0.8958,-0.3918
2630,776,832,34.129,30.418,-0.0582,0.0933,9.7867,-0.7659,-0.0029,-0.8914
2635,766,830,34.125,30.453,0.0576,0.0098,9.6587,0.5144,0.1624,-0.521
2640,770,826,34.13,30.478,0.0197,-0.0939,9.8032,0.8274,-0.3232,1.1086
2645,767,826,34.221,30.512,0.0366,-0.0311,9.8187,0.4647,-0.4252,-0.3714
2650,750,819,34.192,30.443,-0.0196,-0.0019,9.8443,0.2029,-0.0887,-0.0449
2655,743,819,34.037,30.47,-0.0661,0.0693,9.8195,0.2732,-0.0693,0.1513
2660,751,822,34.077,30.415,-0.12,0.0099,9.9163,-0.2946,-0.1642,-0.547
2665,751,816,34.124,30.416,-0.0424,-0.0866,9.8648,-0.5967,-0.2647,1.3705
2670,750,816,34.044,30.491,-0.0721,0.0292,9.8245,-0.3243,0.9489,0.9562
2675,743,815,34.07,30.458,0.0828,0.0617,9.7655,0.6842,0.7154,-1.0261
2680,755,817,34.171,30.477,-0.0458,0.0352,9.7094,-1.3351,-0.6366,0.5319
2685,759,807,34.156,30.537,0.0276,0.059,9.7969,-0.1926,-0.1864,0.2042
2690,751,808,34.125,30.446,0.0339,-0.0507,9.8128,-0.8723,1.0791,-0.7384
2695,748,807,34.174,30.409,0.1011,0.0121,9.7839,0.7206,-0.4297,-0.2679
2700,757,804,34.164,30.329,0.0584,0.0988,9.8831,0.3116,-0.7529,-0.4416
2705,764,804,34.029,30.443,0.0709,0.0156,9.7768,0.1049,-0.8303,-0.5004
2710,769,797,34.155,30.434,-0.0511,0.0247,9.8482,0.3405,0.2506,0.8556
2715,772,791,34.091,30.408,-0.0091,-0.0253,9.8593,-0.4774,0.2568,0.1152
2720,786,789,34.208,30.457,-0.1443,0.083,9.7485,0.6415,-0.0285,0.2321
2725,783,794,34.054,30.436,0.0489,-0.0476,9.8212,0.0936,1.3608,-0.2098
2730,794,783,34.128,30.315,0.0745,0.0664,9.7561,-0.563,0.0008,0.1104
2735,801,789,34.136,30.576,0.0393,0.059,9.7453,0.2218,0.3891,-0.4895
2740,817,788,34.103,30.418,0.0592,-0.0028,9.7969,-0.2074,-0.0278,-0.3059
2745,822,776,34.089,30.46,0.0313,0.0524,9.8309,-0.0491,-0.3053,0.4401
2750,834,779,34.239,30.447,0.0056,-0.0668,9.806,-0.2326,0.3045,0.7297
2755,844,775,34.099,30.456,0.0335,-0.0784,9.7961,0.0515,-0.158,-0.0503
2760,860,769,34.202,30.394,0.0082,-0.1018,9.7566,-0.7411,0.1,-1.1496
2765,875,765,34.03,30.4,0.0154,-0.1111,9.8081,-0.138,-0.2277,-0.4697
2770,899,761,34.084,30.447,-0.0122,-0.0438,9.7509,-0.6389,-0.8756,-0.3979
2775,897,759,34.008,30.473,-0.0101,0.035,9.8956,0.8594,1.1102,-1.2559
2780,927,747,34.121,30.328,0.023,0.0248,9.7655,-0.111,0.0159,-0.113
2785,929,746,34.115,30.448,-0.0043,0.0122,9.8179,0.1982,-0.0434,-0.2381
2790,933,749,34.14,30.495,0.0817,0.0532,9.861,-0.0111,0.1162,0.0834
2795,951,742,34.161,30.481,0.0318,0.0076,9.8111,0.3668,-0.0347,-0.3038
2800,957,742,34.23,30.432,0.0473,-0.1126,9.8591,-0.9608,-0.3835,0.4188
2805,976,739,34.191,30.337,-0.0377,-0.0105,9.7993,0.1467,0.0675,0.1424
2810,989,733,34.088,30.507,0.0681,-0.0716,9.7605,0.1818,-0.1868,-0.0645
2815,1006,731,34.166,30.506,0.0141,0.0066,9.786,0.1005,-0.2063,0.8433
2820,1010,733,34.061,30.492,0.0229,0.062,9.9235,0.7227,0.7125,-0.1661
2825,1030,727,34.062,30.422,-0.0709,0.0213,9.8308,0.1511,-0.4116,0.2363
2830,1040,720,34.112,30.415,0.0884,0.0693,9.7596,-0.3236,-0.6285,-0.3036
2835,1063,717,34.087,30.495,-0.0167,0.0521,9.7147,-0.3066,-0.1957,0.0576
2840,1068,717,34.12,30.461,-0.0102,0.0043,9.7287,0.0664,-0.2312,-1.246
2845,1083,714,34.132,30.387,-0.0133,-0.0458,9.8474,-0.3345,-0.2042,0.1655
2850,1095,716,34.126,30.504,-0.036,0.0068,9.7931,-0.2324,-1.1156,0.1836
2855,1105,715,34.083,30.416,-0.0211,-0.0614,9.8024,-0.203,-0.1487,-1.1862
2860,1106,711,34.135,30.445,0.0173,0.0389,9.7815,1.1741,0.1803,-1.1626
2865,1122,711,34.221,30.5,0.0306,-0.0516,9.8636,-0.3565,0.264,0.0186
2870,1138,710,34.092,30.485,-0.0051,-0.0052,9.8157,-0.2202,0.1243,0.8726
2875,1146,713,34.1,30.46,0.0412,0.0364,9.7998,-0.0595,-1.052,0.0261
2880,1145,711,34.144,30.397,0.0122,-0.0165,9.7585,-0.0602,0.087,-0.2024
2885,1155,716,34.168,30.535,0.0466,0.0588,9.7523,-0.2222,0.9759,-0.7535
2890,1165,714,34.131,30.436,-0.0252,0.073,9.7602,0.7605,-0.94,-0.2327
2895,1159,709,34.121,30.493,-0.0347,0.0099,9.789,0.096,0.0078,0.4634
2900,1170,718,34.1,30.493,0.0034,0.0436,9.7756,-0.1132,0.5205,-0.1081
2905,1168,719,34.079,30.46,0.0658,0.0195,9.8228,-0.301,0.4281,-0.7452
2910,1172,712,34.073,30.396,-0.0141,0.0747,9.7512,0.1422,-0.2059,-1.3768
2915,1192,713,34.151,30.52,0.0609,-0.0921,9.7488,-0.0101,-0.2755,1.1252
2920,1192,719,34.112,30.477,0.0265,0.009,9.7759,-0.376,-0.3221,1.0086
2925,1176,730,34.121,30.499,0.0228,-0.0218,9.8239,-0.886,0.4762,-0.4238
2930,1195,727,34.199,30.375,-0.0003,0.0064,9.8153,0.1111,-0.618,1.0856
2935,1194,727,34.206,30.497,-0.0098,-0.0311,9.7855,-0.957,0.6301,0.1933
2940,1186,737,34.061,30.401,0.0039,0.0261,9.8311,0.1785,0.0654,0.0529
2945,1181,741,34.101,30.5,0.0385,0.0266,9.75,-0.0502,0.02,0.2971
2950,1189,743,34.197,30.464,-0.0307,0.0192,9.7511,0.7261,0.8218,-0.5015
2955,1179,744,34.151,30.431,0.1014,0.0109,9.7858,0.4873,0.804,-0.0187
2960,1180,751,34.077,30.46,-0.0237,0.0344,9.8225,-1.1305,0.1989,0.4116
2965,1178,752,34.088,30.451,0.025,0.1159,9.7695,0.4362,0.6146,0.6226
2970,1178,759,34.033,30.341,0.0256,0.0335,9.7303,-0.1798,-0.5318,0.5838
2975,1185,765,34.12,30.442,-0.0053,-0.005,9.8566,-0.1418,-0.6935,-0.7839
2980,1167,769,34.111,30.424,0.0417,0.0586,9.8282,-0.9048,-0.6967,0.0399
2985,1170,768,34.128,30.369,0.0701,-0.0675,9.7996,-0.1018,0.4685,0.4666
2990,1166,781,34.016,30.439,-0.0047,-0.0516,9.742,0.7844,-0.2686,0.1861
2995,1161,782,34.119,30.44,0.0523,-0.0223,9.8347,0.0129,-0.0063,0.3381
3000,1163,789,34.109,30.503,-0.0509,0.007,9.7744,-0.0631,0.0476,0.016
3005,1164,793,34.117,30.405,-0.0441,-0.0132,9.7963,-0.1182,0.5411,-1.0445
3010,1139,795,34.111,30.525,0.0393,0.0454,9.752,0.7534,0.2234,-0.2209
3015,1147,799,34.085,30.501,-0.0806,-0.0052,9.8222,0.3967,0.0747,-0.2004
3020,1142,809,34.204,30.518,0.0141,0.0185,9.8771,-0.0629,-0.8985,-0.2197
3025,1142,808,34.169,30.531,-0.0411,-0.0892,9.9312,0.4428,-0.1198,-0.0571
3030,1136,816,34.157,30.434,-0.04,0.0135,9.8338,0.3779,0.1049,-0.5109
3035,1127,820,34.082,30.494,0.001,-0.0008,9.886,-0.1534,0.8084,0.0644
3040,1130,826,34.102,30.345,0.1042,0.0453,9.7764,0.3805,0.3047,-0.7861
3045,1123,824,34.108,30.521,0.0759,-0.0635,9.8364,0.5482,-0.2413,0.833
3050,1126,829,34.146,30.42,-0.0147,0.0463,9.784,-0.0555,0.418,0.1689
3055,1118,834,34.123,30.461,-0.0297,0.0277,9.835,0.1651,-1.0814,-1.142
3060,1118,839,34.19,30.409,0.0056,-0.0582,9.8224,0.345,0.6174,-0.2154
3065,1113,839,34.101,30.486,0.0507,-0.0212,9.793,-0.1251,0.5503,0.0161
3070,1114,843,34.117,30.479,-0.046,0.0749,9.8226,0.0324,0.8736,0.1816
3075,1109,843,34.149,30.435,0.0018,-0.0533,9.7069,0.8791,0.4063,-0.6264
3080,1108,853,34.182,30.337,0.086,-0.0077,9.7714,0.1328,-0.4979,-1.0956
3085,1099,848,34.138,30.483,-0.038,-0.0283,9.7608,0.9385,-0.0581,-0.7528
3090,1099,852,34.12,30.572,0.0578,0.0294,9.8062,-0.5029,0.5118,0.672
3095,1094,860,34.158,30.418,0.0024,-0.0524,9.7958,-0.0214,0.6273,-1.0217
3100,1099,854,34.066,30.42,-0.0134,-0.0002,9.7633,-0.2302,-0.8707,-0.0394
3105,1098,855,33.995,30.425,0.0143,-0.0432,9.7593,-0.2216,0.2541,0.2246
3110,1093,866,34.108,30.416,-0.0117,-0.0777,9.7574,-0.3528,-0.0793,0.2941
3115,1092,862,34.006,30.428,0.0893,-0.0808,9.7759,0.3094,0.9282,0.5671
3120,1079,863,34.154,30.433,-0.1355,0.076,9.8079,-0.7022,-0.852,0.0138
3125,1086,864,34.223,30.385,0.0489,-0.0522,9.8032,0.1129,-0.3551,0.3337
3130,1083,865,34.031,30.426,-0.0088,0.0128,9.8368,0.8514,0.7602,-0.7253
3135,1079,867,34.188,30.407,0.0131,0.0228,9.7665,-0.4395,0.5459,0.5076
3140,1079,870,34.117,30.51,0.0237,-0.0301,9.7294,0.5685,0.0315,0.2869
3145,1065,868,34.076,30.473,0.0206,-0.0118,9.781,0.377,0.4948,0.6804
3150,1069,866,34.162,30.51,0.0047,0.0819,9.8171,-0.1119,0.9416,-0.3583
3155,1069,867,34.208,30.415,0.0549,-0.0683,9.7549,-0.0855,-0.1723,0.0104
3160,1061,861,34.127,30.452,0.0782,-0.0492,9.8663,-0.7256,-0.2705,-0.1395
3165,1059,863,34.102,30.359,-0.0485,-0.0014,9.8682,0.3564,0.31,-0.0835
3170,1050,862,34.163,30.428,0.0539,0.107,9.8116,-0.3234,0.7503,1.413
3175,1044,862,34.102,30.364,0.0644,0.046,9.8422,0.4776,0.7039,-0.8656
3180,1047,857,34.167,30.471,-0.0408,-0.0366,9.7923,0.3669,0.0216,0.775
3185,1043,858,34.107,30.452,0.0824,-0.0162,9.8425,0.3938,-0.1171,0.1088
3190,1040,854,34.208,30.49,-0.0235,-0.0544,9.8365,-0.6269,-0.1139,-0.3299
3195,1028,859,34.148,30.395,0.0397,-0.0464,9.873,1.0921,0.2284,-0.0137
3200,1025,858,34.123,30.429,-0.0039,-0.0118,9.7769,-0.0754,0.5576,-0.4457
3205,1019,860,34.078,30.515,0.0546,0.0491,9.7463,0.2009,0.1892,-0.082
3210,1007,851,34.135,30.498,-0.0259,-0.0156,9.824,0.1468,-0.0924,0.5983
3215,1003,852,34.201,30.469,-0.0025,-0.0359,9.7416,-0.7147,-0.3714,-0.0918
3220,989,854,34.098,30.457,0.0054,0.078,9.7629,-0.1299,-0.4923,-0.7062
3225,979,852,34.1,30.465,-0.044,-0.0263,9.7522,0.3104,0.9935,-0.4863
3230,977,847,34.074,30.43,-0.0108,0.0626,9.776,0.342,0.2128,0.1254
3235,965,844,34.205,30.489,-0.0426,0.011,9.7997,-0.4597,0.0283,0.7433
3240,959,845,34.169,30.436,0.0132,0.1264,9.7438,-0.4401,-0.1112,-0.7862
3245,954,848,34.139,30.49,0.0403,-0.0437,9.7811,0.3206,0.2866,-0.3849
3250,946,839,34.124,30.378,-0.0613,0.0386,9.8053,0.5291,0.4161,-0.0233
3255,930,836,34.055,30.5,-0.0808,0.0079,9.7676,-0.5859,0.5453,0.0287
3260,918,840,34.142,30.42,0.0006,0.0131,9.8677,-0.5558,-0.3405,0.3379
3265,908,839,34.13,30.558,-0.0377,0.0563,9.7076,-0.1894,0.0385,0.0146
3270,899,839,34.082,30.506,0.0795,0.0019,9.8965,0.4988,0.6693,-0.3928
3275,897,837,34.127,30.416,-0.0049,-0.0279,9.8629,-0.0635,0.7054,0.13
3280,887,836,34.169,30.513,0.0138,-0.0765,9.7736,-0.5002,-0.0241,-0.6124
3285,873,838,34.196,30.461,0.0311,0.0425,9.8917,0.0376,-1.2563,0.0602
3290,860,832,34.184,30.492,-0.0678,0.0908,9.8232,0.4797,0.3291,0.0636
3295,848,837,34.209,30.565,-0.0227,0.0344,9.7389,-0.0764,0.1019,-0.5548
3300,840,834,34.081,30.431,-0.002,0.0431,9.7346,-0.5953,0.4771,0.2484
3305,837,832,34.151,30.465,-0.0566,0.0459,9.8065,-0.4288,-0.5173,-0.7848
3310,821,836,34.122,30.465,0.0377,-0.054,9.8078,-0.4434,0.649,0.1721
3315,814,833,34.242,30.46,0.0758,0.0001,9.7709,-0.2872,0.1901,0.0345
3320,810,830,34.146,30.463,0.056,0.002,9.7909,-0.5617,-0.4043,-0.3244
3325,795,834,34.113,30.414,0.0438,-0.0295,9.7951,0.8152,-0.5663,-0.1548
3330,798,827,34.115,30.478,0.0235,-0.0422,9.7299,0.1298,-0.3892,-0.336
3335,790,829,34.175,30.451,-0.0561,-0.0047,9.8062,-0.5831,0.7166,0.4967
3340,771,830,34.126,30.478,0.0075,0.0933,9.8874,0.9747,-0.4203,-0.4261
3345,767,824,34.117,30.436,0.0561,-0.023,9.7923,0.1734,-0.1669,0.3674
3350,774,828,34.096,30.38,-0.0286,0.0223,9.7237,0.7558,0.0988,0.3609
3355,755,822,34.109,30.509,0.0147,0.0393,9.7742,-0.2652,0.4124,-0.1799
3360,759,820,34.149,30.439,-0.0868,0.0547,9.7084,0.2172,0.2567,0.4817
3365,755,824,34.189,30.483,0.0456,0.0913,9.8158,-0.0799,0.7441,0.2002
3370,752,817,34.133,30.471,-0.019,0.0354,9.758,-0.0777,0.7832,-0.4763
3375,740,818,34.106,30.477,-0.0297,-0.014,9.8241,-0.3376,0.3383,-0.3387
3380,743,815,34.087,30.5,-0.0575,0.0702,9.8112,0.1201,-0.5814,0.0428
3385,748,813,34.13,30.454,-0.0372,-0.0397,9.77,-0.321,0.1803,-0.2554
3390,748,810,34.143,30.363,0.0115,-0.001,9.8118,0.2806,-0.0108,0.9085
3395,753,806,34.267,30.467,0.0177,-0.102,9.8495,-0.3444,-0.1742,0.7803
3400,753,815,34.231,30.415,0.0458,-0.0718,9.8348,-0.4,0.1628,-0.4032
3405,761,804,34.124,30.458,-0.0162,0.0205,9.7887,0.2825,-1.0553,-0.5622
3410,758,802,34.201,30.516,-0.0147,-0.0295,9.803,0.6841,0.162,-0.0052
3415,765,799,34.11,30.52,-0.0333,-0.0757,9.8125,0.9762,-0.4134,0.513
3420,778,796,34.067,30.495,0.0485,-0.0017,9.8541,-0.245,-0.5624,-0.0854
3425,785,803,34.125,30.475,-0.0468,-0.0091,9.7856,0.0901,0.132,0.3197
3430,786,793,34.189,30.456,-0.0252,0.0257,9.8069,0.4181,-0.3385,0.6522
3435,794,788,34.232,30.392,0.0062,-0.1477,9.742,-0.1881,-0.3457,0.6041
3440,809,790,34.178,30.382,0.024,-0.0361,9.7357,-0.1635,-0.0216,0.6655
3445,801,783,34.19,30.394,-0.0162,0.088,9.7771,0.3004,0.5512,0.1641
3450,819,781,34.148,30.467,-0.0386,0.129,9.8605,0.5954,0.6371,-0.8696
3455,832,778,34.13,30.433,0.0238,0.0301,9.8217,0.004,0.0108,0.7855
3460,834,775,34.222,30.479,-0.0104,-0.0272,9.851,-0.1306,0.6872,0.1393
3465,853,769,34.244,30.448,-0.0596,-0.0059,9.8139,0.2642,-0.0302,-0.3867
3470,872,763,34.129,30.464,0.0026,-0.1683,9.7439,0.143,0.4765,0.2771
3475,878,766,34.157,30.408,-0.0442,-0.0474,9.7815,-0.1293,-0.2317,0.6332
3480,896,757,34.114,30.422,-0.0447,0.0543,9.7567,-0.3855,0.2255,0.0561
3485,898,755,34.223,30.51,-0.0132,0.0187,9.7789,0.3872,-0.1606,-0.9535
3490,918,754,34.127,30.538,0.0013,0.0813,9.7716,0.3922,-0.2326,0.0632
3495,929,741,34.158,30.538,0.0191,-0.0589,9.8899,0.3075,-0.2818,0.7061
3500,942,747,34.134,30.462,-0.0105,-0.0158,9.7512,0.113,-0.3293,0.1082
3505,961,740,34.061,30.377,-0.0167,-0.017,9.7918,-0.2531,-0.0733,-0.8314
3510,969,739,34.194,30.442,0.0579,0.0048,9.7484,0.4903,-0.068,-0.4297
3515,980,737,34.141,30.402,0.0061,-0.0454,9.7178,0.5631,0.1947,-0.0838
3520,1004,732,34.138,30.373,-0.0033,-0.0565,9.7758,-0.3002,0.2684,-0.1217
3525,1019,726,34.252,30.459,-0.0342,-0.0093,9.7159,0.2832,0.5932,0.0582
3530,1022,723,34.135,30.427,-0.0528,0.0769,9.8912,-0.4949,0.1867,0.5127
3535,1030,724,34.115,30.514,0.0591,-0.0017,9.8237,0.0338,0.7931,-0.5838
3540,1051,724,34.168,30.459,0.0209,0.0404,9.7038,-0.2118,-1.5516,0.102
3545,1062,714,34.136,30.435,0.0996,-0.123,9.9164,-0.2998,-0.4793,0.0563
3550,1085,719,34.12,30.447,0.0032,0.0028,9.8565,-0.7026,0.2829,-0.6834
3555,1089,714,34.153,30.428,0.0203,-0.0502,9.8574,-0.0649,0.0903,0.2071
3560,1096,713,34.124,30.454,-0.0556,-0.0073,9.8653,-0.7617,-0.2562,-0.8461
3565,1109,714,34.121,30.499,0.0604,-0.1143,9.8494,-0.3577,0.9124,0.4777
3570,1114,711,34.224,30.472,-0.0339,-0.0287,9.8391,-0.3924,-1.3738,-1.0788
3575,1135,707,34.112,30.45,0.0463,0.0058,9.839,-0.1291,-0.8671,0.4077
3580,1139,709,34.124,30.448,-0.0477,-0.0068,9.8187,-0.0179,0.0966,0.1729
3585,1145,710,34.058,30.46,0.0283,-0.0778,9.9139,0.5566,-0.1514,-0.2562
3590,1154,710,34.061,30.43,-0.0747,-0.0082,9.7556,0.3192,0.0406,0.121
3595,1161,711,34.041,30.549,0.1088,-0.056,9.8836,-0.2981,-0.4993,0.4966
3600,1167,717,34.115,30.499,-0.0522,0.0318,9.9079,0.3813,1.0933,-0.3604
3605,1180,720,34.183,30.524,0.0039,-0.0978,9.7484,0.4568,-0.6942,0.2681
3610,1165,717,34.07,30.425,-0.0549,0.0108,9.7249,0.6644,0.7406,0.6301
3615,1176,719,34.044,30.422,0.0281,0.0118,9.9449,0.4986,-0.4371,-0.4096
3620,1169,727,34.124,30.401,-0.0526,-0.0196,9.8104,-0.1668,0.666,-0.1766
3625,1191,722,34.18,30.464,0.0888,0.0204,9.8857,-0.5474,0.4742,0.034
3630,1180,726,34.037,30.526,-0.0098,0.0137,9.7642,0.1604,-0.3489,0.4485
3635,1195,727,34.062,30.472,-0.0255,0.1066,9.8267,-0.1041,-0.6069,0.0855
3640,1183,729,34.105,30.5,0.0349,0.0341,9.8245,-0.4656,-0.3998,-0.0991
3645,1185,731,34.177,30.459,-0.0174,0.0155,9.8202,-0.4577,0.3486,-0.8047
3650,1180,739,34.173,30.482,-0.0649,0.0802,9.7777,0.0491,-0.4221,-0.0964
3655,1186,740,34.128,30.533,-0.0365,0.0286,9.7589,0.9013,0.0534,-0.5834
3660,1187,740,34.107,30.446,0.0214,0.0881,9.7713,-0.491,-0.5519,0.2865
3665,1186,745,34.068,30.478,-0.0514,0.0764,9.8238,-1.2683,-0.3581,0.1103
3670,1182,757,34.043,30.513,-0.0703,-0.0431,9.8487,-0.564,-0.378,0.2788
3675,1177,753,34.154,30.509,-0.0179,0.0249,9.8437,0.1291,-0.139,0.284
3680,1172,761,34.212,30.397,-0.0048,-0.07,9.7715,-0.0224,0.3379,-0.0132
3685,1171,765,34.106,30.526,0.0124,-0.0177,9.9458,0.0288,-0.4038,0.6928
3690,1173,768,34.089,30.467,-0.129,0.0358,9.8029,-0.5107,-0.47,0.3252
3695,1179,777,34.175,30.431,-0.0037,-0.024,9.7342,-0.5604,-0.2227,0.261
3700,1163,780,34.124,30.384,0.053,0.0125,9.8567,-0.1479,1.0035,0.5948
3705,1152,788,34.208,30.541,0.042,-0.0218,9.7062,-0.2848,0.6377,0.2047
3710,1155,787,34.132,30.413,0.0738,-0.0005,9.8879,0.1643,-0.1028,-1.1445
3715,1153,796,34.093,30.463,-0.0615,0.0147,9.8393,0.1108,0.5087,-0.1955
3720,1153,795,34.133,30.303,-0.0558,0.0227,9.804,0.2817,0.3321,0.3287
3725,1143,812,34.155,30.526,-0.0225,0.0534,9.7034,0.4124,0.1166,0.2018
3730,1140,811,34.217,30.438,0.0186,0.045,9.7914,-0.9547,-0.4704,0.1105
3735,1142,817,34.214,30.402,-0.0009,-0.0285,9.8199,-0.4162,-0.417,-0.5131
3740,1126,816,34.139,30.386,-0.0383,0.0692,9.8629,-0.1335,-0.0648,-0.2099
3745,1131,827,34.183,30.498,-0.0036,-0.0116,9.7696,0.286,0.1135,0.944
3750,1130,825,34.143,30.378,-0.0327,-0.0206,9.8465,-0.431,0.6427,0.2091
3755,1125,826,34.173,30.404,-0.0083,0.0263,9.7792,-0.1734,-0.3659,-1.1571
3760,1125,834,34.148,30.535,-0.0259,0.0187,9.7817,-0.5108,-0.568,0.6042
3765,1116,835,34.074,30.387,0.015,-0.0232,9.8026,0.5519,-0.4822,-0.6943
3770,1116,842,34.127,30.464,-0.0167,-0.0956,9.8514,0.7679,-0.7605,0.0332
3775,1106,840,34.09,30.473,-0.0611,-0.0425,9.7151,-0.7624,-0.1031,-0.1809
3780,1109,850,34.129,30.487,-0.0135,0.048,9.8285,0.96,-1.1117,0.4419
3785,1100,856,34.126,30.475,0.0492,-0.0627,9.8851,-0.5569,-0.6711,-0.6074
3790,1100,858,34.136,30.495,0.0076,0.0008,9.8238,0.1401,0.6477,0.2878
3795,1097,853,34.228,30.481,0.0311,0.0485,9.8382,-0.0307,0.2493,0.4719
3800,1100,860,34.02,30.469,0.0313,0.0184,9.7787,0.4026,-0.6248,0.6325
3805,1090,863,34.144,30.468,-0.0074,0.0423,9.8414,0.5783,-0.4545,0.0165
3810,1093,858,34.058,30.508,-0.0594,0.0214,9.7626,-0.3244,1.4413,0.104
3815,1084,862,34.166,30.543,-0.0382,0.0664,9.8092,0.1269,-0.7416,0.557
3820,1084,863,34.189,30.503,0.0251,-0.0704,9.8316,0.0653,-0.1375,-0.0934
3825,1088,860,34.073,30.456,0.0045,0.016,9.8249,-0.5559,0.1377,0.3506
3830,1088,864,34.082,30.448,0.0827,0.0127,9.7958,0.2777,0.499,0.3679
3835,1085,863,34.033,30.497,0.0458,-0.0127,9.7415,-1.1478,-0.0427,-0.0604
3840,1087,868,34.091,30.613,0.0694,-0.0098,9.727,-0.605,-0.2095,0.4164
3845,1075,860,34.172,30.44,-0.019,0.0123,9.8339,-0.1096,0.6127,-1.2822
3850,1076,862,34.23,30.397,-0.0564,0.0025,9.8909,0.2842,0.1461,-0.112
3855,1070,868,34.136,30.451,0.068,-0.0296,9.7688,-0.1235,-1.0521,-0.4999
3860,1062,870,34.168,30.48,-0.0736,0.0039,9.7478,0.1979,-0.0503,0.4096
3865,1060,864,34.129,30.407,0.035,0.0026,9.7074,-0.0886,-0.1119,-0.1217
3870,1067,862,34.157,30.447,-0.0277,0.0167,9.8009,0.7974,-0.7768,-0.4734
3875,1045,863,34.212,30.363,-0.027,-0.0291,9.7307,0.0331,-0.262,-0.2226
3880,1051,864,34.15,30.482,-0.0203,0.0086,9.8375,-0.0341,-0.4283,-0.4183
3885,1052,866,34.16,30.369,-0.0392,0.0762,9.7904,-0.1456,-0.0285,-0.2222
3890,1039,862,34.161,30.433,-0.0297,0.0064,9.7938,-0.908,0.3852,-0.627
3895,1030,863,34.104,30.508,-0.0182,-0.0361,9.7978,-0.4585,1.6249,-0.1236
3900,1024,858,34.13,30.499,-0.0258,0.0571,9.7365,-1.0132,-0.3511,0.0275
3905,1022,853,34.226,30.506,-0.064,-0.0706,9.7627,0.6335,0.1283,-0.1508
3910,1007,853,34.169,30.458,-0.0004,-0.0269,9.9169,-0.2583,-0.1662,-0.0255
3915,1018,856,34.103,30.48,0.0193,-0.0631,9.8074,0.5175,-0.1107,0.1853
3920,1013,847,34.088,30.474,-0.0443,-0.0516,9.8371,0.344,0.3418,0.4035
3925,990,849,34.202,30.533,-0.0559,0.0755,9.8129,0.084,0.2168,0.3582
3930,986,851,34.085,30.463,-0.0843,-0.0812,9.7568,-0.6946,-0.8072,0.2693
3935,975,848,34.085,30.46,0.0713,-0.0214,9.8293,-0.1556,-0.6091,0.0711
3940,974,846,34.108,30.428,0.0047,0.0342,9.8186,0.3386,-0.1128,0.4639
3945,956,840,34.08,30.498,0.0674,0.0125,9.8377,-0.406,0.9419,0.3309
3950,959,849,34.108,30.482,0.033,-0.0401,9.7633,0.4229,0.0075,-0.1447
3955,940,846,34.094,30.534,0.0807,0.0198,9.893,0.3797,-0.6374,-0.2171
3960,939,848,34.211,30.373,0.057,-0.0372,9.8396,0.2702,-0.8085,-0.5682
3965,920,839,34.138,30.435,0.0041,-0.0549,9.7929,0.0471,-0.269,-0.3338
3970,923,837,34.098,30.483,0.0691,-0.0217,9.7606,-0.8944,0.6295,0.4455
3975,902,837,34.129,30.487,-0.0439,-0.0551,9.8074,-0.6256,-0.2714,0.2358
3980,894,840,34.288,30.382,0.0662,-0.0807,9.8251,0.2936,-0.0775,-0.6911
3985,889,835,34.06,30.389,0.0271,-0.0626,9.8654,1.0765,0.5767,-0.0089
3990,878,840,34.09,30.539,-0.025,-0.0214,9.926,-0.0503,0.0035,0.5853
3995,871,835,34.147,30.481,0.0131,0.0029,9.8357,0.1437,-0.879,0.5257
4000,854,834,34.135,30.485,0.0045,0.1007,9.808,-0.6135,-0.2247,0.8488
4005,847,837,34.115,30.441,0.062,0.0019,9.8986,-0.5509,0.6067,0.4691
4010,837,831,34.182,30.442,0.0535,-0.0665,9.7902,-0.0302,-1.094,-0.5311
4014,835,828,34.19,30.396,0.0338,0.0452,9.8358,0.3957,-0.1802,-0.1277
4019,806,831,34.18,30.517,0.0209,0.0273,9.7945,-0.1966,-0.6856,0.5161
4025,816,834,34.193,30.527,0.0035,0.0097,9.7185,-0.7948,1.1254,-0.7638
4030,802,829,34.156,30.425,0.0035,-0.0504,9.7947,0.2332,-0.4068,-1.0137
4035,791,826,34.1,30.362,0.05,0.0098,9.8042,0.7393,0.0572,0.5935
4040,792,829,34.139,30.483,-0.0426,0.0153,9.8922,-0.8356,-0.3615,0.7109
4045,782,818,34.136,30.392,-0.0776,0.0548,9.7358,0.8164,-0.2195,1.5479
4050,773,833,34.018,30.458,-0.0071,-0.0103,9.7803,0.0828,1.06,0.0923
4054,763,826,34.099,30.483,-0.0797,-0.0859,9.9118,0.1767,0.7018,-0.134
4059,757,823,34.199,30.346,0.0978,0.0498,9.8166,0.7281,-0.315,-0.956
4065,750,821,34.094,30.49,-0.0156,0.0302,9.7799,-0.4995,-0.3841,-0.9966
4070,747,818,34.135,30.478,-0.0104,0.0343,9.7983,-0.3273,-0.697,0.3303
4075,752,818,34.05,30.471,-0.064,-0.0292,9.8742,-0.1788,0.4882,-0.4962
4080,751,816,34.113,30.423,0.0083,-0.0096,9.8411,-1.1791,-0.0472,0.1158
4085,750,809,34.121,30.371,-0.0175,0.0715,9.7923,-0.1939,0.2293,-0.1856
4090,751,812,34.206,30.39,0.109,0.0277,9.7881,0.3699,-0.359,0.229
4094,750,810,34.14,30.447,0.0606,0.0156,9.7995,0.781,0.2032,0.4947
4100,748,812,34.172,30.516,-0.041,-0.0648,9.8263,-0.2512,0.4571,-0.3373
4105,753,810,34.098,30.45,0.0846,0.0784,9.8711,-0.3828,-0.2264,0.7432
4110,755,807,34.034,30.379,-0.0534,-0.0352,9.8324,-0.1978,-0.7271,-0.1088
4115,760,799,34.171,30.401,-0.0271,-0.0592,9.875,0.3081,-0.8471,0.301
4120,765,801,34.155,30.396,0.0622,0.0211,9.8483,0.6015,-0.0874,-0.2081
4125,761,797,34.138,30.464,-0.0077,0.036,9.8591,0.0784,0.7642,0.062
4130,777,796,34.251,30.439,0.0074,-0.0419,9.7809,0.3927,-0.4381,0.0986
4135,777,795,34.112,30.435,0.0258,0.0845,9.7678,0.0161,0.0565,0.4054
4140,784,788,34.12,30.474,0.1131,-0.0278,9.7197,0.2784,0.0268,0.5185
4145,801,786,34.211,30.49,-0.078,0.0567,9.7689,-0.4669,-0.1195,-0.5657
4150,806,777,34.136,30.456,0.006,-0.0858,9.8032,0.1884,0.8452,-0.4881
4155,813,781,34.109,30.461,0.0268,0.1422,9.8757,-0.2781,0.3731,0.2787
4160,823,781,34.106,30.504,0.0283,0.0096,9.8636,-0.0083,-1.3405,0.3274
4165,834,775,34.123,30.442,0.1051,0.0875,9.816,0.0737,-0.8829,0.4264
4170,848,769,34.127,30.411,-0.0709,0.0291,9.8621,-0.5066,-0.1005,0.0759
4175,860,770,34.124,30.463,-0.048,-0.0139,9.7637,0.0718,-0.211,0.4991
4180,876,767,34.065,30.4,-0.1026,0.0883,9.8525,-0.4767,-0.044,-0.2822
4185,890,760,34.198,30.421,0.0565,-0.0308,9.8024,-0.6735,0.4926,-0.3709
4190,903,752,34.168,30.57,0.0822,0.0483,9.6782,-0.538,0.4425,-0.4132
4195,903,752,34.226,30.48,-0.0053,-0.0184,9.7708,-0.2114,-0.4414,0.1704
4200,931,746,34.242,30.457,0.0116,0.0189,9.8011,0.6259,-0.5368,-0.2623
4205,936,744,34.11,30.408,-0.0428,0.1235,9.8219,-0.5566,0.9646,-0.4435
4210,954,746,34.17,30.512,0.0441,-0.0073,9.8144,-0.1281,0.731,-0.109
4215,972,734,34.121,30.511,0.0044,0.0241,9.805,-0.331,0.1563,-0.0316
4220,982,737,34.11,30.389,0.1103,0.0213,9.7861,-0.5061,-0.2722,0.3536
4225,984,729,34.144,30.481,-0.0242,0.0155,9.7266,0.1077,0.9746,-0.0137
4230,1010,731,34.149,30.496,-0.0714,0.0065,9.8306,-0.4355,-0.1883,-0.5324
4235,1023,726,34.151,30.396,-0.0258,-0.0154,9.8737,-0.2401,-1.0628,0.1115
4240,1035,728,34.138,30.451,-0.028,-0.0141,9.8151,0.1393,-0.706,0.8534
4245,1035,719,34.125,30.504,-0.0026,0.0185,9.8532,-0.1728,0.4131,0.3013
4250,1058,724,34.171,30.431,0.0326,-0.0394,9.7281,0.6802,0.6819,-0.4835
4255,1063,719,34.213,30.434,0.0534,-0.0468,9.7422,-0.0375,0.1763,-0.5143
4260,1081,715,34.075,30.482,-0.0227,-0.0241,9.7305,0.9707,-0.0023,-0.085
4265,1099,718,34.124,30.521,-0.0549,-0.0847,9.6765,-0.3541,-0.1448,-1.0513
4270,1105,716,34.186,30.434,-0.051,0.1049,9.7614,-0.1171,0.4437,0.3915
4275,1121,714,34.098,30.412,0.0252,0.0062,9.8555,-0.5553,0.719,-0.2916
4280,1118,716,34.164,30.508,-0.1061,0.0207,9.9641,-0.5558,-0.1711,-0.3158
4285,1129,713,34.113,30.476,-0.0753,-0.0437,9.6826,-0.5571,-0.0299,-0.2762
4290,1146,712,34.137,30.46,-0.0017,0.0525,9.8392,0.515,0.0052,0.3476
4295,1149,711,34.096,30.458,0.021,-0.0145,9.8,-0.177,0.5972,-0.2691
4300,1153,709,34.195,30.464,-0.0142,0.1028,9.7721,0.1329,0.5256,-0.3645
4305,1163,714,34.165,30.431,0.0157,-0.0082,9.8494,0.8313,-0.1923,0.4677
4310,1162,711,34.079,30.353,0.0208,-0.0082,9.7639,0.2081,-0.3787,-0.0685
4315,1172,715,34.186,30.539,-0.114,0.0645,9.9023,0.7827,1.1041,-0.071
4320,1167,723,34.143,30.537,-0.0075,0.0378,9.8195,-0.9914,0.4442,-0.3174
4325,1184,713,34.241,30.45,0.0185,-0.0436,9.8545,-0.1977,-0.853,0.2163
4330,1186,715,34.174,30.476,0.0237,-0.0175,9.7196,0.2391,-0.2642,0.025
4335,1189,723,34.108,30.495,-0.0841,-0.0336,9.8116,0.4652,-0.4927,-0.1888
4340,1187,725,34.279,30.467,-0.0538,-0.0107,9.7426,-0.129,-0.3841,-0.3304
4345,1193,734,34.122,30.502,0.0106,-0.0143,9.8201,-0.6182,-0.3521,0.1038
4350,1186,731,34.167,30.455,0.0298,-0.0191,9.7272,-0.3594,-0.4341,-0.421
4355,1191,738,34.142,30.41,-0.0698,0.0966,9.7585,-0.5323,0.1726,-0.1815
4360,1177,737,34.104,30.459,0.0651,-0.0103,9.7093,-0.1354,0.6561,-0.0521
4365,1195,740,34.258,30.439,0.0267,0.0781,9.7973,0.2731,-0.1759,-0.1674
4370,1183,740,34.157,30.525,-0.0545,-0.0854,9.8277,0.4834,0.0119,-0.3355
4375,1178,754,34.138,30.483,0.0305,-0.0121,9.8508,-0.0262,0.0162,-0.3357
4380,1172,755,34.177,30.422,0.0508,-0.0568,9.7471,1.1064,0.7194,0.2444
4385,1184,761,34.144,30.466,0.0131,0.0444,9.7909,0.1091,-0.501,0.3236
4390,1168,768,34.18,30.44,-0.0233,0.0356,9.7779,0.6005,-0.3536,0.2244
4395,1174,766,34.152,30.451,0.0644,0.0339,9.7723,-0.1882,-0.422,0.3808
4400,1168,777,34.065,30.53,-0.0378,-0.0438,9.7734,-0.4613,-0.249,-0.243
4405,1166,772,34.087,30.423,-0.0033,0.006,9.8399,0.9378,0.317,-0.1385
4410,1161,786,34.202,30.443,0.0014,-0.0734,9.7278,0.2731,0.2192,-0.1965
4415,1164,784,34.152,30.403,0.0372,-0.0311,9.8593,0.3191,0.5438,0.0289
4420,1160,794,34.147,30.483,0.034,-0.0129,9.8278,-0.3611,-0.0487,0.8108
4425,1150,798,34.119,30.591,-0.0796,0.0608,9.8822,-0.305,-0.1741,-0.1599
4430,1159,797,34.111,30.428,0.0034,-0.0033,9.8011,0.3562,0.0482,-0.6285
4435,1145,811,34.157,30.585,-0.0056,-0.0357,9.901,-0.6796,-0.2718,-0.3634
4440,1145,808,33.999,30.426,0.018,-0.0185,9.8562,-0.7703,-0.3303,0.0586
4445,1140,816,34.16,30.455,-0.0183,-0.0043,9.7866,-0.5099,-0.0024,0.576
4450,1142,819,34.212,30.492,-0.0516,0.0239,9.7833,0.1008,0.4768,-0.8366
4455,1138,821,34.153,30.56,-0.003,-0.0015,9.836,-0.3456,-0.0121,0.5368
4460,1123,831,34.105,30.508,-0.024,0.0017,9.8114,0.7783,0.265,-0.169
4465,1130,836,34.133,30.442,0.0825,0.0019,9.8268,1.1189,0.2681,-0.3006
4470,1120,835,34.164,30.487,-0.067,-0.023,9.8224,-0.4184,-0.8497,-0.5887
4475,1115,840,34.035,30.502,-0.0464,-0.0358,9.8065,0.1059,0.4283,0.2828
4480,1106,839,34.245,30.48,-0.1064,0.0839,9.8084,0.3188,-0.2121,0.6424
4485,1115,843,34.123,30.486,0.0695,0.111,9.7611,1.0905,0.4976,-0.685
4490,1100,848,34.188,30.517,-0.0537,0.052,9.7875,-0.259,0.9152,1.2139
4495,1105,850,34.203,30.457,0.033,0.0628,9.8184,-1.14,0.0509,0.3805
4500,1109,855,34.222,30.553,0.1164,-0.03,9.8586,-0.2285,0.5249,-0.1983
4505,1110,858,34.087,30.338,0.0105,-0.0644,9.8347,0.0715,-0.2615,0.9252
4510,1094,855,34.072,30.523,0.0242,-0.0071,9.8638,-0.2431,-0.1486,0.4309
4515,1103,859,34.151,30.448,-0.1023,0.0167,9.7468,-0.1149,0.3297,-0.1093
4520,1096,861,34.097,30.449,0.0325,-0.0793,9.806,-0.6008,0.2805,-0.3067
4525,1087,863,34.164,30.547,-0.0519,-0.0536,9.8422,-0.311,0.0495,0.0545
4530,1092,861,34.134,30.506,0.0506,-0.0071,9.7357,0.0506,-1.0275,-0.1488
4535,1080,867,34.178,30.455,0.0625,0.0064,9.7874,0.0618,0.8474,-0.4038
4540,1082,871,34.217,30.513,0.0092,0.0652,9.8147,-0.5109,0.5062,-0.3798
4545,1081,869,34.135,30.496,-0.0029,-0.0244,9.7997,-0.5445,-0.8687,0.4851
4550,1069,862,34.133,30.536,0.0482,0.025,9.8445,0.6202,0.4229,-0.2379
4555,1072,870,34.09,30.496,0.0516,0.0283,9.8571,0.3655,-0.2638,-0.5366
4560,1072,866,34.157,30.43,-0.0427,-0.0238,9.7398,0.1584,0.5468,-0.4897
4565,1060,862,34.175,30.457,-0.0324,0.0143,9.8046,0.4475,-0.2124,0.6288
4570,1057,862,34.137,30.47,0.0205,-0.0319,9.7954,0.7164,0.3027,-0.3425
4575,1060,864,34.091,30.466,0.0541,-0.0715,9.847,0.2254,0.1811,0.2459
4580,1058,865,34.169,30.437,0.0486,0.0908,9.8257,0.3729,0.3972,-0.1684
4585,1055,864,34.137,30.409,0.073,-0.012,9.8123,-0.8215,0.3766,1.0742
4590,1054,861,34.182,30.564,0.103,-0.1182,9.765,0.9729,-0.582,-0.5868
4595,1044,863,34.162,30.451,-0.0401,0.0267,9.8405,0.7462,-0.0902,0.0488
4600,1034,868,34.187,30.549,0.0459,-0.0004,9.85,-0.1489,-0.2522,-1.1493
4605,1034,857,34.162,30.453,0.0488,0.0151,9.8646,-0.642,-0.2996,0.0725
4610,1028,862,34.165,30.469,-0.0517,-0.0664,9.7877,0.4772,-0.4417,-0.9404
4615,1024,858,34.101,30.41,0.056,0.0665,9.9241,-0.4377,-0.5742,-0.5173
4620,1010,851,34.124,30.425,-0.0394,0.0254,9.7994,-0.1305,0.4403,-0.0735
4625,1007,856,34.063,30.497,0.0041,0.0493,9.8083,1.1332,-0.1868,0.4239
4630,1003,848,34.083,30.492,0.049,-0.0291,9.7135,0.7317,-0.395,-0.0832
4635,996,846,34.103,30.451,0.0443,0.0261,9.8473,1.3726,-0.0604,0.6519
4640,983,851,34.177,30.558,-0.0017,0.0332,9.8477,0.1884,0.3401,-1.0146
4645,973,847,34.022,30.401,-0.0265,0.0971,9.7464,0.4674,0.3033,-0.3818
4650,974,854,34.099,30.429,0.0008,0.0641,9.7944,0.4086,-0.1794,-0.1055
4655,961,845,34.123,30.437,0.0524,0.0017,9.8903,-0.3837,-0.5037,0.4197
4660,940,846,34.185,30.434,0.0574,-0.0462,9.8624,0.1934,0.0814,-0.8423
4665,937,844,34.115,30.469,-0.0191,0.0377,9.8208,-0.4971,0.5268,-0.2519
4670,930,849,34.147,30.373,0.0096,-0.0324,9.8315,0.759,0.1674,0.6601
4675,926,841,34.19,30.406,-0.0078,-0.0174,9.7768,0.2335,0.2898,0.2248
4680,912,839,34.096,30.413,0.0063,0.0029,9.8772,0.3363,-0.434,-0.4023
4685,899,841,34.141,30.52,0.0167,0.07,9.8049,-0.7244,0.0186,-0.3919
4690,896,836,34.093,30.522,0.0904,-0.0475,9.7312,-0.5184,0.0777,-0.8736
4695,896,839,34.197,30.603,-0.0016,0.0364,9.7889,0.5398,0.7165,0.7128
4700,872,832,34.179,30.554,0.0066,-0.0519,9.7878,0.0047,-0.5336,0.0276
4705,868,836,34.182,30.497,0.0476,0.0278,9.8781,0.2932,-0.012,-0.7341
4710,859,835,34.15,30.344,0.0413,0.0525,9.8941,-0.0956,0.17,-0.2238
4715,841,837,34.132,30.373,0.0486,-0.1004,9.8091,0.5305,0.0215,0.7605
4720,826,834,34.194,30.471,-0.0311,-0.0833,9.8721,-0.4084,0.2061,-0.2309
4725,818,834,34.178,30.51,0.0403,0.0435,9.8841,0.0595,-0.486,-0.1241
4730,821,831,34.149,30.542,0.0489,-0.0068,9.8316,0.0097,0.5314,0.146
4735,802,830,34.13,30.42,0.0496,0.013,9.8486,-0.6066,0.3694,0.1267
4740,790,827,34.161,30.5,-0.0148,-0.0003,9.8217,0.393,-0.3579,-0.7315
4745,801,825,34.154,30.46,-0.0299,-0.0308,9.7924,-0.243,0.3067,0.6878
4750,782,825,34.169,30.432,-0.0073,-0.1225,9.7451,0.046,-1.1345,0.8549
4755,779,821,34.092,30.501,-0.026,0.0952,9.8602,0.1977,-0.2038,-0.3347
4760,766,826,34.135,30.516,0.0211,0.0383,9.7766,0.2948,0.0664,-0.4764
4765,754,819,34.133,30.446,-0.0315,0.1192,9.8549,-0.2041,-0.1982,0.1455
4770,771,823,34.133,30.531,-0.0439,0.0907,9.8447,-0.2355,0.4898,-0.2005
4775,754,825,34.113,30.538,0.0368,0.0483,9.8458,-0.0358,-0.2841,0.9772
4780,752,827,34.109,30.537,-0.0256,0.0061,9.7547,0.1051,-1.2361,0.6866
4785,747,816,34.026,30.447,0.0235,-0.047,9.8558,0.3333,0.0676,-0.1514
4790,745,816,34.173,30.578,-0.1072,-0.0691,9.8135,0.1013,0.3333,-0.1891
4795,738,814,34.16,30.495,0.0008,0.001,9.7476,-0.4688,-0.7117,0.5895
4800,747,816,34.17,30.479,0.0357,-0.0327,9.8125,0.4961,-0.1386,-0.3598
4805,739,808,34.158,30.621,0.0221,0.0895,9.8319,0.1389,-0.7511,0.6421
4810,741,807,34.136,30.365,0.0262,0.0029,9.7564,-1.1022,0.7887,0.1245
4815,757,803,34.201,30.475,-0.0235,0.0509,9.861,0.0163,0.0017,-0.0777
4820,766,807,34.122,30.462,-0.0222,-0.0334,9.7488,0.4809,0.2877,0.0198
4825,760,802,34.248,30.385,0.0417,0.0022,9.7891,-0.3792,0.3037,0.7481
4830,764,798,34.125,30.473,0.0426,-0.0615,9.7268,0.2421,0.2267,0.7034
4835,772,796,34.186,30.475,0.0829,0.0032,9.8239,-0.0256,-0.1191,-0.3536
4840,770,793,34.169,30.468,0.0132,-0.0017,9.8492,-0.0958,0.2009,-0.0294
4845,785,787,34.137,30.346,0.0334,-0.0499,9.8394,0.4754,0.1705,0.4341
4850,793,790,34.115,30.534,0.0247,0.0789,9.8787,-0.9251,-0.0157,-0.2755
4855,801,787,34.2,30.54,0.03,-0.059,9.8036,-0.2599,-0.0999,0.4683
4860,812,781,34.141,30.463,-0.027,0.0436,9.7847,-1.1044,0.8074,-0.3896
4865,823,775,34.108,30.415,-0.0621,0.0047,9.787,0.4978,-0.644,0.4304
4870,833,779,34.099,30.513,-0.0566,0.0271,9.7338,0.3671,0.1529,0.1744
4875,847,772,34.118,30.468,0.0051,-0.0513,9.7648,-0.6476,0.1726,0.5599
4880,855,767,34.057,30.444,-0.0321,0.044,9.7899,-0.2644,-0.4066,0.2047
4885,867,772,34.23,30.476,0.0493,-0.1038,9.7893,-0.2635,-0.3876,-0.076
4890,874,758,34.075,30.535,0.0059,-0.0483,9.8095,0.545,-0.3278,0.1814
4895,892,758,34.21,30.422,-0.0339,0.0399,9.7725,0.1922,-0.0238,-0.173
4900,908,756,34.206,30.491,0.0187,0.0475,9.8355,-0.1932,-0.3786,-0.7628
4905,919,753,34.08,30.557,0.0821,0.0268,9.8717,-0.0536,-0.1101,0.3296
4910,933,750,34.125,30.483,-0.0056,0.0722,9.8207,-0.8302,0.1734,-0.3189
4915,940,747,34.139,30.526,0.0818,-0.0011,9.8184,-0.038,0.1594,-0.4637
4920,958,742,34.06,30.502,0.0886,0.0093,9.794,-1.0335,0.6861,-0.0137
4925,969,736,34.044,30.5,-0.0113,0.0048,9.8751,0.0017,0.5435,0.148
4930,994,733,34.096,30.486,-0.0624,-0.0609,9.8002,-1.2057,0.1667,-0.0625
4935,1002,728,34.071,30.527,0.0383,-0.0194,9.7974,0.051,-0.6459,1.2811
4940,1018,726,34.249,30.429,0.044,-0.0067,9.8744,0.1736,0.685,0.1457
4945,1037,728,34.15,30.57,-0.1441,-0.0637,9.8293,-0.4927,0.4733,0.6079
4950,1041,725,34.127,30.488,-0.0005,0.0328,9.8199,-0.6808,-0.6801,-0.3573
4955,1057,721,34.09,30.43,0.0458,0.0176,9.7665,0.197,-0.1528,0.5706
4960,1067,721,34.138,30.467,0.0178,-0.0056,9.804,-0.4776,0.2691,0.762
4965,1074,716,34.125,30.456,0.0444,0.0867,9.8395,-0.0836,-0.6658,-0.3662
4970,1088,718,34.15,30.529,0.0891,-0.0084,9.8369,-0.2166,-0.0348,0.1118
4975,1100,712,34.121,30.468,0.0039,-0.0134,9.8327,-0.1544,-0.1332,-0.4586
4980,1108,714,34.233,30.482,-0.0052,-0.1089,9.9222,0.4095,-0.6775,-1.4183
4985,1114,712,34.143,30.464,0.0074,0.0025,9.8441,-0.2266,1.3412,0.1216
4990,1127,712,34.076,30.412,0.0598,-0.04,9.7461,0.2962,-0.103,-0.608
4995,1143,710,34.138,30.462,0.0151,0.0516,9.8217,-0.5325,0.0672,-0.2766
5000,1139,711,34.221,30.462,-0.0622,0.0623,9.8328,-0.2657,0.6258,-0.4744
5005,1154,713,34.192,30.531,0.0347,0.0394,9.8845,0.031,0.5393,-0.4212
5010,1163,716,34.169,30.478,-0.0178,0.0816,9.7817,0.5881,0.1658,0.2052
5015,1163,714,34.113,30.464,0.0223,0.0213,9.7432,0.0152,0.3337,0.0254
5020,1180,715,34.188,30.418,-0.0146,-0.0844,9.8532,0.1419,-0.4337,-0.6064
5025,1180,718,34.145,30.476,-0.0233,-0.112,9.8322,0.4675,1.0733,-0.4195
5030,1174,717,34.134,30.486,0.0463,-0.0277,9.891,-0.603,-0.5973,-0.4091
5035,1191,715,34.098,30.436,0.0212,0.0181,9.8108,0.419,0.2392,0.6083
5040,1178,722,34.116,30.596,-0.037,-0.0306,9.8756,0.8591,0.7249,0.5754
5045,1186,722,34.124,30.473,-0.0925,0.0498,9.8092,-0.1393,0.0143,-0.3351
5050,1186,730,34.061,30.517,-0.031,0.0048,9.8544,-0.05,-0.0045,0.1559
5055,1181,730,34.083,30.535,0.0297,-0.1062,9.8754,0.6271,-0.928,-0.452
5060,1182,735,34.169,30.422,0.0306,0.0872,9.8565,0.0513,-0.3055,0.6495
5065,1183,737,34.07,30.562,-0.0607,-0.0209,9.6958,-0.2229,-0.4542,-0.7275
5070,1187,744,34.16,30.497,-0.061,0.0006,9.8427,-0.6999,-0.8276,-1.0396
5075,1184,746,34.08,30.473,0.0846,-0.0796,9.7939,-0.0893,0.0687,-0.6711
5080,1182,749,34.084,30.496,0.009,0.0593,9.8245,-0.0017,0.6146,-0.6925
5085,1189,751,34.158,30.465,0.0525,-0.042,9.8161,-0.1973,-0.5732,0.9208
5090,1177,757,34.144,30.476,0.0413,-0.0283,9.733,0.1084,0.5957,-0.2557
5095,1181,762,34.193,30.503,-0.0422,0.0245,9.8907,0.1397,0.1496,0.1296
5100,1176,764,34.079,30.445,0.0812,0.0338,9.8705,0.2444,0.2096,-1.3699
5105,1166,771,34.207,30.49,0.0357,-0.0002,9.8242,0.3451,-0.2272,0.1243
5110,1165,782,34.143,30.522,-0.0152,0.0042,9.801,0.1276,-0.0368,1.4325
5115,1164,786,34.155,30.474,-0.0008,0.0297,9.8596,0.1427,-0.6558,1.2577
5120,1169,790,34.06,30.433,-0.0207,0.0164,9.7759,0.5836,-0.9466,0.2038
5125,1154,799,34.131,30.4,-0.0952,0.005,9.8777,-0.4809,0.287,0.2782
5130,1151,797,34.181,30.396,-0.0659,0.0801,9.6958,-0.5584,0.1026,-0.4411
5135,1143,800,34.135,30.529,-0.0294,-0.0435,9.7845,-0.4511,-0.1801,0.1464
5140,1146,806,34.153,30.495,0.0327,0.0045,9.826,0.1549,-0.7217,0.0173
5145,1145,811,34.14,30.503,0.0003,-0.0182,9.7621,-0.0692,-0.5841,0.2913
5150,1140,815,34.016,30.472,0.0186,0.0931,9.7882,0.0403,-0.6177,1.127
5155,1142,822,34.102,30.404,0.0195,-0.0396,9.7776,-0.0838,-0.5728,-0.6134
5160,1122,823,34.184,30.479,-0.0484,0.0598,9.7928,-0.5345,-0.3176,0.2716
5165,1117,824,34.205,30.49,0.0456,0.0077,9.7776,0.002,-0.0352,0.0614
5170,1128,831,34.21,30.579,0.0065,-0.0147,9.7664,1.008,0.5455,-0.4416
5175,1125,838,34.082,30.464,-0.0281,-0.0801,9.7442,0.4517,-0.606,-0.1668
5180,1123,833,34.144,30.337,-0.0058,-0.044,9.7502,0.0149,-0.0569,-0.2573
5185,1110,832,34.135,30.483,-0.098,0.0041,9.8716,-0.9119,0.6188,0.3721
5190,1117,846,34.13,30.48,-0.0401,0.0163,9.8771,0.1224,0.9136,0.3984
5195,1113,845,34.218,30.56,0.0476,0.0857,9.8091,0.6741,0.8159,-0.2975
5200,1101,852,34.192,30.565,-0.0064,0.0518,9.8428,-0.461,-0.2754,-0.9115
5205,1119,852,34.268,30.396,0.0841,0.0336,9.8693,-0.6039,-0.4083,-0.5292
5210,1106,858,34.175,30.377,-0.1199,-0.0332,9.7696,0.2186,0.5835,0.2415
5215,1104,858,34.157,30.382,0.0012,0.0488,9.7875,-0.0716,-0.0605,0.1728
5220,1107,860,34.094,30.482,0.035,0.0417,9.8498,0.2335,0.7216,0.3155
5225,1097,853,34.186,30.489,0.057,-0.0289,9.8406,0.0418,1.0797,0.0406
5230,1086,863,34.095,30.43,0.0277,-0.0465,9.9262,0.2972,-1.0466,-0.4071
5235,1083,861,34.057,30.466,-0.0712,-0.013,9.8296,0.255,-0.3603,-0.6932
5240,1078,860,34.086,30.333,-0.0627,0.0085,9.8445,0.0988,-0.1626,0.1847
5245,1080,864,34.105,30.474,0.0197,0.0141,9.8095,0.4487,1.138,-0.2916
5250,1083,862,34.165,30.471,-0.0816,-0.0687,9.8169,0.6287,0.0567,-0.4337
5255,1077,868,34.203,30.51,0.0698,-0.0009,9.7836,0.4901,0.3199,-0.0986
5260,1074,868,34.069,30.441,0.0918,-0.0668,9.7802,-0.2469,0.2623,0.5341
5265,1078,867,34.177,30.35,0.013,0.0444,9.7295,-0.7939,0.737,0.7472
5270,1076,863,34.195,30.454,-0.0235,-0.0356,9.8764,-0.8532,0.0349,-0.4933
5275,1076,866,34.192,30.44,-0.0074,0.0006,9.8465,0.7203,0.0169,0.2268
5280,1068,870,34.075,30.415,-0.0607,-0.0088,9.7457,-0.1382,-0.8522,0.1257
5285,1060,866,34.256,30.448,0.0028,0.0032,9.8945,0.5583,-0.2039,-0.6896
5290,1048,868,34.188,30.512,-0.0378,0.0251,9.8643,-0.4373,-0.6747,0.3153
5295,1053,862,34.177,30.536,-0.0548,-0.1026,9.8174,0.3141,-0.1788,0.86
5300,1053,866,34.249,30.451,-0.0835,0.0406,9.7968,0.0454,-0.0993,0.3609
5305,1040,863,34.047,30.485,0.1019,-0.0173,9.76,0.5841,0.6252,-0.3767
5310,1032,863,34.091,30.48,0.0225,-0.066,9.7522,0.513,0.4257,0.0594
5315,1025,858,34.135,30.479,0.072,-0.0213,9.7364,0.4573,0.062,0.2792
5320,1024,860,34.179,30.54,0.0155,-0.0592,9.7997,0.5595,0.3775,0.1656
5325,1021,855,34.148,30.518,0.0172,-0.035,9.8282,0.6074,-0.2078,0.0001
5330,1013,852,34.177,30.461,-0.0403,-0.006,9.8311,0.1524,-0.3071,0.7063
5335,1005,856,34.263,30.381,-0.0672,-0.0074,9.7828,0.3335,-0.2578,-0.2119
5340,992,856,34.22,30.561,-0.0481,-0.0495,9.7167,-1.0885,0.3346,-0.0144
5345,994,855,34.225,30.346,-0.0518,-0.0129,9.7771,0.1987,1.4998,0.5742
5350,983,853,34.118,30.598,0.0089,0.0113,9.8446,0.3109,0.3113,0.1936
5355,975,848,34.144,30.439,-0.0456,0.0026,9.8092,-0.1944,0.8826,0.41
5360,969,852,34.158,30.506,-0.0758,-0.0134,9.8411,-0.5205,0.2837,-0.5772
5365,951,845,34.225,30.345,-0.0589,0.0166,9.8113,0.3612,-0.7055,0.4146
5370,943,845,34.148,30.483,0.0933,0.0268,9.8275,0.5424,-0.6012,-0.848
5375,943,842,34.255,30.474,-0.0137,0.0319,9.7455,-0.6187,-0.0374,-0.0941
5380,923,841,34.118,30.465,-0.0166,-0.0462,9.8016,-1.0742,0.354,0.0646
5385,918,844,34.118,30.374,0.0517,-0.0362,9.787,0.3244,0.2435,-0.0396
5390,902,838,34.165,30.511,-0.086,0.0288,9.7977,-0.7988,0.0218,0.372
5395,898,838,34.252,30.468,0.002,-0.0176,9.792,0.8735,0.3827,0.6759
5400,889,835,34.179,30.432,-0.081,0.0474,9.7973,0.283,0.2116,-0.6768
5405,873,833,34.197,30.465,-0.0129,-0.0463,9.7836,0.1229,0.1291,0.4677
5410,864,838,34.115,30.414,0.1179,0.1558,9.8369,-0.5543,-0.3243,-0.3483
5415,862,833,34.059,30.563,0.0577,-0.0436,9.7284,0.5985,-0.054,0.3581
5420,839,834,34.075,30.514,-0.0366,-0.0055,9.8019,-1.3085,-0.9385,0.6949
5425,833,834,34.11,30.453,-0.0293,-0.0709,9.7728,0.416,0.2599,-0.0752
5430,823,829,34.144,30.434,-0.0218,0.0271,9.8123,-0.0173,-0.1053,0.5322
5435,827,832,34.15,30.435,0.0787,-0.0084,9.812,0.1241,0.4452,-0.7448
5440,806,830,34.11,30.45,0.0124,0.0762,9.8183,0.1495,-0.1879,-0.3323
5445,794,829,34.198,30.459,-0.0001,0.0255,9.8062,0.288,-0.749,-0.2069
5450,791,821,34.115,30.349,0.0206,0.0274,9.7971,0.0691,0.3054,-0.4272
5455,786,829,34.122,30.519,-0.008,0.0764,9.7485,0.1214,0.4194,0.3047
5460,776,833,34.089,30.479,0.018,-0.013,9.8566,-0.5085,-0.9869,0.589
5465,772,826,34.193,30.443,-0.0659,0.0057,9.6536,-0.0634,-0.3348,0.1892
5470,774,828,34.189,30.498,0.0561,0.0107,9.7536,-0.2459,-0.3428,0.7265
5475,769,828,34.039,30.459,-0.0122,0.002,9.8056,-0.3991,0.6067,-0.2788
5480,756,824,34.191,30.449,0.0212,-0.0133,9.8159,0.7994,-0.8498,-0.8621
5485,742,821,34.123,30.4,0.0634,-0.0306,9.7709,0.3405,-0.1878,0.3018
5490,746,821,34.206,30.484,0.0591,-0.0521,9.8563,-0.2822,-0.4339,-0.8862
5495,750,818,34.136,30.444,-0.0338,-0.0821,9.7811,0.4564,-0.6543,-0.3416
5500,758,819,34.184,30.467,0.0407,-0.0003,9.8132,0.6795,0.6773,-0.5328
5505,750,813,34.181,30.479,0.0127,0.0055,9.8277,0.4533,0.3028,0.2984
5510,752,808,34.134,30.436,-0.1011,-0.0099,9.8557,-0.773,0.5504,-0.5659
5515,745,811,34.174,30.447,-0.02,-0.1094,9.8148,0.1216,0.0185,-0.4275
5520,744,809,34.16,30.533,-0.0055,0.0073,9.8456,-0.3824,0.1861,-0.6131
5525,758,809,34.069,30.437,0.0112,-0.0107,9.8749,0.8814,0.0305,0.142
5530,759,805,34.154,30.466,0.0152,0.022,9.7183,0.9241,-0.2929,-0.0982
5535,762,802,34.144,30.517,-0.0278,-0.0308,9.8734,-0.2546,0.0769,0.1399
5540,776,798,34.18,30.488,-0.0518,-0.0273,9.7332,-0.5488,-0.0356,0.4223
5545,774,796,34.116,30.546,-0.0154,0.0296,9.8259,0.2438,-0.4447,0.3327
5550,776,794,34.101,30.409,-0.0248,0.0163,9.7239,0.4324,0.0809,-0.451
5555,789,789,34.054,30.465,0.0156,-0.0648,9.8369,0.0675,-0.079,0.8207
5560,798,787,34.087,30.514,-0.0288,-0.0075,9.8678,0.2897,0.7362,0.0087
5565,808,785,34.159,30.444,-0.0069,-0.0684,9.8203,-0.6716,0.2922,-0.8715
5570,814,778,34.199,30.557,-0.0099,0.0046,9.7415,0.6216,-0.2053,0.1782
5575,826,775,34.109,30.497,-0.0202,0.0344,9.8794,0.1547,1.0503,0.4233
5580,844,775,34.166,30.497,0.0789,-0.0305,9.9177,0.5793,-0.3801,0.0205
5585,851,770,34.164,30.512,-0.0373,-0.0048,9.822,0.5788,0.3118,0.1653
5590,864,768,34.175,30.544,0.033,-0.1552,9.8398,0.2599,0.4613,0.1135
5595,883,765,34.143,30.515,0.0666,-0.0607,9.822,0.2344,-0.6962,-0.9028
5600,894,757,34.129,30.528,0.0284,0.0116,9.8985,-0.3186,0.5436,0.0336
5605,896,752,34.157,30.505,0.0269,0.0177,9.7739,-0.8597,-0.3906,-0.0405
5610,918,753,34.149,30.542,0.0497,-0.0275,9.8727,0.8863,0.6698,-0.0798
5615,925,747,34.146,30.536,-0.0426,0.0994,9.7997,0.2932,-0.0938,-1.048
5620,941,744,34.179,30.429,0.0953,-0.038,9.8753,-0.1362,-0.0397,0.0903
5625,958,740,34.151,30.476,-0.1011,-0.007,9.7421,0.21,0.3951,-0.248
5630,969,737,34.18,30.47,-0.0101,0.0527,9.8551,-0.855,-0.264,0.5276
5635,988,733,34.098,30.52,0.0399,-0.0456,9.8006,-0.7286,0.1868,0.1209
5640,998,733,34.111,30.517,0.0733,0.0278,9.8351,-0.0286,0.5204,-0.8002
5645,1009,732,34.186,30.433,0.0305,-0.0673,9.8625,-0.7557,-0.4669,0.0983
5650,1020,731,34.185,30.465,0.0569,-0.0453,9.7961,0.3406,-0.7817,-0.27
5655,1035,727,34.176,30.531,0.0078,-0.0163,9.8451,-0.3614,-0.321,0.1925
5660,1043,723,34.183,30.44,0.1241,-0.0633,9.7809,0.3995,-0.1363,0.7634
5665,1063,720,34.104,30.543,0.037,0.0774,9.8223,-0.0182,-0.1755,0.3621
5670,1068,715,34.158,30.52,0.0471,-0.1048,9.8404,-0.2397,-0.0062,0.2294
5675,1073,720,34.206,30.495,-0.0491,-0.048,9.7933,-0.4072,0.4649,0.0388
5680,1086,711,34.205,30.392,-0.0003,0.0844,9.7689,0.5606,0.1782,-0.3124
5685,1106,714,34.046,30.478,0.0621,0.0316,9.8568,-0.2491,-1.4196,-0.1968
5690,1112,716,34.181,30.467,-0.0536,0.0786,9.7782,-0.2119,0.5738,0.3984
5695,1113,714,34.175,30.517,-0.0076,0.0713,9.8397,-0.3685,0.5773,-0.0589
5700,1132,709,34.176,30.383,-0.0989,0.0549,9.8137,0.5828,0.2558,-0.2552
5705,1138,715,34.094,30.469,0.0242,0.01,9.7634,0.1091,-0.0707,-0.0676
5710,1140,714,34.109,30.491,-0.0376,-0.0188,9.7906,-0.6665,-0.6959,0.0701
5715,1159,710,33.995,30.439,0.0145,-0.0315,9.8824,0.6087,-0.2329,0.1476
5720,1171,709,34.07,30.503,0.1014,-0.0031,9.8408,0.0342,0.1534,-0.6342
5725,1172,712,34.198,30.495,-0.0453,0.0752,9.8598,-0.7525,-0.0261,-0.2281
5730,1177,710,34.131,30.491,-0.0168,-0.0696,9.8418,0.9903,-0.3946,0.5005
5735,1174,717,34.192,30.519,0.0123,0.0348,9.905,-0.0743,0.2258,-0.176
5740,1178,716,34.175,30.493,0.0719,0.0144,9.8438,-0.8225,-0.227,0.2695
5745,1174,721,34.251,30.44,0.0097,-0.0232,9.866,0.5071,-0.0068,0.4993
5750,1183,727,34.153,30.476,-0.0167,0.0584,9.9014,-0.2503,0.7187,-0.1656
5755,1185,720,34.082,30.405,0.0312,0.0292,9.844,0.5688,-0.3734,0.2831
5760,1180,733,34.24,30.529,-0.0635,0.0786,9.8524,-0.3671,-0.5364,-0.3845
5765,1188,733,34.133,30.478,-0.0054,0.0502,9.7392,0.9017,0.0388,0.6777
5770,1186,737,34.202,30.495,-0.0177,0.033,9.7993,0.1302,-0.8656,-0.0847
5775,1192,737,34.144,30.395,-0.0605,-0.0003,9.8337,-0.4636,-0.1661,-0.3216
5780,1190,745,34.145,30.412,0.0039,-0.0527,9.8297,0.3894,-0.1118,-0.6894
5785,1184,745,34.148,30.468,0.0484,0.0216,9.7705,-0.5264,-0.084,0.5194
5790,1183,752,34.152,30.471,0.034,0.0485,9.8818,0.6606,0.1905,0.9141
5795,1183,758,34.156,30.473,-0.0428,0.0213,9.8555,-0.0165,0.0356,-0.498
5800,1177,763,34.127,30.46,-0.0606,-0.0407,9.8156,0.3007,-0.1215,0.317
5805,1174,767,34.095,30.419,0.0353,0.0637,9.762,0.1203,0.0381,-0.9089
5810,1173,773,34.127,30.623,0.1105,-0.052,9.8429,-0.1334,-0.463,0.1428
5815,1170,776,34.118,30.463,0.0128,-0.0473,9.7672,0.3468,-0.8571,0.5319
5820,1162,782,34.192,30.419,-0.027,0.0937,9.814,0.0296,-0.0856,0.2947
5825,1164,778,34.148,30.561,0.009,0.0791,9.7721,-0.5864,-0.3921,-0.238
5830,1169,784,34.128,30.446,-0.0381,0.0058,9.7898,-0.4759,-0.0931,0.1834
5835,1159,798,34.154,30.407,-0.0269,-0.0476,9.7642,-0.683,-0.4429,-0.4536
5840,1152,798,34.19,30.394,-0.0182,-0.0213,9.7428,-0.1163,-0.2738,0.2496
5845,1154,804,34.237,30.461,-0.075,-0.0297,9.7921,0.1126,-1.1822,-0.0626
5850,1140,806,34.207,30.491,0.0492,-0.0152,9.8074,-0.0009,0.4109,0.2478
5855,1139,806,34.191,30.393,-0.0866,-0.0341,9.77,-0.2602,-0.4083,-0.07
5860,1132,814,34.098,30.437,0.0694,-0.01,9.8655,-0.5025,0.818,0.6077
5865,1133,821,34.164,30.483,0.0176,0.0575,9.8358,0.1919,0.4733,0.777
5870,1135,824,34.155,30.462,0.0006,-0.0375,9.8032,0.0337,-0.575,-0.4116
5875,1126,828,34.129,30.511,0.0205,0.0075,9.8625,0.4135,-0.0552,-0.4783
5880,1127,834,34.166,30.537,-0.0008,0.0035,9.8129,1.1624,-0.1212,0.0502
5885,1118,831,34.22,30.495,0.0839,-0.0681,9.7616,-0.0776,0.3086,0.4997
5890,1117,837,34.122,30.551,-0.0771,-0.0395,9.8121,-0.5223,0.7184,0.2782
5895,1108,836,34.19,30.482,0.0109,0.039,9.7688,0.5325,-1.0533,0.253
5900,1107,846,34.118,30.533,-0.0033,0.1032,9.8323,-0.2056,-0.3746,0.8932
5905,1115,853,34.167,30.475,0.0603,0.0474,9.8094,0.5489,0.2756,-0.3739
5910,1099,856,34.106,30.426,-0.0018,-0.0502,9.7577,0.5455,-0.0318,0.6956
5915,1107,854,34.062,30.474,-0.0264,-0.0415,9.8727,-0.3451,0.4209,-0.039
5920,1096,853,34.078,30.514,-0.0506,-0.0726,9.7973,0.3709,0.3953,-0.2984
5925,1100,862,34.128,30.49,-0.0727,0.0394,9.922,-0.0401,-0.0145,-0.2906
5930,1093,858,34.069,30.472,-0.0251,0.0146,9.7811,-0.3677,-0.1426,0.1251
5935,1104,864,34.058,30.492,-0.0288,0.007,9.7908,-1.8432,-0.0344,-0.0255
5940,1097,863,34.13,30.502,-0.0983,-0.0388,9.8068,-0.0598,0.4534,0.6125
5945,1088,866,34.145,30.536,-0.1135,0.0546,9.8918,-0.0559,0.2537,-0.3057
5950,1083,859,34.167,30.502,-0.1185,0.0514,9.866,0.051,-0.5832,-0.2848
5955,1078,864,34.193,30.456,0.0891,0.0356,9.7806,-0.4146,-0.3346,0.3564
5960,1077,869,34.13,30.474,0.0157,-0.0408,9.8078,-0.3305,0.6081,0.3402
5965,1069,861,34.152,30.502,0.0066,-0.0338,9.7801,-0.612,-0.8498,-0.135
5970,1075,868,34.205,30.501,0.0335,-0.0211,9.7821,-0.0423,0.6461,0.5355
5975,1069,868,34.134,30.516,-0.1117,-0.0171,9.8663,-0.0009,-1.0491,0.4507
5980,1075,864,34.257,30.513,0.0056,-0.036,9.7606,0.2655,-0.6962,-0.6812
5985,1071,867,34.176,30.342,-0.0031,0.1077,9.8152,-0.4263,-0.3583,-0.0343
5990,1055,864,34.128,30.554,-0.0082,0.0415,9.7778,-0.8366,-0.8352,0.9341
5995,1062,861,34.209,30.552,-0.0457,-0.1,9.7946,0.0662,-0.9741,0.0618
6000,1047,862,34.169,30.424,-0.0799,0.0238,9.7913,0.2367,0.4892,0.1791
6005,1046,858,34.114,30.451,-0.0008,-0.0885,9.9015,-0.3028,0.144,0.5569
6010,1041,860,34.137,30.49,0.0062,0.0548,9.746,-1.3465,-0.1658,0.4149
6015,1042,863,34.159,30.427,-0.0228,-0.0407,9.8665,-0.7138,-0.7427,0.4095
6020,1038,863,34.166,30.53,0.0068,0.0145,9.866,-0.0316,-0.0477,-1.0095
6025,1034,855,34.175,30.503,-0.0396,0.0488,9.754,0.1392,0.2727,-0.4744
6030,1019,852,34.149,30.385,0.0519,0.0963,9.8122,-0.1268,-0.3113,0.3837
6035,1012,856,34.114,30.425,-0.0468,-0.1263,9.7862,0.0382,0.1241,-0.05
6040,1013,853,34.248,30.442,0.0585,0.0549,9.7917,-0.3286,-0.382,0.1996
6045,1003,844,34.135,30.597,-0.0238,0.028,9.8554,-0.8518,-0.1341,-0.5798
6050,996,851,34.205,30.457,0.0855,0.0021,9.8342,-0.022,0.2822,-0.4415
6055,985,851,34.2,30.495,0.1134,0.0448,9.7859,0.9694,0.7269,0.045
6060,976,846,34.134,30.446,0.0254,-0.0131,9.784,-0.0104,-1.0192,-0.0624
6065,969,844,34.146,30.497,0.0109,0.0123,9.7461,-0.2328,-0.4121,0.5998
6070,955,845,34.139,30.432,0.0051,0.1183,9.7784,-0.1552,-0.9148,0.2239
6075,955,842,34.208,30.432,-0.0256,0.0594,9.728,-0.0476,-0.2894,0.245
6080,945,842,34.166,30.569,0.0466,0.0092,9.8107,0.2387,-0.9851,0.0026
6085,926,838,34.104,30.522,-0.0553,-0.063,9.7536,0.1869,-0.4168,0.0033
6090,924,840,34.174,30.451,0.005,-0.0076,9.8267,0.1052,-1.0257,-0.9135
6095,913,845,34.182,30.475,0.061,0.0209,9.7243,0.2547,-0.0377,-0.5502
6100,898,841,34.223,30.431,-0.0512,0.0286,9.8329,0.2545,-0.3864,0.5855
6105,881,838,34.161,30.45,-0.0004,-0.0094,9.8023,-0.6562,-0.1698,1.0793
6110,886,836,34.126,30.476,0.0391,0.1263,9.7669,0.1102,-0.5818,-0.0444
6115,871,837,34.176,30.455,0.0216,-0.0371,9.8705,0.146,0.4069,-0.2406
6120,856,838,34.124,30.451,-0.0001,-0.1332,9.8196,0.4911,-0.3039,-0.9803
6125,853,838,34.174,30.54,-0.0565,-0.0131,9.8591,-0.795,-0.3558,0.1907
6130,839,838,34.147,30.429,0.0141,-0.0198,9.8109,0.4079,-0.1853,-0.346
6135,830,839,34.081,30.509,-0.0002,0.0763,9.8368,0.0833,0.3048,-0.2472
6140,821,835,34.17,30.54,-0.0133,0.0753,9.874,0.1963,0.2769,0.4822
6145,812,825,34.12,30.412,0.0335,-0.0025,9.8035,-0.0304,-0.1663,0.6817
6150,804,829,34.222,30.444,-0.0331,-0.0418,9.7589,-0.5984,-1.2301,0.9339
6155,795,827,34.262,30.543,0.0573,0.0674,9.8994,0.4068,-0.8231,-0.2106
6160,793,826,34.183,30.429,0.0031,0.0214,9.7699,-0.0592,0.5343,0.7859
6165,784,828,34.1,30.595,-0.0762,-0.0003,9.8225,-0.0612,0.5981,0.1723
6170,774,819,34.102,30.465,-0.0421,-0.0616,9.7989,0.9582,0.077,0.5604
6175,776,822,34.137,30.462,0.0572,0.0077,9.8125,0.4767,0.5056,-0.8374
6180,765,825,34.163,30.485,0.0478,-0.0334,9.8073,-0.5005,0.2884,-0.5023
6185,760,819,34.11,30.412,0.044,-0.0037,9.8185,0.5513,-0.4596,-0.3509
6190,754,819,34.157,30.423,0.0095,-0.0095,9.788,-0.275,0.1535,-0.3685
6195,763,818,34.134,30.392,-0.1033,-0.0674,9.8183,-0.1353,-0.3411,-1.0096
6200,748,823,34.115,30.533,0.0003,0.0553,9.9023,-0.8586,-0.393,0.1876
6205,741,815,34.07,30.499,-0.0491,-0.0108,9.7897,0.4335,-0.5738,-0.0734
6210,754,815,34.169,30.524,0.1264,0.0529,9.8585,-0.8091,0.3878,0.4298
6215,747,814,34.074,30.466,-0.0619,0.0476,9.7778,0.3042,0.6501,0.2713
6220,746,814,34.115,30.424,-0.0177,-0.0842,9.696,-0.6791,0.2416,0.0596
6225,747,813,34.079,30.446,-0.0476,-0.1114,9.8354,-0.5242,0.1221,-0.1161
6230,756,804,34.15,30.537,0.0519,0.0221,9.8186,0.1516,-0.2871,0.2305
6235,759,802,34.17,30.411,-0.0503,-0.0817,9.8382,-0.1662,-0.537,0.1591
6240,758,799,34.119,30.529,-0.0449,-0.0326,9.8658,-0.2389,-0.1264,-0.9411
6245,770,799,34.152,30.483,-0.0482,0.0099,9.8295,-0.9312,-0.7198,0.2136
6250,780,795,34.187,30.457,-0.0095,-0.069,9.7961,-0.2308,0.7717,-0.4451
6255,781,790,34.146,30.462,-0.0448,-0.0539,9.7595,-0.2822,-0.5391,-0.4631
6260,787,789,34.11,30.487,0.0314,-0.0269,9.7773,-0.1944,-0.213,-1.2402
6265,798,788,34.094,30.476,0.037,-0.0142,9.9243,0.0149,-0.855,-0.6936
6270,803,781,34.146,30.459,-0.0609,-0.0291,9.8146,-0.128,-0.5463,0.3161
6275,811,777,34.07,30.524,0.0507,0.0242,9.9436,-0.544,-0.5887,0.1859
6280,827,782,34.194,30.481,-0.0258,0.009,9.7753,-0.0941,0.0358,0.0634
6285,829,776,34.197,30.398,-0.0836,0.0244,9.7933,-0.8653,0.9106,0.1701
6290,842,772,34.127,30.532,-0.0154,0.0039,9.8769,0.4897,0.0529,-0.6031
6295,853,765,34.13,30.494,-0.0001,0.0137,9.8409,0.0915,-0.6241,-0.7619
6300,864,764,34.12,30.432,0.0606,-0.0302,9.7412,0.841,-0.3802,-1.0189
6305,885,765,34.146,30.463,-0.0036,0.0329,9.78,0.6499,0.8949,-1.2027
6310,898,758,34.211,30.557,0.0292,-0.0856,9.9103,-0.6999,0.119,-0.1077
6315,911,751,34.13,30.43,-0.0625,0.023,9.8056,0.3508,-0.1741,-0.2057
6320,914,747,34.137,30.48,-0.0595,0.0375,9.8403,-0.004,-0.2893,0.676
6325,942,750,34.12,30.525,0.0686,-0.1181,9.812,0.3757,-0.8172,-0.1317
6330,952,747,34.122,30.454,-0.0533,0.0278,9.7587,0.4526,0.7113,-0.3043
6335,962,739,34.079,30.48,-0.054,0.0204,9.8993,-0.2679,-0.0306,0.2921
6340,970,732,34.13,30.565,0.0058,-0.0677,9.7931,-0.3999,0.1837,-1.151
6345,986,731,34.152,30.377,0.0117,0.0241,9.7376,0.5565,-0.2977,-0.9498
6350,1004,733,34.168,30.518,-0.0134,0.0538,9.8358,-0.0846,-0.1848,1.2857
6355,1012,722,34.245,30.461,-0.1345,-0.0191,9.8063,0.3233,0.3545,0.5743
6360,1040,718,34.183,30.371,0.0497,-0.0412,9.8683,0.0524,0.2035,-0.1091
6365,1040,723,34.193,30.466,0.0347,-0.0178,9.76,0.5948,-0.1145,1.0794
6370,1060,720,34.145,30.424,-0.0578,-0.0254,9.7363,1.1961,-1.1913,0.2443
6375,1060,725,34.168,30.522,0.0907,0.0135,9.7869,0.6045,0.0241,-0.6601
6380,1078,713,34.149,30.623,-0.0873,-0.052,9.7867,0.4315,-0.7627,-0.5206
6385,1082,715,34.198,30.467,0.0141,-0.0262,9.8743,0.6462,-0.7338,-0.082
6390,1107,715,34.073,30.502,-0.0021,0.0211,9.8163,-0.374,0.1638,0.5162
6395,1114,716,34.236,30.483,0.0135,0.0367,9.8867,0.0204,0.011,0.84
6400,1117,713,34.172,30.589,0.0147,0.0202,9.8552,-0.4772,-0.5,0.3611
6405,1132,711,34.239,30.532,-0.1033,-0.0114,9.7813,0.581,0.864,0.0694
6410,1130,712,34.149,30.495,-0.0009,-0.0242,9.8634,0.3826,-0.2209,-0.2194
6415,1151,709,34.169,30.416,-0.0437,-0.001,9.8914,-0.9447,0.286,0.371
6420,1150,708,34.209,30.517,-0.0219,0.0057,9.8056,-0.1427,-0.0857,-0.1427
6425,1157,718,34.171,30.463,0.0589,0.0355,9.8502,0.1639,-0.2588,-0.2209
6430,1163,716,34.157,30.468,-0.0331,0.0187,9.735,-0.2357,1.4925,0.2271
6435,1160,714,34.123,30.52,-0.0528,-0.0036,9.8011,-0.0049,0.6752,-0.3378
6440,1176,720,34.133,30.432,-0.0354,0.0293,9.8572,0.2213,-0.6994,-0.2242
6445,1174,714,34.146,30.464,0.0075,-0.0003,9.7431,0.67,-0.255,0.3188
6450,1189,720,34.247,30.389,-0.0078,-0.1021,9.7876,-0.4766,0.0474,0.4015
6455,1181,720,34.14,30.499,0.0142,0.0274,9.7901,0.2594,0.9472,-0.143
6460,1177,720,34.162,30.431,-0.0142,-0.0125,9.767,-0.5834,0.4398,-0.1872
6465,1193,734,34.032,30.508,0.0464,0.0177,9.854,-0.3004,-0.5449,0.3751
6470,1202,731,34.127,30.505,-0.0666,0.0439,9.7535,-0.2372,0.5112,-0.7512
6475,1188,732,34.153,30.539,0.0649,-0.0055,9.8314,0.0181,-0.4811,0.0276
6480,1191,738,34.179,30.576,0.0162,-0.0114,9.8571,-0.6922,-0.0509,-0.4772
6485,1172,738,34.15,30.546,-0.095,0.0025,9.9232,0.4317,0.5096,-0.2836
6490,1192,748,34.191,30.464,-0.058,-0.071,9.9371,0.9348,-0.0238,0.693
6495,1188,753,34.105,30.428,0.054,-0.0213,9.8632,0.7111,1.0568,-0.3012
6500,1190,758,34.202,30.541,0.0507,0.0245,9.8158,-0.3805,0.054,-0.2212
6505,1171,761,34.159,30.468,-0.047,0.0037,9.8915,0.2688,0.0921,-0.1126
6510,1181,766,34.177,30.416,0.0012,-0.0884,9.8457,-0.3481,0.2473,-0.0733
6515,1176,765,34.162,30.472,-0.0299,-0.0389,9.7123,0.0171,0.4947,-0.1893
6520,1174,770,34.085,30.415,0.0581,-0.0024,9.8639,-0.6358,-0.5167,-0.5299
6525,1162,780,34.19,30.544,0.0088,-0.0018,9.8198,-0.2272,0.0568,-0.3744
6530,1161,780,34.114,30.456,-0.031,-0.0348,9.784,0.3609,0.567,0.269
6535,1160,787,34.054,30.623,0.0249,0.0102,9.8528,0.506,-0.3371,-0.1398
6540,1153,793,34.086,30.407,-0.0595,-0.0097,9.7374,0.2196,-0.6176,0.2122
6545,1160,795,34.219,30.432,-0.0199,0.0311,9.7708,0.1151,-0.2355,0.4896
6550,1147,796,34.198,30.557,-0.0338,0.0437,9.845,-0.1072,-0.1769,-0.2673
6555,1137,807,34.159,30.482,-0.061,-0.0029,9.796,-0.5457,0.236,0.8473
6560,1147,809,34.291,30.407,-0.0501,0.0722,9.8449,0.2007,-0.3402,-0.0789
6565,1139,816,34.161,30.489,-0.0212,0.0131,9.7942,-0.0132,0.2214,0.4494
6570,1129,819,34.159,30.463,0.1163,-0.0153,9.847,0.5507,0.0149,0.917
6575,1130,826,34.224,30.484,0.0612,0.0443,9.7846,0.1061,-0.187,0.5324
6580,1129,825,34.144,30.445,-0.0448,-0.0241,9.7853,0.8157,0.0493,-0.4306
6585,1124,827,34.143,30.478,-0.1143,0.119,9.8782,0.3624,0.3114,0.0457
6590,1112,833,34.124,30.516,0.0166,0.0814,9.8323,-0.1053,-0.8039,0.1703
6595,1112,841,34.199,30.539,0.0066,0.0099,9.85,1.4856,-0.448,-0.2224
6600,1114,841,34.237,30.486,0.0214,0.0228,9.8256,0.5194,0.2736,0.0533
6605,1104,846,34.239,30.481,-0.0623,-0.034,9.7282,0.2568,0.0331,0.3954
6610,1111,846,34.184,30.379,0.0079,-0.0417,9.7429,-0.2576,-0.114,-0.4157
6615,1107,846,34.165,30.479,0.0575,-0.005,9.7878,-0.012,-0.0198,0.5719
6620,1098,854,34.182,30.442,-0.098,0.0128,9.7737,0.1603,0.2611,0.2427
6625,1096,856,34.118,30.444,0.0442,0.0144,9.8434,-0.0333,0.438,-0.5725
6630,1094,861,34.241,30.433,0.0031,0.0167,9.8469,-0.2227,0.6386,-0.4782
6635,1099,861,34.165,30.431,0.0433,0.0413,9.7989,-0.3759,-0.5479,0.2654
6640,1089,859,34.186,30.478,-0.0064,-0.004,9.8303,0.0013,-0.5589,0.5008
6645,1090,861,34.153,30.486,-0.0535,0.0492,9.8747,-0.0901,0.8235,0.0831
6650,1091,858,34.154,30.404,-0.0096,0.0112,9.785,0.0901,-0.4837,0.2188
6655,1087,866,34.127,30.471,0.0265,-0.0829,9.8598,-0.8408,0.8005,-0.0155
6660,1081,864,34.131,30.445,0.0063,-0.0445,9.9461,0.6018,-0.51,0.1899
6665,1084,861,34.14,30.434,0.0108,-0.0525,9.8022,-0.3009,0.5364,-0.1772
6670,1077,861,34.156,30.481,0.0497,0.0027,9.8089,0.1348,-0.7284,0.7702
6675,1071,864,34.092,30.521,0.0844,0.0644,9.8593,-0.0505,0.9284,-0.5317
6680,1068,863,34.151,30.432,0.0743,0.0691,9.8206,-0.2853,0.2779,0.903
6685,1065,863,34.195,30.462,-0.0445,0.0007,9.7865,-0.1024,0.6122,-0.2923
6690,1068,868,34.156,30.461,-0.0282,-0.0413,9.8309,0.186,0.1609,-0.1021
6695,1059,868,34.122,30.468,-0.0552,-0.0163,9.7483,-0.4441,0.5444,-1.0653
6700,1056,855,34.156,30.563,0.0062,0.0739,9.7205,-0.2717,-0.3966,-0.0638
6705,1057,864,34.195,30.612,-0.0142,-0.0249,9.7452,0.1058,-0.823,0.8513
6710,1049,862,34.173,30.497,0.0509,0.0507,9.7729,-0.9864,0.14,0.2603
6715,1052,862,34.175,30.448,-0.1149,-0.0047,9.7469,-1.3571,-0.3389,-0.1484
6720,1041,858,34.099,30.5,-0.022,-0.081,9.8131,-0.3032,-0.8899,0.2888
6725,1037,856,34.122,30.511,-0.018,0.02,9.8689,0.5171,-0.2935,0.517
6730,1027,858,34.142,30.519,-0.0567,0.0567,9.7827,-0.2823,-0.2379,-0.4777
6735,1025,856,34.204,30.551,0.0633,0.0107,9.8225,-0.3018,-1.0441,0.116
6740,1016,855,34.211,30.499,0.0491,-0.0669,9.8581,0.0927,0.0758,1.2553
6745,1012,853,34.131,30.543,0.0158,-0.0857,9.8691,0.3843,0.005,0.9263
6750,997,849,34.17,30.531,0.0309,0.0848,9.7332,0.3959,0.4257,-0.0917
6755,995,855,34.049,30.413,-0.044,-0.0027,9.7877,0.1797,0.0873,0.3826
6760,989,847,34.259,30.45,-0.0113,0.0593,9.6663,-0.1797,0.2822,0.1678
6765,984,848,34.153,30.416,0.0429,0.0218,9.8563,-0.5626,-0.4471,0.4752
6770,966,847,34.17,30.49,0.1072,0.0551,9.8305,0.861,0.4904,-0.4494
6775,959,847,34.182,30.547,0.0176,-0.0348,9.7618,-0.0753,-0.4131,0.0116
6780,955,841,34.163,30.544,0.0712,0.0138,9.6978,-0.1716,-0.014,0.1018
6785,943,846,34.091,30.486,0.0454,-0.0902,9.7699,-0.4773,0.4152,-0.2297
6790,926,839,34.142,30.467,-0.0219,-0.1099,9.8009,0.4123,-0.3426,-0.0368
6795,929,844,34.115,30.489,-0.0504,0.1402,9.8151,0.0847,-0.3721,-0.3042
6800,905,840,34.228,30.546,0.0309,0.0919,9.745,0.403,0.5361,-0.5416
6805,908,838,34.153,30.467,-0.1128,-0.0125,9.9242,-0.5422,-0.4716,0.894
6810,888,840,34.13,30.553,-0.0244,0.0033,9.8491,-0.395,0.1849,0.3121
6815,883,837,34.123,30.435,0.0735,0.056,9.8009,0.1997,0.3892,0.3035
6820,883,830,34.201,30.521,-0.0196,-0.0182,9.8432,0.095,-0.4428,0.8955
6825,866,833,34.227,30.381,0.0716,-0.0156,9.8225,-0.2313,-0.5853,0.0529
6830,847,832,34.143,30.49,0.0601,-0.0056,9.8617,-0.6608,0.1881,0.1601
6835,847,835,34.184,30.498,-0.0338,0.04,9.8499,-0.2797,-0.0001,-0.2567
6840,841,830,34.264,30.511,-0.0203,-0.0525,9.8662,0.3665,-0.3791,0.3184
6845,823,834,34.051,30.457,0.0578,-0.0324,9.7796,-0.4094,-0.0161,-0.2223
6850,817,826,34.193,30.588,0.0311,-0.0302,9.7119,0.2799,0.012,0.3858
6855,809,832,34.196,30.436,0.0398,0.0181,9.8536,-0.1708,0.5622,0.3722
6860,799,831,34.161,30.569,0.0065,-0.0084,9.8065,0.1427,0.0174,-0.2422
6865,785,833,34.163,30.463,0.0408,0.0514,9.785,0.2947,-0.18,-0.1222
6870,788,826,34.208,30.414,-0.0278,-0.003,9.846,-0.7862,0.243,-0.4211
6875,772,823,34.197,30.565,-0.0628,0.0155,9.7924,-0.1202,1.3336,0.1928
6880,771,824,34.171,30.506,-0.0459,0.0451,9.7488,-0.2102,-0.5341,0.9672
6885,758,825,34.15,30.482,-0.0034,-0.0437,9.798,-0.4374,0.0289,1.0216
6890,763,826,34.099,30.5,-0.0995,-0.0556,9.8822,0.0135,-0.4551,-0.3504
6895,756,823,34.181,30.499,0.0336,-0.0051,9.793,0.0437,-0.1965,0.4837
6900,752,817,34.212,30.426,0.1113,0.1071,9.8671,-0.2838,0.7734,0.0985
6905,747,816,34.143,30.46,0.0815,0.0082,9.8656,-0.0679,-0.4083,-0.711
6910,754,816,34.051,30.528,0.0723,0.1269,9.8421,-0.3218,0.2614,0.1504
6915,748,816,34.165,30.461,0.0484,0.0948,9.9076,-0.1554,0.4368,-0.6869
6920,752,816,34.205,30.468,0.0223,-0.0305,9.8436,-0.9136,-0.3764,-0.4043
6925,747,812,34.156,30.408,0.0301,0.0162,9.8212,0.3003,0.4019,-0.3108
6930,744,814,34.174,30.491,0.013,0.0042,9.81,-0.623,-0.7186,-0.6182
6935,750,807,34.172,30.508,-0.0491,-0.0155,9.7689,0.2778,0.2672,-0.0722
6940,761,811,34.19,30.465,-0.0533,-0.06,9.8407,0.3497,-0.0509,0.3733
6945,766,805,34.213,30.534,-0.0151,-0.0043,9.8768,-0.0464,-0.0909,-0.4887
6950,761,800,34.179,30.477,-0.0001,-0.0071,9.8509,0.7591,1.1038,0.5723
6955,771,799,34.157,30.651,0.0811,-0.0512,9.7692,-0.6914,-0.8483,0.4563
6960,785,796,34.173,30.455,0.0454,0.1044,9.8972,-0.1967,0.1582,-0.5706
6965,778,796,34.241,30.459,-0.0524,-0.0642,9.7723,-0.0398,-0.8785,-0.5425
6970,796,795,34.171,30.472,0.0325,-0.0212,9.8381,0.0453,-0.346,0.439
6975,802,787,34.121,30.538,0.1483,0.0003,9.8649,0.1151,0.6097,-0.4923
6980,812,783,34.166,30.46,0.0322,0.0708,9.831,0.1972,-0.0071,-0.0123
6985,808,780,34.18,30.503,-0.0512,-0.0109,9.8137,-0.4319,-0.0297,0.4988
6990,834,774,34.195,30.425,0.0155,0.0152,9.8632,-0.221,0.3756,0.1602
6995,840,775,34.043,30.523,-0.0502,0.0491,9.8533,0.2339,0.0461,0.0844
7000,855,775,34.12,30.48,-0.0665,0.0963,9.8499,0.0701,0.1277,0.4391
7005,863,765,34.093,30.433,-0.0177,-0.0387,9.7874,-0.8451,0.6416,-0.4109
7010,871,759,34.153,30.489,-0.0358,0.0473,9.8109,-0.496,-0.3923,0.2826
7015,891,759,34.085,30.513,-0.0278,0.0795,9.8195,-0.6604,-0.1035,-0.7295
7020,900,750,34.211,30.457,-0.0374,-0.1004,9.8116,-1.046,0.575,0.292
7025,915,750,34.178,30.541,-0.076,0.1045,9.9069,0.358,-0.579,0.3235
7030,926,742,34.078,30.429,-0.0151,-0.0237,9.8152,-0.5476,0.145,-0.8038
7035,942,740,34.231,30.417,-0.0726,-0.0161,9.7872,0.773,-0.3263,0.0812
7040,951,737,34.109,30.45,0.0271,-0.1587,9.7887,-0.2469,0.4436,-0.9332
7045,970,731,34.193,30.441,-0.0236,-0.0252,9.8053,0.8791,0.8328,1.3056
7050,988,733,34.166,30.48,-0.0635,0.0695,9.7578,0.1556,0.1753,-0.1863
7055,995,729,34.207,30.402,0.0095,-0.0446,9.7703,0.1029,-0.6157,0.3549
7060,1010,726,34.094,30.358,0.0683,-0.0907,9.8406,0.3103,-0.54,0.0432
7065,1017,724,34.086,30.414,0.0214,-0.0099,9.7957,0.1163,-0.0702,-0.0642
7070,1026,728,34.173,30.502,0.0781,-0.0611,9.7544,-0.3246,0.3089,0.1327
7075,1048,718,34.141,30.43,-0.0004,-0.0295,9.7976,0.8166,-0.3552,-0.7851
7080,1061,717,34.201,30.464,0.0453,-0.0478,9.7648,-0.576,-0.9314,0.5447
7085,1068,717,34.232,30.584,0.019,-0.0402,9.794,-0.5161,0.6169,-0.9814
7090,1077,717,34.266,30.411,0.0349,0.0493,9.7451,0.8343,0.4945,0.4317
7095,1092,718,34.141,30.499,-0.0277,0.0262,9.8289,0.8031,1.2872,-0.3325
7100,1106,709,34.195,30.471,0.0344,0.1147,9.8005,0.211,-0.5875,-0.9294
7105,1112,715,34.136,30.527,-0.0534,-0.0108,9.8343,-0.1603,0.0384,-0.3923
7110,1127,713,34.169,30.4,0.0233,0.0353,9.7144,-0.2886,-0.1328,-0.7311
7115,1138,716,34.22,30.472,-0.0235,-0.0009,9.7823,-0.0632,-0.2169,0.6039
7120,1144,710,34.189,30.427,0.0563,-0.019,9.8335,0.1208,-0.5082,0.1092
7125,1154,712,34.114,30.308,0.028,0.0219,9.8759,-0.4763,0.4874,0.8402
7130,1152,704,34.2,30.537,-0.0662,0.1144,9.8292,0.0546,0.85,-0.4634
7135,1169,708,34.23,30.526,-0.0288,-0.0307,9.7244,-0.1729,0.2781,-0.6585
7140,1171,707,34.187,30.391,0.055,0.0335,9.9096,0.4217,-0.2137,-0.3579
7145,1168,715,34.165,30.549,0.042,0.0318,9.8424,-0.8992,-0.1332,0.6244
7150,1176,717,34.125,30.456,0.0717,0.0753,9.7882,0.5041,0.0336,-0.4211
7155,1181,722,34.233,30.557,-0.0155,-0.0151,9.8346,0.0004,0.4206,0.2427
7160,1181,718,34.218,30.454,-0.0317,0.0247,9.7252,0.2974,0.1213,-0.6066
7165,1183,716,34.196,30.564,0.0738,-0.0776,9.7589,0.8175,0.1806,0.2108
7170,1181,723,34.151,30.485,0.0243,0.0896,9.8093,0.0363,0.1543,0.5591
7175,1190,731,34.221,30.497,-0.0036,0.0885,9.812,-0.4972,0.8592,0.1113
7180,1188,728,34.252,30.463,-0.0355,0.0424,9.833,-1.0595,-0.2537,-0.1945
7185,1190,739,34.09,30.417,0.0607,-0.0201,9.8334,-0.3247,0.7595,0.56
7190,1179,741,34.095,30.547,-0.1207,-0.0357,9.8083,-1.1484,-0.0738,-0.2446
7195,1184,745,34.163,30.469,0.0575,-0.0907,9.8321,-0.0843,0.8565,0.5466
7200,1184,745,34.183,30.532,-0.0361,-0.0441,9.8312,0.1656,1.7579,0.3135
7205,1182,754,34.119,30.453,0.0557,-0.0505,9.8465,0.5317,-0.3694,0.0071
7210,1178,755,34.16,30.475,0.038,-0.0211,9.8137,-0.2468,0.7212,-0.0894
7215,1191,760,34.158,30.488,0.0664,0.0484,9.7964,-0.3779,0.3201,1.0599
7220,1182,770,34.111,30.583,0.0093,0.017,9.7966,0.2157,-0.4193,-0.4599
7225,1171,770,34.082,30.469,0.0207,-0.0657,9.8315,0.0509,-0.5495,0.6972
7230,1171,772,34.118,30.435,-0.0111,0.0581,9.8394,0.7543,-0.0355,0.4116
7235,1173,781,34.152,30.453,-0.0265,0.0364,9.887,-1.0256,-0.249,-0.3279
7240,1168,788,34.099,30.439,0.0058,0.0186,9.7972,0.1337,0.6883,0.2697
7245,1161,789,34.153,30.504,-0.0246,0.0093,9.8257,-0.4204,-0.143,-0.8723
7250,1160,793,34.045,30.592,-0.0138,-0.0221,9.8146,-0.3385,-1.0747,-0.6457
7255,1149,798,34.196,30.526,0.0148,-0.0362,9.8266,0.0249,-0.4491,-0.2641
7260,1156,805,34.161,30.506,0.0661,-0.0417,9.8178,-0.3971,-0.2025,-0.2563
7265,1138,810,34.094,30.553,0.0755,-0.0042,9.8395,0.0676,0.6018,-0.202
7270,1146,813,34.162,30.451,-0.0285,-0.0045,9.7851,0.1927,-0.1795,-0.4949
7275,1135,815,34.168,30.539,-0.0552,0.1212,9.9459,-0.6956,0.415,-0.2344
7280,1127,821,34.245,30.485,0.0598,0.0627,9.8191,-0.4571,0.0988,-0.3409
7285,1124,827,34.117,30.382,0.037,0.009,9.7364,-0.0221,-1.6577,0.4044
7290,1126,833,34.115,30.455,-0.0243,0.042,9.7706,-0.439,0.2568,-0.0182
7295,1129,833,34.131,30.507,-0.044,0.0199,9.7221,0.5462,0.3693,-0.775
7300,1124,838,34.132,30.521,-0.0106,0.015,9.8077,0.3558,-0.1494,-0.682
7305,1112,840,34.153,30.39,0.0546,-0.0863,9.8505,-0.0319,-0.2396,-0.6116
7310,1114,850,34.091,30.422,0.0145,0.0037,9.7884,0.1627,0.3872,-0.5736
7315,1115,850,34.108,30.559,0.0531,-0.03,9.9319,-0.2459,-0.4012,0.1417
7320,1105,850,34.167,30.493,-0.0029,-0.0429,9.808,0.1076,0.2731,-0.1585
7325,1106,851,34.264,30.504,-0.0117,-0.0185,9.8417,0.4328,0.4434,0.4325
7330,1104,852,34.19,30.49,0.0184,0.0138,9.7994,0.3897,-0.1913,0.0756
7335,1108,856,34.189,30.505,0.1093,-0.0036,9.7845,0.2531,-0.2024,0.2771
7340,1087,856,34.203,30.449,0.0002,-0.0096,9.8136,-0.0339,0.6744,0.4061
7345,1094,866,34.161,30.483,-0.056,0.0543,9.8317,0.5722,0.3846,-0.1321
7350,1093,865,34.137,30.492,0.0104,-0.0367,9.8673,0.1483,0.1159,0.2187
7355,1089,861,34.144,30.555,0.0678,-0.0186,9.756,0.8625,0.4985,0.0809
7360,1083,864,34.181,30.453,0.1515,-0.0508,9.7424,-0.296,0.7171,0.0061
7365,1094,862,34.119,30.498,0.0313,-0.0866,9.8708,-0.2432,1.2145,0.5361
7370,1086,858,34.139,30.409,-0.0028,-0.0131,9.7613,1.0765,0.7955,0.1167
7375,1092,864,34.144,30.456,0.0862,0.0582,9.8413,-0.7451,-0.0668,-0.1948
7380,1065,862,34.127,30.543,0.0061,0.046,9.7151,-0.4588,-0.0442,-0.3957
7385,1081,865,34.151,30.493,-0.0035,-0.0215,9.7009,-0.165,0.2297,0.6302
7390,1073,871,34.145,30.461,0.0334,-0.0266,9.8953,-0.2733,0.4428,-0.7729
7395,1066,864,34.182,30.432,-0.0208,0.0073,9.7746,-0.6291,0.1223,0.1081
7400,1064,867,34.18,30.442,0.0012,-0.0213,9.8391,-0.9028,-0.3143,-0.2289
7405,1066,860,34.236,30.409,0.0108,0.0431,9.7191,-0.4687,0.2356,0.3949
7410,1064,866,34.153,30.506,-0.0477,-0.0338,9.8467,-0.4298,-0.6051,-0.1649
7415,1054,868,34.173,30.49,0.0654,-0.0452,9.8016,-1.1823,0.5481,-0.4239
7420,1048,859,34.227,30.595,-0.0311,0.017,9.834,-0.7511,-0.2185,0.0951
7425,1040,858,34.191,30.476,-0.0495,-0.1125,9.8625,0.6611,-0.3893,0.2158
7430,1041,853,34.144,30.542,0.0534,0.0058,9.8108,-0.432,0.1619,0.0191
7435,1038,860,34.138,30.472,-0.019,0.0411,9.7405,-0.0194,-0.0837,0.7154
7440,1024,857,34.092,30.442,-0.0229,0.05,9.8286,0.3617,-0.6239,0.3448
7445,1020,860,34.182,30.571,0.0875,-0.0366,9.8589,-0.1463,-0.0173,-0.3228
7450,1016,853,34.222,30.511,-0.0353,-0.0012,9.8017,0.3813,-0.2292,0.4483
7455,1010,847,34.096,30.542,0.0721,-0.0213,9.6829,0.7284,-0.3206,-0.9016
7460,1003,852,34.259,30.474,0.0028,0.0381,9.7751,-0.8997,-1.2833,0.42
7465,994,855,34.161,30.625,0.0654,0.0169,9.8304,-0.5199,0.0726,0.0482
7470,980,851,34.201,30.492,0.0154,0.0213,9.8385,-0.4638,-0.5713,-0.5077
7475,978,850,34.154,30.495,0.0476,0.0043,9.7818,0.1655,0.2167,0.2729
7480,964,843,34.181,30.49,0.1284,-0.0287,9.7578,-0.1721,-0.7411,-0.2922
7485,955,841,34.167,30.413,0.0382,-0.0741,9.7405,0.1129,0.1903,-0.4708
7490,953,845,34.143,30.475,-0.0029,-0.0187,9.7334,0.1081,-0.2969,-0.088
7495,940,843,34.254,30.517,0.037,-0.049,9.8352,-0.7551,0.0635,-0.3652
7500,927,841,34.102,30.535,-0.0093,0.0013,9.7713,-0.4095,0.4858,-0.1279
7505,920,841,34.166,30.484,0.0069,-0.0439,9.7189,-0.2604,-0.1809,0.598
7510,907,842,34.071,30.484,0.0604,-0.0254,9.8644,0.0957,-0.8864,-0.2862
7515,896,841,34.217,30.456,-0.0191,-0.0125,9.8533,0.3053,0.1751,0.1015
7520,889,838,34.209,30.499,-0.0065,-0.0049,9.8179,0.2071,-0.7666,0.0852
7525,873,837,34.187,30.479,-0.0204,-0.021,9.8754,0.6935,0.2485,-0.4495
7530,874,835,34.167,30.513,0.0328,-0.026,9.7584,-0.2083,0.479,1.4948
7535,854,834,34.19,30.51,0.0272,0.1402,9.7794,-0.5635,-0.7383,0.9129
7540,846,831,34.144,30.471,-0.0351,-0.0474,9.8555,-0.9658,-0.7706,0.9471
7545,842,832,34.232,30.485,-0.0629,-0.0104,9.8045,-0.3982,1.2525,-0.3248
7550,829,829,34.18,30.559,0.0384,-0.0573,9.7912,-1.0429,1.0799,-0.3719
7555,828,832,34.153,30.538,0.0678,0.0596,9.7379,0.798,-0.0521,0.6141
7560,803,837,34.124,30.527,0.049,0.0465,9.7723,0.1914,-0.382,-0.006
7565,797,828,34.195,30.455,0.0302,0.0926,9.8515,-0.3839,-0.2608,-0.3201
7570,806,827,34.188,30.437,0.1086,0.0073,9.7879,-0.2912,0.3941,-0.0106
7575,783,831,34.154,30.462,0.0353,-0.0835,9.8275,-1.0017,0.3948,0.1959
7580,785,827,34.141,30.463,-0.0398,-0.0276,9.8556,0.5984,0.086,0.1825
7585,784,825,34.149,30.464,-0.018,0.0037,9.7954,1.0089,-0.7821,0.2118
7590,770,827,34.243,30.514,-0.0036,-0.0224,9.8741,-0.2621,-0.0477,-0.5435
7595,765,826,34.151,30.511,-0.0526,0.0043,9.7207,-0.179,0.0019,-0.9032
7600,767,819,34.2,30.502,-0.0332,-0.0414,9.8157,0.6717,0.7751,-0.4812
7605,757,818,34.126,30.507,-0.0435,0.0161,9.8025,0.1889,0.3826,-0.7924
7610,753,821,34.106,30.528,-0.0605,0.0323,9.817,0.6222,-0.4546,-0.7252
7615,751,818,34.173,30.468,0.027,0.0787,9.9002,-0.4803,0.0154,0.5346
7620,740,819,34.17,30.547,0.0366,0.0224,9.8435,-0.2746,-0.3955,0.7201
7625,746,815,34.186,30.452,-0.0118,0.0301,9.7322,1.0122,-0.058,0.1505
7630,750,813,34.243,30.526,0.0238,0.0453,9.7256,-0.2765,-0.0698,-1.3853
7635,751,813,34.257,30.455,-0.1209,0.041,9.904,-0.8113,0.4803,-1.0918
7640,755,808,34.078,30.485,-0.0632,0.0365,9.9037,-0.0439,-0.3767,0.6234
7645,754,808,34.325,30.505,0.0276,0.0235,9.823,-0.4249,-0.0565,-0.0747
7650,748,805,34.254,30.56,-0.0407,0.0646,9.7807,1.5246,0.4467,-0.3617
7655,767,805,34.115,30.45,0.0082,-0.0185,9.9022,-0.2238,-0.3652,-0.2194
7660,766,798,34.154,30.474,-0.013,0.0629,9.8042,-0.5994,0.5596,-0.5545
7665,767,798,34.11,30.404,-0.0122,0.0031,9.8251,0.5163,0.7008,-0.4376
7670,783,798,34.162,30.573,-0.0272,0.0083,9.7966,-1.0503,-0.3618,0.1428
7675,789,789,34.165,30.439,0.0577,0.0208,9.8638,0.4496,0.4695,0.5186
7680,796,787,34.102,30.524,0.009,0.0732,9.752,-0.2816,0.2368,0.314
7685,809,776,34.13,30.566,-0.0028,0.0141,9.7999,0.3205,0.5479,0.0141
7690,816,782,34.126,30.459,0.0036,0.0324,9.7969,-0.1798,-1.258,-0.6595
7695,823,775,34.219,30.507,0.0217,-0.0439,9.7694,0.0029,0.3249,0.1507
7700,831,782,34.101,30.488,0.0384,0.0178,9.7011,0.0827,0.9713,-0.0516
7705,847,771,34.251,30.476,-0.0086,0.0332,9.737,-0.6018,-0.7566,0.1351
7710,856,770,34.192,30.494,0.018,0.0021,9.8231,0.5962,-0.442,-0.3819
7715,872,761,34.215,30.496,0.0269,0.0348,9.795,0.0026,0.0625,0.2843
7720,885,765,34.163,30.458,0.0435,0.0482,9.9191,-0.2678,-0.4237,0.4498
7725,899,758,34.061,30.512,0.0615,-0.0026,9.7907,-0.3743,-0.6647,0.0457
7730,911,758,34.13,30.494,0.0159,-0.0038,9.8015,0.3974,-0.4167,-0.6462
7735,922,748,34.169,30.519,-0.0068,-0.0128,9.7385,0.2535,-0.8511,-0.1966
7740,935,747,34.183,30.511,0.0433,-0.0051,9.8074,0.0691,0.6005,-0.0904
7745,945,742,34.236,30.487,-0.0462,0.055,9.8776,0.4675,0.2133,0.1152
7750,972,741,34.263,30.418,-0.044,-0.0735,9.8384,-0.4244,-0.2463,-0.088
7755,977,739,34.177,30.442,0.0274,0.0147,9.7894,-0.3064,-0.3845,-0.7002
7760,996,734,34.216,30.397,0.0695,-0.0115,9.7174,0.3979,0.1058,0.4891
7765,1003,733,34.114,30.42,-0.0722,0.0041,9.7311,-0.5458,-0.7039,0.1828
7770,1020,729,34.173,30.526,-0.0437,-0.0086,9.7182,0.9791,-0.1989,1.1507
7775,1032,726,34.234,30.471,0.005,0.0373,9.7668,-0.35,-0.4372,-1.1806
7780,1041,724,34.151,30.409,0.0994,0.0373,9.7695,0.6554,0.2902,-0.1036
7785,1061,723,34.191,30.451,-0.0162,-0.0253,9.7888,0.4087,0.8308,0.1491
7790,1065,719,34.156,30.492,0.0341,0.0422,9.9374,-0.4382,0.6897,0.2715
7795,1083,716,34.21,30.509,0.0609,-0.004,9.8043,-1.3324,0.1411,0.3373
7800,1093,716,34.163,30.5,0.0457,-0.0432,9.8167,0.1154,0.467,-1.024
7805,1092,719,34.101,30.543,-0.0234,-0.0106,9.8144,-0.0409,-0.0777,-0.4462
7810,1100,716,34.206,30.531,-0.0106,-0.0722,9.8649,0.4552,-0.8254,0.4795
7815,1123,707,34.143,30.454,-0.0112,-0.028,9.8127,0.6016,-0.8669,-0.102
7820,1128,718,34.147,30.484,0.0297,0.0184,9.7993,-0.387,-0.0664,-0.0362
7825,1141,711,34.195,30.397,-0.0419,-0.0723,9.8288,-0.0777,-0.0816,0.3518
7830,1148,710,34.183,30.473,-0.006,-0.0771,9.8534,-0.1956,0.4574,0.4453
7835,1153,712,34.089,30.581,-0.039,0.0552,9.8068,-0.4261,0.7682,0.2686
7840,1154,709,34.14,30.492,-0.0111,-0.0054,9.8227,0.013,0.1306,-0.7577
7845,1164,711,34.185,30.421,-0.0141,-0.0316,9.7548,0.396,0.8373,-0.2718
7850,1168,713,34.162,30.487,0.0629,-0.0162,9.7637,-0.0779,-0.1324,-0.0462
7855,1183,717,34.27,30.431,-0.0206,-0.0174,9.8679,0.4384,-0.2593,0.0771
7860,1182,713,34.122,30.453,0.0556,-0.093,9.8086,0.0664,0.3123,-0.0733
7865,1176,713,34.196,30.508,0.0174,-0.0018,9.79,-0.106,0.0852,0.1323
7870,1184,719,34.161,30.483,-0.0256,0.0032,9.7925,-0.4007,-0.2513,-0.7009
7875,1192,725,34.155,30.441,-0.0457,0.093,9.7729,-0.2676,-0.518,-0.3497
7880,1194,733,34.224,30.438,0.0668,0.0565,9.7949,-0.7279,-0.2492,-0.1734
7885,1186,728,34.198,30.486,-0.0176,0.0513,9.8612,0.3784,-0.2405,-0.1759
7890,1184,735,34.165,30.531,0.0089,0.0796,9.866,0.5781,0.2045,1.6466
7895,1198,732,34.21,30.458,0.0733,-0.0457,9.773,0.3835,0.7732,1.1589
7900,1183,740,34.257,30.455,0.0186,-0.0014,9.7681,0.3814,0.7595,-0.1944
7905,1188,749,34.071,30.565,-0.0515,0.0045,9.8611,-0.1275,-1.1857,0.5637
7910,1185,752,34.178,30.451,0.0353,-0.0309,9.796,0.5893,1.4041,-0.2287
7915,1185,752,34.152,30.475,-0.0245,0.0337,9.8116,-0.2704,0.7601,1.1603
7920,1182,761,34.177,30.502,-0.1386,0.0045,9.7723,0.8019,0.5285,-0.9613
7925,1178,762,34.166,30.486,0.0189,0.026,9.8825,0.0895,0.998,0.1139
7930,1178,768,34.264,30.472,0.0418,0.0459,9.8848,0.4596,0.1166,1.0243
7935,1167,768,34.113,30.578,-0.0801,-0.0302,9.8264,-0.0947,-0.4027,-0.5856
7940,1173,779,34.202,30.495,0.0295,0.0013,9.69,-0.7199,-0.6272,0.2561
7945,1175,783,34.195,30.518,-0.0162,0.0213,9.864,0.3273,-0.0678,-0.0101
7950,1165,787,34.175,30.431,0.0736,-0.011,9.7944,0.4017,-0.3001,0.3501
7955,1157,797,34.155,30.48,-0.0293,0.0103,9.8104,-0.0257,-0.7917,1.2224
7960,1152,794,34.173,30.467,-0.0415,0.0424,9.7629,-0.1104,0.3611,0.7846
7965,1154,799,34.088,30.472,0.0131,0.0638,9.8287,0.5285,0.1736,-0.1641
7970,1147,800,34.232,30.452,-0.1161,-0.0176,9.7244,-0.1666,-0.6159,-0.1563
7975,1140,807,34.134,30.437,0.039,-0.093,9.9435,-0.0314,0.1347,0.1691
7980,1136,813,34.029,30.46,-0.0172,-0.0319,9.7764,-0.1755,0.0755,-0.2957
7985,1142,816,34.137,30.502,-0.0439,0.1058,9.8765,0.1772,-0.1234,-0.1522
7990,1125,825,34.218,30.456,0.0285,0.0108,9.8649,0.4456,1.0335,0.5015
7995,1129,828,34.245,30.499,-0.039,0.0079,9.7379,-0.1015,-0.4413,0.1515
8000,1129,827,34.135,30.533,0.0244,0.1031,9.8401,-0.0604,-0.2319,-0.7348
8005,1125,835,34.151,30.511,0.0015,0.0821,9.7846,-1.1545,0.0401,-0.7643
8010,1119,838,34.139,30.511,-0.0217,0.0356,9.8775,0.1011,0.3998,0.2821
8015,1107,849,34.172,30.574,0.027,-0.0104,9.8197,-0.4428,-0.0136,-0.0596
8020,1118,846,34.247,30.467,0.0456,-0.0901,9.8966,-0.238,-0.5646,0.371
8025,1110,846,34.242,30.431,0.0371,0.0018,9.8622,0.3267,-0.1543,0.6202
8029,1116,847,34.177,30.488,-0.0108,-0.0082,9.8169,0.4296,0.5743,-0.4737
8035,1113,850,34.129,30.484,-0.0132,-0.0051,9.8639,0.6228,-0.2139,0.0428
8039,1097,853,34.138,30.471,-0.0164,-0.0355,9.7955,0.5811,0.1606,0.1541
8045,1103,859,34.134,30.586,-0.0024,-0.0328,9.7437,0.5731,-0.8183,0.1128
8050,1098,861,34.15,30.53,0.0156,0.0565,9.8742,0.3632,-0.0767,-0.6553
8055,1105,858,34.199,30.58,-0.0263,0.0704,9.8687,-0.0883,-0.0764,0.7968
8060,1093,867,34.256,30.496,-0.0302,0.0255,9.7969,-0.5169,-0.1606,-0.3221
8064,1087,859,34.26,30.448,-0.0089,0.0685,9.7679,-0.1178,-0.8315,0.0342
8070,1079,867,34.137,30.522,-0.0719,-0.0456,9.8292,-0.1067,0.1662,0.204
8074,1079,867,34.192,30.475,-0.0361,0.0753,9.7694,0.1515,0.1196,-0.0949
8080,1090,868,34.061,30.498,0.014,-0.0448,9.8513,0.7562,0.1327,-0.3409
8085,1073,864,34.248,30.48,0.0134,0.0183,9.8884,-0.3657,-0.1322,0.143
8090,1073,869,34.175,30.474,0.0368,0.0179,9.8577,0.0943,0.2472,-0.4562
8095,1067,866,34.182,30.469,0.0387,0.0669,9.7885,-0.2118,0.8263,-1.4346
8100,1065,864,34.209,30.529,-0.0198,-0.0536,9.8517,0.0348,0.5273,0.5135
8105,1068,870,34.186,30.566,-0.0094,-0.0059,9.8346,0.037,0.7182,-0.1329
8109,1058,865,34.261,30.479,-0.043,0.0693,9.8167,0.7342,0.0543,0.1929
8115,1055,864,34.141,30.507,-0.0257,0.0035,9.7525,-0.5471,0.2395,-0.0143
8119,1049,862,34.147,30.502,-0.0094,-0.0371,9.8733,0.2556,0.4617,-0.3144
8125,1048,859,34.151,30.515,-0.0229,0.0044,9.7386,0.0828,-0.7938,-0.2094
8130,1052,855,34.208,30.59,0.0467,0.0226,9.817,0.5336,-0.0794,-0.1812
8135,1042,863,34.178,30.545,0.0507,-0.0128,9.8593,0.2405,-0.0936,-0.1684
8140,1029,861,34.131,30.446,-0.0943,0.0199,9.7167,-1.3586,0.9206,1.139
8145,1028,855,34.129,30.617,-0.0584,0.026,9.8673,0.1326,0.0006,-0.1785
8150,1028,854,34.139,30.498,-0.0388,-0.0315,9.8351,-0.3217,0.6213,-1.7985
8154,1017,856,34.128,30.431,-0.0075,-0.0436,9.849,-0.4254,-0.4169,-0.5679
8160,1011,857,34.103,30.51,0.0556,0.0044,9.8373,0.02,-0.0005,-1.1918
8164,999,850,34.227,30.519,0.0033,0.0181,9.8378,0.4901,0.1644,-0.1642
8170,986,845,34.157,30.502,0.0305,0.0262,9.7306,-0.386,-0.2295,-0.3719
8175,978,849,34.14,30.431,0.0545,0.0291,9.9211,-0.8546,0.5053,0.2749
8180,980,844,34.217,30.501,-0.0226,0.0302,9.8257,1.0685,0.7905,0.359
8185,968,852,34.151,30.467,-0.0161,-0.026,9.7345,-0.6815,0.3811,-0.9867
8189,963,844,34.108,30.494,0.1128,0.0789,9.851,-0.4189,0.2642,-0.0067
8195,955,841,34.221,30.521,0.0002,0.0708,9.7656,0.2645,-0.1707,-0.39
8200,944,842,34.103,30.577,0.033,-0.0624,9.8232,-0.3378,-0.9408,-0.1075
8205,930,841,34.167,30.491,-0.0235,0.0303,9.8475,-0.6142,0.6091,0.6019
8210,929,840,34.086,30.493,-0.0594,0.038,9.8628,0.1279,0.1439,-0.696
8215,919,839,34.175,30.46,0.0393,0.0547,9.7239,0.5496,-0.1808,-0.3666
8220,897,839,34.255,30.443,0.0794,-0.0037,9.8362,0.2171,0.6274,-0.7882
8225,901,839,34.206,30.484,0.0016,0.0465,9.8359,0.0525,0.2289,-0.0686
8230,893,841,34.194,30.504,0.1068,0.1026,9.7119,0.2682,0.2782,-0.0181
8235,872,833,34.168,30.51,0.0255,-0.0665,9.7614,0.2835,0.25,-0.3618
8240,856,833,34.211,30.462,0.0034,0.079,9.8087,0.7701,-0.3004,0.5687
8245,843,839,34.156,30.444,-0.0738,-0.0408,9.8559,0.4839,0.6718,-0.0273
8250,841,832,34.21,30.417,0.1177,-0.0292,9.8434,-0.8102,-0.2951,-0.6374
8255,829,829,34.199,30.473,-0.096,0.084,9.791,-0.446,0.4815,0.6826
8260,827,829,34.049,30.386,-0.0795,-0.0108,9.8168,-0.0346,-0.3365,0.3682
8265,813,827,34.163,30.456,0.0097,0.0425,9.7721,-0.2267,0.0602,0.5217
8270,804,829,34.123,30.374,-0.0452,0.0235,9.8003,0.3574,-1.2023,-0.1423
8275,807,834,34.126,30.474,-0.0434,-0.0537,9.8007,0.9963,1.1421,-0.0634
8280,786,833,34.18,30.496,0.0125,-0.0032,9.8426,0.4,-0.4307,-0.6425
8285,791,831,34.152,30.498,-0.0014,-0.0481,9.7512,-0.199,-0.355,0.1023
8290,779,828,34.177,30.491,-0.0196,0.0179,9.8005,-0.1229,0.2402,-0.9941
8295,766,824,34.281,30.427,-0.0022,0.0098,9.8174,0.1721,0.1272,0.3781
8300,764,823,34.242,30.42,-0.0058,0.0678,9.8116,0.0171,-0.2949,1.2922
8305,757,820,34.154,30.464,0.0366,0.0711,9.7319,-0.1897,-0.5567,0.0168
8310,750,824,34.094,30.488,0.0275,0.0543,9.8487,-0.0175,-0.3633,-0.5064
8315,753,822,34.16,30.478,-0.0662,0.0494,9.8602,0.0888,-0.5299,0.3981
8320,749,818,34.242,30.536,-0.0299,-0.0354,9.7952,-0.671,-0.0944,0.4302
8325,743,816,34.148,30.536,-0.0082,-0.0758,9.785,0.16,-0.2204,-0.2914
8330,745,816,34.171,30.472,-0.0875,0.0272,9.7898,0.1051,-0.9898,1.2495
8335,750,814,34.243,30.429,-0.0578,0.0142,9.7391,0.5251,0.4802,0.0668
8340,750,811,34.147,30.489,0.0122,0.0167,9.8077,0.3637,0.5053,0.0717
8345,752,810,34.158,30.596,0.0486,0.1141,9.8079,-0.7888,0.6039,-0.1863
8350,749,811,34.191,30.431,-0.1368,-0.0214,9.7508,0.4184,-0.6387,-0.1458
8355,755,805,34.16,30.496,-0.0001,-0.009,9.8042,-0.151,0.3173,0.9115
8360,756,801,34.18,30.467,-0.009,0.0086,9.8738,0.7098,0.0532,-0.205
8365,768,804,34.245,30.536,-0.0537,0.0469,9.8465,0.3978,0.1187,1.581
8370,773,802,34.179,30.515,-0.0301,0.009,9.7851,-0.4246,-0.2206,-0.7368
8375,770,795,34.225,30.569,-0.1058,-0.1034,9.8324,-0.2747,-0.2702,0.5602
8380,786,790,34.244,30.537,0.1001,-0.0049,9.8652,-0.0665,-0.6739,-0.5418
8385,794,788,34.222,30.492,-0.0505,-0.012,9.8747,-0.0629,0.2068,0.2906
8390,798,789,34.165,30.562,-0.0169,0.0349,9.7584,-0.2132,0.1702,0.4099
8395,817,785,34.081,30.485,0.0238,-0.0526,9.7765,-0.1192,0.0323,0.098
8400,824,777,34.185,30.394,-0.0304,0.0173,9.8412,-0.4163,0.8822,0.4032
8405,823,773,34.189,30.545,0.0324,-0.0394,9.8873,-0.4953,-0.8303,-0.4777
8410,837,769,34.151,30.425,0.0033,0.0096,9.7834,-0.1593,1.0388,-0.4259
8415,843,768,34.177,30.509,0.029,0.0338,9.8098,-0.4023,0.1171,0.7906
8420,869,763,34.202,30.536,-0.0176,-0.0678,9.76,-0.3397,0.049,0.1838
8425,879,759,34.136,30.467,0.0139,0.0102,9.7491,-0.244,-0.2299,-0.931
8430,891,760,34.202,30.502,-0.0044,-0.0937,9.7714,0.2546,0.0107,-0.4662
