timestamp_ms,ir_finger,ir_toe,temp_finger,temp_toe,ax,ay,az,gx,gy,gz
0,1040,664,34.503,34.241,-0.0006,-0.0478,9.7242,0.045,0.6887,-0.0998
5,1056,667,34.446,34.244,-0.0368,0.0269,9.9135,-1.2573,-0.0305,-0.1836
10,1063,679,34.511,34.266,-0.0234,0.0439,9.783,0.4308,0.0448,0.1753
15,1071,679,34.561,34.222,-0.0016,-0.0079,9.7684,0.6231,-0.1611,0.1724
20,1081,683,34.491,34.26,0.0292,0.0035,9.8224,0.6643,-0.708,0.0937
25,1100,689,34.435,34.273,-0.0689,0.0385,9.806,-0.448,0.7856,-0.4028
30,1109,692,34.421,34.145,0.0109,0.0261,9.844,0.3523,0.191,0.0951
35,1120,700,34.391,34.302,-0.0378,-0.0037,9.8185,0.3051,-0.0839,-0.3617
40,1115,706,34.469,34.283,-0.0037,0.0172,9.8944,0.4392,0.7433,-0.2663
45,1135,714,34.503,34.202,-0.0453,-0.0588,9.8713,-0.071,0.535,-0.2404
50,1127,721,34.391,34.282,-0.0294,-0.0056,9.8136,-0.071,1.0821,-0.4178
55,1136,722,34.513,34.223,0.0262,-0.0415,9.8222,-0.3015,-0.6896,0.4895
60,1147,733,34.498,34.298,-0.0201,0.0297,9.7949,-0.0774,0.1833,-0.4429
65,1158,738,34.36,34.157,-0.0849,0.0349,9.8697,-0.4881,0.0336,0.4989
70,1159,744,34.541,34.22,-0.0044,0.0276,9.8171,0.3274,-0.3914,0.7259
75,1162,748,34.526,34.225,-0.0203,-0.0488,9.8279,0.756,-0.2329,0.4826
80,1174,754,34.46,34.257,0.0535,-0.0327,9.772,0.4041,-0.7037,0.4089
85,1174,764,34.475,34.188,0.0646,0.0371,9.8315,-0.6283,0.2655,0.4813
90,1181,769,34.4,34.255,0.005,-0.0243,9.7831,0.0394,-0.1457,0.9146
95,1180,783,34.458,34.372,-0.0128,-0.0242,9.8078,0.8147,0.0595,-0.5229
100,1187,785,34.429,34.173,0.071,-0.0659,9.8432,-0.1728,-0.9704,-0.1781
105,1182,791,34.462,34.195,-0.097,-0.0783,9.8083,1.1884,-0.6087,-0.8767
110,1190,801,34.417,34.275,0.037,0.0173,9.8472,0.045,-0.7774,0.2509
115,1177,804,34.478,34.218,0.039,-0.0049,9.7735,-0.2804,-0.0005,-0.6355
120,1187,814,34.475,34.197,-0.0201,0.0421,9.8679,0.2227,-0.3401,0.1625
125,1195,815,34.449,34.218,-0.0008,-0.0271,9.8142,-0.085,-0.3871,0.269
130,1191,823,34.437,34.302,0.0162,0.0657,9.7616,-0.6355,0.2577,-0.1994
135,1193,828,34.448,34.175,-0.0998,0.0099,9.7909,-0.3422,-0.5088,-0.0228
140,1193,838,34.521,34.276,0.0083,-0.0248,9.8029,0.0438,-0.264,-0.4219
145,1181,844,34.5,34.273,-0.1153,0.0616,9.8411,0.0734,0.0184,0.2044
150,1186,847,34.426,34.221,-0.0029,-0.0214,9.7571,-0.2706,-0.2318,-0.0378
155,1181,854,34.509,34.238,0.0261,0.0101,9.8058,0.895,0.2763,0.7069
160,1187,863,34.434,34.253,-0.0172,0.0091,9.8818,0.2383,0.0199,-0.5592
165,1179,865,34.518,34.206,0.0057,-0.0072,9.7761,-0.3142,-0.5113,0.1303
170,1182,867,34.458,34.283,0.0019,0.0331,9.8052,0.0706,0.2511,-1.1725
175,1175,871,34.52,34.105,-0.0504,-0.0404,9.8507,-0.3255,0.5825,-0.5341
180,1174,873,34.456,34.243,-0.0018,-0.0,9.7844,-0.1688,0.0152,-0.2883
185,1167,886,34.49,34.22,0.0655,0.0271,9.8654,0.4401,-0.0306,-0.2309
190,1163,888,34.517,34.175,-0.0212,0.0713,9.8133,0.467,-0.5234,0.5152
195,1162,892,34.502,34.251,0.0444,0.0477,9.8898,-0.092,0.3816,0.14
200,1159,896,34.494,34.213,0.0097,0.0064,9.7812,0.1532,0.3488,-0.0801
205,1155,895,34.457,34.186,0.074,0.0732,9.778,-0.4923,0.0793,0.3383
210,1157,895,34.505,34.218,-0.0139,-0.0488,9.7977,0.1349,-0.1239,0.5434
215,1172,901,34.477,34.239,-0.0199,0.0056,9.8422,0.4819,0.8071,-1.2456
220,1142,900,34.452,34.172,-0.0245,-0.005,9.8877,0.0393,0.7089,-0.1822
225,1152,904,34.457,34.19,-0.0117,0.0078,9.7641,0.1279,0.0001,-0.2168
230,1149,904,34.467,34.201,0.0151,-0.0948,9.7676,0.9403,0.225,-0.4779
235,1142,903,34.444,34.19,-0.0434,-0.0969,9.7772,-0.3326,-0.0579,-1.066
240,1135,912,34.543,34.159,0.0164,-0.0014,9.7647,-0.2141,0.1395,0.5753
245,1131,908,34.436,34.284,0.0155,-0.0648,9.7836,-0.6692,0.6221,-0.3407
250,1131,907,34.43,34.328,-0.0304,0.0365,9.7819,-0.4614,-0.1484,-0.1371
255,1131,910,34.447,34.27,-0.0233,-0.0438,9.8329,-0.6344,0.1208,0.1877
260,1126,912,34.475,34.208,0.0352,-0.0314,9.8768,-0.143,0.2666,-0.3123
265,1119,913,34.549,34.266,-0.0202,0.0435,9.8176,0.0723,-0.6134,-0.0288
270,1118,913,34.476,34.249,0.0043,-0.0245,9.876,1.2529,-1.1646,-0.1601
275,1114,909,34.485,34.198,0.1306,-0.021,9.7667,-0.6774,-0.0702,-0.9069
280,1110,907,34.491,34.296,-0.0462,0.0222,9.7971,0.8109,-0.6038,0.3107
285,1110,909,34.518,34.255,0.0307,-0.0055,9.8359,0.0443,-0.9842,0.5733
290,1114,905,34.471,34.243,-0.0687,0.0029,9.735,0.1024,-0.5071,-0.0283
295,1098,900,34.511,34.244,-0.06,0.0573,9.7987,0.1458,0.5451,0.5749
300,1107,907,34.477,34.242,0.017,0.056,9.8335,-0.4584,0.2268,-0.0008
305,1098,904,34.472,34.273,-0.0695,-0.0534,9.7803,0.1585,0.0799,0.1248
310,1111,905,34.573,34.303,0.0589,-0.0861,9.8043,-0.4798,0.3985,0.5566
315,1102,902,34.455,34.304,-0.0071,-0.0319,9.7311,-0.6613,-0.0561,-0.6633
320,1095,894,34.471,34.22,0.0057,0.0523,9.823,0.5392,0.2455,0.1904
325,1096,900,34.456,34.234,-0.0205,0.0494,9.7233,-0.3406,-0.2981,-0.2424
330,1093,896,34.567,34.264,-0.0354,0.0129,9.7817,-0.777,0.5519,-0.2647
335,1084,897,34.495,34.182,0.0332,0.0041,9.8537,0.118,-0.5948,0.1513
340,1092,892,34.452,34.174,-0.0278,-0.0218,9.782,-0.3668,0.4007,-0.09
345,1073,892,34.403,34.262,0.0154,0.0357,9.8133,-0.0194,0.7719,0.2268
350,1078,889,34.444,34.222,0.0257,0.0381,9.8608,-0.0151,0.2798,0.5904
355,1076,888,34.541,34.268,-0.0125,0.0473,9.8238,-0.0624,0.988,0.6242
360,1071,889,34.505,34.244,-0.0739,0.0631,9.832,0.1609,0.1362,0.0196
365,1081,880,34.477,34.267,0.0155,-0.0044,9.8482,0.5302,0.0222,0.1958
370,1073,875,34.474,34.205,-0.036,-0.002,9.8293,0.0256,-0.0727,1.4305
375,1075,880,34.476,34.265,0.1315,-0.0155,9.8735,-0.9892,-0.3353,-0.7124
380,1070,870,34.526,34.323,0.0516,-0.0444,9.8468,1.3698,0.7665,0.0144
385,1066,875,34.371,34.28,0.0905,-0.0138,9.8142,-0.9847,0.2774,-0.4955
390,1060,872,34.407,34.209,0.0431,-0.0703,9.7838,0.0991,-0.4239,0.4603
395,1046,870,34.497,34.356,-0.0479,-0.0352,9.9103,0.2768,0.1684,0.3357
400,1052,867,34.491,34.226,0.0029,-0.0155,9.899,-0.6327,0.1271,0.6115
405,1056,865,34.47,34.288,0.0882,-0.0051,9.7337,-0.2825,0.9578,-0.374
410,1046,867,34.475,34.234,-0.0185,0.0079,9.8902,0.2904,-0.313,0.8905
415,1044,872,34.475,34.146,0.071,0.0095,9.8141,0.492,-1.3266,0.9672
420,1044,868,34.48,34.256,-0.0537,-0.0571,9.7443,-1.221,-0.6452,0.675
425,1030,862,34.52,34.21,-0.0333,-0.0461,9.7796,0.0062,0.093,-0.7722
430,1026,862,34.464,34.224,-0.0145,-0.0811,9.7992,0.0509,-0.4975,-0.3106
435,1025,862,34.452,34.221,0.0138,-0.0327,9.802,0.0612,-0.1256,0.5782
440,1016,856,34.533,34.275,-0.0442,0.0493,9.8786,0.6403,-0.3309,0.3721
445,1003,860,34.458,34.182,0.0301,0.0278,9.806,0.3759,-0.2111,0.2208
450,995,858,34.514,34.226,-0.059,0.0096,9.7821,0.7815,-0.2619,-0.1039
455,993,858,34.437,34.287,0.0832,-0.018,9.7398,-0.3985,0.6427,0.7549
460,994,855,34.464,34.189,0.0252,0.0463,9.7013,0.1931,0.6289,-0.4765
465,976,850,34.478,34.36,-0.0294,0.0407,9.8198,0.1838,-0.0594,0.4101
470,976,851,34.438,34.284,0.018,-0.0241,9.8301,0.1584,0.5475,-0.1433
475,971,849,34.54,34.124,-0.0018,-0.0236,9.8149,-0.159,0.1694,-0.7242
480,964,841,34.483,34.232,0.1245,-0.065,9.8118,0.0463,0.071,-0.0161
485,955,844,34.491,34.256,0.0157,0.1048,9.7503,-0.1076,-0.3747,-0.0962
490,945,844,34.444,34.251,-0.0062,0.0041,9.9071,-0.4798,0.2203,0.0299
495,935,847,34.574,34.327,0.0469,0.0046,9.8643,0.5139,-0.0837,-0.1274
500,934,847,34.496,34.206,0.0046,-0.0206,9.8009,-0.2881,0.6071,-0.6129
505,922,837,34.463,34.252,0.0152,0.0628,9.8251,-0.0216,0.196,0.0662
510,916,837,34.447,34.256,-0.0767,-0.0297,9.8413,-0.3977,-0.6661,0.2745
515,906,835,34.524,34.262,-0.0297,-0.0116,9.6555,-0.4449,-0.0177,0.9841
520,893,835,34.525,34.274,0.0544,0.0174,9.8334,-0.5244,-0.6022,-0.6814
525,882,833,34.565,34.257,0.0359,-0.0542,9.8285,0.137,0.6814,-0.3956
530,881,837,34.436,34.26,-0.0591,-0.0504,9.8362,0.5552,-0.1739,0.081
535,870,828,34.582,34.252,-0.0287,0.0535,9.8069,0.2848,-0.1073,0.4305
540,860,828,34.475,34.218,-0.0075,-0.0229,9.7337,-0.2947,-0.5603,-0.1269
545,859,825,34.526,34.188,0.0178,-0.0207,9.8263,0.2567,0.7825,-0.5542
550,848,823,34.418,34.294,-0.0398,-0.0441,9.8761,0.6484,-0.3108,-0.1126
555,836,818,34.461,34.21,0.0587,0.061,9.9121,-0.5669,0.1007,-0.4461
560,824,815,34.502,34.293,-0.015,-0.0233,9.7832,0.9486,0.2642,1.4139
565,826,820,34.499,34.198,-0.0462,0.0315,9.8808,0.3285,-0.1998,0.3873
570,816,811,34.495,34.276,-0.0545,-0.033,9.7642,-0.612,-0.2876,0.235
575,807,811,34.438,34.272,-0.0268,-0.0622,9.8498,-0.8859,-0.0329,-0.154
580,795,803,34.484,34.209,0.0123,0.0716,9.8407,-0.0362,0.1881,0.2888
585,791,798,34.418,34.204,-0.0001,-0.0404,9.7833,-0.3286,-0.2729,-0.1957
590,783,793,34.542,34.344,-0.0991,-0.0759,9.8141,0.051,-0.0261,0.2793
595,786,794,34.61,34.211,-0.0131,-0.0794,9.7519,-0.3095,0.2949,-0.3265
600,782,780,34.428,34.324,-0.013,-0.0299,9.865,0.2469,0.33,-0.1728
605,770,784,34.434,34.325,0.0081,-0.0024,9.8647,0.1114,-1.0161,0.2122
610,760,778,34.51,34.241,-0.1064,0.0614,9.7896,0.4749,-1.0197,-0.6221
615,760,770,34.404,34.24,0.0286,0.0433,9.8405,0.023,-0.4433,-0.1525
620,759,772,34.52,34.272,-0.1054,-0.0726,9.8135,0.9992,-0.5213,0.7811
625,756,764,34.433,34.201,0.0283,0.0476,9.8653,0.0824,-0.2172,0.0949
630,763,756,34.507,34.297,0.0011,0.0014,9.796,-0.0354,-0.6881,0.0084
635,749,749,34.467,34.245,-0.0754,-0.0033,9.8668,-0.0004,0.6964,0.3028
640,739,748,34.388,34.275,-0.0174,-0.0348,9.8228,-0.1231,0.307,-1.2069
645,744,739,34.409,34.204,-0.0212,-0.0763,9.8135,-0.1302,0.7954,-0.1482
650,751,741,34.458,34.189,-0.0118,-0.0099,9.8559,0.9356,-0.266,-0.2257
655,749,730,34.473,34.303,0.0229,0.0287,9.7563,0.396,0.1835,-0.0553
660,742,730,34.427,34.266,0.0424,-0.0858,9.8522,-0.1298,0.2341,0.1949
665,750,728,34.445,34.203,-0.0539,-0.0638,9.8492,-0.2943,-0.2555,-0.5092
670,750,720,34.539,34.227,0.0033,0.086,9.7995,0.0051,0.1931,-0.2914
675,754,716,34.435,34.229,-0.0189,-0.0113,9.8008,-0.3272,0.2789,-0.2066
680,759,709,34.421,34.273,0.0849,0.0249,9.7941,-1.0717,-0.3127,0.7839
685,766,703,34.479,34.142,-0.0175,-0.0273,9.716,0.7445,-0.08,-0.5009
690,773,694,34.481,34.256,-0.0866,-0.0433,9.7776,-0.5084,-1.044,-0.6161
695,768,695,34.393,34.2,-0.0057,-0.0217,9.795,-0.18,0.4585,-0.0234
700,790,691,34.442,34.223,0.08,0.0273,9.9507,0.7107,0.564,-0.2376
705,785,686,34.552,34.218,-0.0924,0.1418,9.8373,-0.7209,0.5856,0.9075
710,798,691,34.394,34.187,0.0011,0.0325,9.727,-0.7723,-0.8199,0.0362
715,800,681,34.456,34.281,0.0238,-0.0462,9.7789,0.0085,0.5765,-0.3059
720,808,675,34.486,34.214,0.0646,-0.0132,9.7309,0.1776,-1.0347,-1.0148
725,823,671,34.572,34.272,0.051,0.0241,9.8383,-0.7712,0.472,-0.2453
730,823,668,34.52,34.296,-0.045,0.0436,9.8131,0.4927,0.3862,0.0289
735,838,661,34.421,34.314,0.0847,-0.0502,9.8094,-0.008,-0.1361,-0.7006
740,838,665,34.455,34.25,-0.0801,-0.0126,9.8029,-0.8199,-0.1158,-0.0512
745,856,660,34.37,34.285,-0.0074,-0.0763,9.7826,-0.2624,-0.0435,0.2388
750,858,657,34.467,34.231,-0.0237,-0.0345,9.7306,0.8464,0.2116,0.1071
755,872,658,34.463,34.305,-0.0008,0.138,9.8339,0.0405,-0.0211,-0.528
760,896,651,34.482,34.17,0.0859,-0.0106,9.891,-0.5325,0.0483,-0.2523
765,891,653,34.562,34.271,-0.0562,-0.0124,9.7576,0.0571,-0.1848,0.2067
770,906,658,34.473,34.234,0.0381,0.0007,9.7198,-0.5241,-0.5709,0.1726
775,924,652,34.535,34.172,0.0099,0.0416,9.8391,-0.3443,-0.3597,0.5569
780,931,654,34.592,34.341,0.114,-0.0334,9.8188,-0.133,0.3721,-0.091
785,942,648,34.494,34.292,-0.0129,-0.0323,9.8303,0.38,-0.7667,0.0018
790,946,651,34.554,34.179,-0.0063,-0.0654,9.8164,0.2953,-0.1503,0.2432
795,961,655,34.498,34.315,-0.003,-0.0091,9.7962,-1.1141,-0.0853,-0.3918
800,981,656,34.6,34.246,0.0508,-0.048,9.8695,-0.0024,0.2975,-0.4307
805,991,655,34.509,34.357,-0.0082,-0.0146,9.8156,0.2896,0.3662,-0.737
810,1005,657,34.365,34.282,-0.029,0.0097,9.7454,0.6211,0.2359,0.0635
815,1018,657,34.501,34.302,-0.0171,0.0337,9.7595,-0.125,-1.1093,-0.0001
820,1015,661,34.571,34.297,0.0203,0.0511,9.7192,0.2941,0.2774,-1.0571
825,1039,665,34.524,34.27,0.0995,0.0252,9.7463,-0.2167,0.2632,0.4713
830,1043,670,34.484,34.24,-0.0091,0.0344,9.7699,0.7738,-0.1804,-0.4275
835,1054,671,34.454,34.214,0.0937,0.0903,9.7846,-0.0073,-0.0517,0.6981
840,1068,679,34.512,34.291,-0.0083,-0.0006,9.7827,-0.3775,-0.4132,-0.1432
845,1074,680,34.47,34.236,0.0407,0.027,9.6976,0.8639,-0.2557,-1.0112
850,1097,688,34.507,34.291,0.0174,-0.051,9.8061,0.326,0.072,0.6975
855,1092,693,34.448,34.201,-0.069,-0.0061,9.7951,0.3448,1.3324,-0.0553
860,1099,690,34.475,34.247,-0.0685,-0.0234,9.8586,0.1308,-0.6774,0.6265
865,1111,697,34.5,34.331,-0.0455,0.0057,9.7809,0.653,-0.113,0.8873
870,1123,709,34.51,34.253,-0.0106,0.0198,9.9107,-0.008,0.1926,-0.2682
875,1122,719,34.495,34.239,-0.0135,0.0545,9.6838,0.1268,0.3648,0.2211
880,1134,718,34.511,34.334,0.0047,0.0146,9.8882,-0.4054,0.5095,-0.6717
885,1139,725,34.464,34.194,0.0794,0.0605,9.8006,0.4309,-0.2482,0.7834
890,1146,732,34.502,34.268,-0.0307,0.013,9.8275,0.0007,0.1768,0.8221
895,1162,737,34.5,34.291,0.0507,-0.0204,9.7832,0.2474,0.0355,-1.7793
900,1160,745,34.467,34.204,0.0853,-0.0174,9.7863,0.1357,0.4162,0.0565
905,1162,747,34.528,34.147,0.0022,-0.1047,9.8449,0.2702,1.2046,-0.5884
910,1165,758,34.489,34.238,-0.0345,-0.0289,9.8164,-1.3909,-0.085,-0.7998
915,1178,767,34.507,34.195,-0.0224,-0.0111,9.8913,0.0017,0.5241,0.639
920,1176,768,34.493,34.222,0.0878,0.0801,9.8499,-0.2755,0.2779,0.3655
925,1188,780,34.479,34.318,0.0073,-0.0057,9.8381,-0.1211,0.2716,-0.704
930,1183,787,34.444,34.295,0.0293,-0.0529,9.8336,-0.2897,0.0148,-0.3327
935,1192,798,34.397,34.244,-0.0906,-0.0617,9.8208,0.2854,-0.3027,0.0259
940,1180,801,34.473,34.188,-0.0196,0.054,9.8108,0.3737,-0.2939,-1.0679
945,1181,806,34.541,34.226,0.0168,0.059,9.7978,-0.6273,-0.0573,-0.5342
950,1193,814,34.449,34.242,0.0362,0.1573,9.8569,-0.273,0.9558,0.2458
955,1188,818,34.465,34.282,0.0349,-0.0762,9.7996,1.0231,-0.0568,0.3619
960,1190,825,34.497,34.267,0.0225,-0.0046,9.8852,-0.0224,0.0405,0.0313
965,1187,830,34.453,34.258,0.0463,-0.037,9.8608,-0.2514,-0.2422,0.8296
970,1182,832,34.561,34.313,0.0731,-0.0668,9.7694,0.4198,0.0048,0.2213
975,1184,843,34.435,34.323,0.0738,0.0157,9.8213,-0.2841,0.5312,-0.9403
980,1185,850,34.465,34.257,-0.057,-0.002,9.7729,-0.0328,0.4685,0.2583
985,1177,860,34.433,34.162,-0.0105,0.1238,9.8226,0.8881,-0.5016,-0.9666
990,1188,861,34.522,34.265,0.0556,-0.0584,9.7963,0.4363,-0.0201,-0.1866
995,1176,861,34.525,34.197,-0.042,-0.0065,9.8624,0.0352,-0.3766,-0.4927
1000,1184,869,34.566,34.204,0.1086,-0.0768,9.7506,-0.7298,-0.2306,0.328
1004,1168,871,34.496,34.261,-0.012,-0.0572,9.7398,-0.0001,-0.1615,0.6596
1010,1176,880,34.451,34.252,0.0119,0.0854,9.8026,1.1812,0.1843,0.3395
1014,1170,884,34.502,34.26,0.0439,-0.0361,9.7542,-0.5245,-0.1435,0.0402
1020,1175,884,34.5,34.274,-0.0601,0.0286,9.8472,-0.2787,-0.4951,-0.1646
1025,1154,893,34.545,34.325,-0.0019,0.0087,9.8078,0.2372,0.6705,-0.5622
1030,1155,892,34.511,34.133,0.0342,0.0451,9.8506,-0.5697,0.0651,-0.3162
1035,1161,894,34.494,34.278,0.0267,0.0129,9.8478,-0.178,-0.6873,-0.462
1040,1154,899,34.381,34.142,0.004,-0.0221,9.8129,0.5777,-0.5908,-0.2935
1045,1147,898,34.537,34.238,0.0677,0.0436,9.7863,-0.8944,0.1761,0.2795
1050,1143,904,34.481,34.223,-0.1278,0.0447,9.7598,-0.1881,0.4725,0.5118
1055,1151,906,34.529,34.229,0.0321,-0.0034,9.8111,-0.6662,0.2589,-0.6404
1060,1148,903,34.452,34.254,0.0145,-0.0571,9.8676,0.5084,-0.3214,0.439
1065,1149,906,34.432,34.288,0.0663,-0.0172,9.8608,-0.1313,-0.3491,0.8196
1070,1142,913,34.456,34.243,0.0144,-0.0106,9.801,0.0999,0.4915,0.2779
1075,1138,907,34.573,34.278,-0.0297,0.0039,9.8007,0.5937,0.5712,0.1303
1080,1125,911,34.523,34.199,-0.0232,0.0091,9.7923,-0.0174,0.4203,-0.5865
1085,1130,910,34.492,34.205,-0.0723,0.0124,9.7876,0.1802,0.3241,-0.9611
1090,1118,906,34.542,34.254,-0.1389,0.0099,9.7549,-0.7113,-0.2019,0.7747
1095,1107,911,34.497,34.228,0.0148,-0.0143,9.7092,-0.0788,-0.2146,-0.5667
1100,1120,912,34.505,34.233,-0.0441,0.0043,9.8425,0.3459,-1.0626,-1.0235
1105,1116,912,34.465,34.241,-0.0617,0.0079,9.8997,-0.5696,0.1867,0.0974
1110,1112,907,34.519,34.241,-0.0578,-0.0261,9.7687,-0.0158,-0.1142,-0.0508
1115,1122,909,34.567,34.193,0.012,-0.0079,9.7378,0.1442,0.2354,0.3286
1120,1099,905,34.477,34.315,0.0375,-0.0037,9.9145,-0.4021,0.1231,0.0576
1125,1104,901,34.479,34.19,0.0515,0.0488,9.7754,-0.0223,-0.9231,-0.0015
1130,1105,904,34.508,34.251,-0.0886,0.0299,9.8507,-0.9824,-0.0917,0.2328
1135,1096,903,34.469,34.179,0.0131,-0.0585,9.8527,0.278,-0.3694,-0.139
1140,1097,905,34.486,34.257,-0.0325,0.0892,9.7314,0.6384,-0.3964,1.1302
1145,1096,902,34.537,34.272,-0.1229,-0.0315,9.7952,0.0353,0.3624,0.0849
1150,1099,895,34.43,34.191,0.0238,-0.0147,9.6956,0.5213,-0.4481,0.0012
1155,1087,898,34.463,34.368,-0.0059,-0.0101,9.783,-0.0809,-0.2015,0.5689
1160,1090,895,34.573,34.205,-0.0003,0.0315,9.768,-0.6244,-0.1669,-0.2058
1165,1089,891,34.458,34.172,0.0251,0.0012,9.7735,-0.1253,-0.2271,0.0873
1170,1087,894,34.532,34.254,-0.0406,0.0268,9.7112,-0.4263,0.2698,0.0979
1175,1084,893,34.597,34.162,0.0513,0.0153,9.7317,-0.3687,0.1854,0.238
1180,1086,883,34.521,34.254,-0.0092,0.0393,9.7646,-0.7664,-0.182,0.0727
1185,1075,881,34.478,34.298,0.033,0.0855,9.778,-0.664,-0.2431,-0.0065
1190,1082,879,34.444,34.273,-0.0364,0.0445,9.7903,0.7079,0.3133,0.8038
1195,1071,881,34.423,34.332,0.0026,-0.0618,9.8531,0.0498,0.0462,0.1506
1200,1080,877,34.5,34.29,-0.0048,-0.0216,9.864,0.0681,-0.6368,-0.8616
1205,1073,880,34.533,34.292,0.0269,-0.0328,9.7574,0.4992,0.4561,-0.2259
1210,1082,878,34.614,34.224,-0.0283,0.0415,9.8518,0.2257,0.6093,0.0361
1215,1068,877,34.521,34.297,-0.0336,-0.0488,9.7588,0.11,-0.9471,0.2796
1220,1072,874,34.434,34.307,-0.0215,-0.0538,9.9256,-0.3815,-0.0303,0.1464
1225,1065,869,34.556,34.312,-0.0235,0.0427,9.8399,-0.416,-0.2866,0.1985
1230,1061,868,34.427,34.201,-0.0326,-0.0503,9.7565,-0.5212,0.1038,0.2221
1235,1058,865,34.451,34.199,0.0083,-0.0061,9.8706,-1.0971,-0.0891,-0.6245
1240,1043,866,34.411,34.314,-0.0021,-0.012,9.8406,-0.0525,0.0658,-0.2196
1245,1039,868,34.446,34.219,-0.0743,-0.0585,9.8584,-0.4258,-0.8235,-0.1389
1250,1035,864,34.395,34.25,0.049,0.083,9.8104,-1.3853,0.8198,0.4123
1255,1039,860,34.563,34.254,0.0089,-0.0217,9.7796,-0.4903,0.514,0.1782
1260,1017,858,34.56,34.333,0.0537,0.1143,9.8085,-0.0578,0.4678,0.5179
1265,1022,861,34.394,34.102,-0.0854,0.0402,9.7148,0.2978,-0.2397,-0.2541
1270,1025,856,34.492,34.161,-0.0345,-0.0021,9.8131,-0.2486,0.708,0.6074
1275,1007,853,34.483,34.347,0.0189,0.0078,9.8193,-1.0638,0.0132,-0.6724
1280,1003,854,34.466,34.316,0.0479,-0.0226,9.7961,0.0512,0.2823,0.6595
1285,1002,857,34.554,34.347,0.011,-0.0492,9.808,-0.0774,0.5272,0.0002
1290,983,848,34.491,34.168,0.0421,-0.0284,9.8385,0.5691,-0.0183,-0.2394
1295,990,854,34.507,34.22,0.0457,0.0253,9.8083,0.1642,-0.4883,-0.7056
1300,980,848,34.498,34.265,-0.0718,0.0175,9.8793,-0.7172,-0.3434,0.1191
1305,962,851,34.507,34.313,-0.0609,0.0138,9.7845,0.066,0.4034,-0.7025
1310,961,846,34.506,34.229,0.043,0.0614,9.764,0.8709,0.4098,-0.3894
1315,948,849,34.437,34.299,-0.0223,-0.0211,9.8538,-0.2841,-0.4091,-0.0761
1320,936,841,34.559,34.263,-0.0342,0.0151,9.7779,0.051,-0.0924,0.2253
1325,947,845,34.511,34.177,0.0311,0.0035,9.7858,-0.0364,-0.2202,0.3602
1330,944,845,34.554,34.215,0.0568,-0.0783,9.7643,0.4748,-0.6216,-0.7752
1335,930,844,34.519,34.193,0.0489,0.0667,9.84,-0.3612,0.2813,-0.153
1340,909,840,34.454,34.211,0.0403,0.0101,9.8422,0.0511,-0.5047,-0.2519
1345,903,839,34.456,34.253,0.0585,0.1142,9.8608,-0.4364,0.2032,-0.6933
1350,897,834,34.551,34.271,-0.129,0.0288,9.9419,1.4885,-0.5742,-0.0337
1355,886,829,34.393,34.269,-0.0165,0.0461,9.8615,0.3379,-0.2392,0.3542
1360,883,837,34.462,34.202,0.0067,0.0254,9.7994,-0.2815,0.5162,-0.6578
1365,873,828,34.484,34.316,0.1392,0.0636,9.7689,-0.2781,-0.1948,-0.2417
1370,863,826,34.508,34.297,0.0316,0.0025,9.8552,0.2275,0.1468,0.9567
1375,849,828,34.557,34.212,-0.0073,-0.0006,9.7138,1.1622,0.0423,0.8195
1380,842,822,34.442,34.243,-0.0262,0.0613,9.8534,-0.6635,-0.1096,-0.4202
1385,838,817,34.543,34.26,0.0261,0.0212,9.838,-0.2631,-0.6198,0.3898
1390,829,817,34.561,34.292,-0.0184,-0.0204,9.7717,-0.3998,-0.1885,0.3657
1395,829,813,34.42,34.262,-0.064,-0.0419,9.7942,1.2618,0.4288,-0.0121
1400,820,809,34.478,34.225,-0.0753,0.0244,9.826,0.1909,-0.053,0.2658
1405,802,806,34.464,34.187,-0.0368,-0.0129,9.7937,-0.7415,0.4115,-0.4125
1410,798,798,34.425,34.235,0.08,0.0058,9.8701,0.5033,0.2842,-0.3215
1415,793,791,34.513,34.158,0.0236,0.0231,9.8249,-0.2796,0.3051,-0.7205
1420,791,795,34.529,34.192,0.0937,0.0742,9.7123,0.4727,-0.0477,0.1067
1425,776,788,34.496,34.213,0.0261,0.0126,9.7689,-0.5758,-0.075,0.5055
1430,767,787,34.435,34.283,-0.0838,-0.1188,9.7936,-0.0983,0.0592,-0.6799
1435,774,783,34.469,34.309,-0.0651,-0.0441,9.84,-0.0406,-0.0033,-0.0184
1440,771,779,34.445,34.161,-0.0258,0.0094,9.7666,0.0128,0.0849,-0.3958
1445,746,773,34.508,34.225,0.0193,-0.0053,9.7635,0.2242,0.459,0.1573
1450,766,774,34.507,34.214,0.0469,0.0367,9.9347,-0.8411,-0.1857,-0.1952
1455,756,763,34.496,34.246,-0.0093,-0.0123,9.8022,0.0429,-0.6333,-0.424
1460,750,754,34.477,34.226,-0.0457,-0.0686,9.7871,0.7143,0.1785,-1.2963
1465,749,752,34.487,34.149,-0.0285,0.0192,9.898,-0.7525,0.0726,0.4217
1470,744,751,34.487,34.203,-0.0161,0.0711,9.815,-0.1118,0.1247,-0.2367
1475,748,746,34.511,34.284,0.0299,-0.003,9.7974,0.3556,-0.2696,-1.0812
1480,752,738,34.499,34.27,-0.0027,-0.0492,9.8969,-0.1877,0.1368,-0.8402
1485,738,733,34.518,34.236,-0.0035,0.0761,9.7703,0.3379,0.4022,-0.0546
1490,753,728,34.525,34.234,-0.0352,0.0112,9.8556,0.1963,-0.0178,0.3029
1495,745,724,34.47,34.187,0.014,0.0716,9.7864,0.0731,0.0626,0.5303
1500,752,718,34.622,34.22,-0.0122,0.044,9.8057,-0.531,-0.4061,0.6561
1505,760,714,34.433,34.28,0.0193,-0.1031,9.8428,0.6865,-0.1749,0.021
1510,752,711,34.525,34.262,-0.1098,0.046,9.7986,-0.2425,0.1552,-0.7553
1515,767,706,34.532,34.316,0.0401,-0.074,9.7314,0.2083,0.5601,-0.9913
1520,767,705,34.526,34.244,0.0478,0.033,9.9282,1.0427,1.2188,0.3275
1525,774,696,34.418,34.265,-0.089,-0.0277,9.8109,0.5166,-0.4263,0.5073
1530,778,692,34.536,34.323,0.0569,-0.0025,9.6855,0.964,-0.1341,0.8938
1535,784,684,34.509,34.24,0.0348,-0.0104,9.7992,0.1229,-0.1879,0.292
1540,799,680,34.51,34.224,-0.0149,0.013,9.7431,1.0732,-0.417,-0.4367
1545,791,674,34.424,34.224,0.0937,-0.0963,9.7671,1.2705,0.2193,-0.39
1550,805,673,34.51,34.237,0.0891,0.0258,9.8059,-0.7216,-0.486,0.6161
1555,814,673,34.497,34.304,-0.0477,-0.0384,9.8565,0.3434,0.2017,-0.3254
1560,822,673,34.468,34.184,-0.043,0.0519,9.7153,0.1488,0.109,-0.0731
1565,839,671,34.592,34.249,-0.0179,0.1085,9.8536,-0.7952,-1.4792,-0.3725
1570,846,661,34.5,34.22,-0.0242,-0.0353,9.8074,0.1499,-0.7783,0.1257
1575,856,657,34.472,34.285,0.0448,-0.1383,9.746,0.3834,0.1405,-0.5911
1580,860,662,34.535,34.238,0.0178,0.0531,9.7941,-0.6394,0.1285,0.4802
1585,879,657,34.473,34.201,-0.0596,-0.0246,9.7977,0.3513,-0.9346,-0.6338
1590,889,653,34.481,34.271,0.0278,0.0709,9.7329,0.5824,0.1931,0.3891
1595,899,648,34.54,34.32,0.006,0.0512,9.7804,0.8024,0.8046,-0.3059
1600,901,655,34.453,34.243,-0.0299,-0.0134,9.811,-0.2374,-0.7592,0.4578
1605,928,652,34.424,34.226,0.0694,0.063,9.7645,-0.1681,0.0918,0.1038
1610,928,659,34.401,34.305,-0.0807,-0.01,9.8038,-0.456,0.3368,-0.1419
1615,940,649,34.529,34.268,0.0541,0.0243,9.8048,-0.0881,-0.427,-0.524
1620,959,653,34.48,34.192,0.0989,0.0139,9.8277,0.3262,-0.4744,-0.2963
1625,964,651,34.518,34.282,-0.1066,0.0872,9.7856,0.09,0.5923,-0.448
1630,985,658,34.508,34.294,-0.0343,-0.0352,9.7811,0.0072,-0.4499,-0.6644
1635,983,657,34.455,34.165,0.0222,0.0944,9.8782,0.1228,-0.4713,-0.1108
1640,999,657,34.482,34.249,-0.0388,0.0113,9.8563,-0.938,0.1872,-0.6435
1645,1002,661,34.495,34.254,0.0621,0.0168,9.9113,-0.083,0.5571,0.0355
1650,1021,664,34.521,34.208,-0.016,-0.0021,9.7844,0.386,-0.2106,-0.5241
1655,1034,667,34.523,34.228,0.0398,0.0723,9.7925,0.8124,0.7038,0.2895
1660,1043,669,34.453,34.198,0.0147,-0.0869,9.9081,-0.2107,-0.2646,0.6755
1665,1054,672,34.576,34.324,0.1075,-0.0549,9.8052,0.4853,-0.779,-0.3846
1670,1067,674,34.526,34.189,0.0556,0.0269,9.7613,-0.1606,-0.4111,-0.0022
1675,1077,682,34.529,34.218,-0.0807,0.047,9.8518,-1.1826,0.4572,-0.2025
1680,1085,685,34.398,34.302,0.0218,-0.0712,9.7898,-1.2787,-0.2309,0.1085
1685,1096,692,34.496,34.333,-0.0042,-0.0624,9.7935,-0.0115,0.8184,0.3492
1690,1105,695,34.455,34.222,-0.0158,-0.0228,9.8555,-0.4266,0.3126,0.4725
1695,1115,694,34.545,34.269,-0.1169,0.0613,9.8452,0.1137,-0.0461,-0.53
1700,1119,704,34.604,34.277,-0.0739,0.068,9.8309,-1.0081,0.0562,0.2707
1705,1125,711,34.478,34.254,-0.0878,0.0997,9.8096,-1.163,-0.6063,0.7431
1710,1135,718,34.553,34.33,-0.0039,-0.0197,9.8696,0.086,0.5605,0.5693
1715,1143,731,34.506,34.202,0.0253,-0.0495,9.7671,-0.2615,-0.5903,-0.0104
1720,1150,734,34.496,34.245,-0.0014,-0.0658,9.8317,0.6954,-0.341,0.102
1725,1148,740,34.472,34.257,0.0576,0.0356,9.8392,-0.8897,0.1384,0.1924
1730,1160,743,34.515,34.382,-0.0511,0.0817,9.8088,0.6346,0.6107,-0.3177
1735,1162,745,34.523,34.251,0.0409,0.0627,9.7032,0.3801,0.0328,0.4024
1740,1165,761,34.44,34.277,0.045,-0.1368,9.8978,0.3987,0.2272,0.0805
1745,1177,767,34.505,34.252,-0.0205,-0.0359,9.7749,0.5446,-0.7428,-0.6732
1750,1175,775,34.559,34.228,0.0292,-0.031,9.9046,-0.1071,0.0074,0.4789
1755,1175,777,34.508,34.278,-0.0716,-0.0893,9.9255,0.0938,0.6183,0.1503
1760,1180,786,34.495,34.284,-0.0171,-0.0269,9.7788,0.7276,-0.9921,0.1959
1765,1175,797,34.497,34.212,-0.0688,0.0304,9.8782,0.4928,-0.186,-0.8317
1770,1184,802,34.48,34.191,0.0405,0.0618,9.804,1.1292,-0.7313,0.586
1775,1187,811,34.406,34.198,0.0255,-0.1232,9.6967,-0.4728,-0.278,-0.5719
1780,1187,807,34.428,34.177,-0.0499,-0.039,9.8632,0.6485,-0.7322,-0.1259
1785,1178,819,34.496,34.159,0.0472,-0.0511,9.8221,-0.1422,-0.0939,-0.0679
1790,1186,825,34.477,34.218,0.0535,-0.0394,9.7837,0.2671,-0.0339,0.4242
1795,1185,835,34.46,34.231,0.0434,0.0887,9.8284,-1.6591,-0.1569,0.285
1800,1178,839,34.548,34.279,-0.0422,-0.0331,9.8415,-0.0572,-0.1797,-0.5093
1805,1183,842,34.509,34.257,-0.0632,-0.0391,9.7609,-0.2631,0.3412,0.0095
1810,1188,852,34.557,34.22,0.0333,-0.0458,9.7412,0.5934,-0.2005,0.8943
1815,1187,858,34.447,34.194,-0.0064,0.029,9.8214,0.5525,-0.1958,-0.5267
1820,1172,861,34.588,34.224,0.0104,-0.0182,9.8076,-0.0679,-0.0106,0.6263
1825,1182,863,34.475,34.14,-0.0122,0.0475,9.7937,-0.0198,-0.4401,0.2433
1830,1176,873,34.461,34.317,-0.0736,-0.0631,9.7865,1.5918,0.4233,0.4187
1835,1167,876,34.46,34.205,-0.0348,0.0045,9.8332,-0.3574,-0.3111,-0.3965
1840,1170,878,34.439,34.298,0.0423,0.0113,9.8567,0.7189,-0.7988,0.2538
1845,1166,884,34.517,34.31,0.0388,0.0592,9.8499,-0.6482,-0.1201,0.106
1850,1160,886,34.557,34.32,0.0143,0.0493,9.8183,0.2656,-0.013,0.0568
1855,1150,886,34.527,34.236,0.0876,-0.0291,9.876,-0.2335,0.1555,-0.5304
1860,1155,900,34.428,34.269,0.0157,0.0271,9.8288,0.7103,-0.0348,0.9439
1865,1151,893,34.392,34.361,0.0177,-0.0304,9.7926,-0.0418,0.2146,-0.4723
1870,1148,907,34.53,34.11,0.0457,0.0411,9.7275,0.0443,-0.4915,-0.2117
1875,1140,904,34.448,34.249,0.0034,-0.0754,9.8281,-1.4599,0.057,-0.3472
1880,1150,907,34.464,34.173,0.0055,-0.0011,9.9499,-0.4115,0.22,-0.09
1885,1150,905,34.499,34.259,-0.0393,0.0385,9.8309,-0.877,0.2643,-0.7612
1890,1141,909,34.565,34.215,-0.0415,0.0688,9.8123,0.0483,0.4172,0.3342
1895,1137,906,34.534,34.29,0.0846,-0.0513,9.8429,-0.5342,-0.6898,0.6833
1900,1140,909,34.395,34.229,0.0397,0.0282,9.8177,-0.1554,-0.6485,0.0736
1905,1134,904,34.537,34.258,0.0038,-0.0062,9.7998,-0.544,-0.0257,0.1982
1910,1138,907,34.426,34.162,-0.0107,0.04,9.8581,-0.0108,-1.2863,-0.7112
1915,1129,910,34.496,34.275,0.0285,0.0904,9.7855,-0.4,-0.2872,0.7888
1920,1128,906,34.437,34.276,0.031,0.0202,9.7485,-0.5592,-0.3211,-0.1446
1925,1126,904,34.463,34.251,0.0023,-0.0689,9.7742,0.0885,0.2239,0.3842
1930,1114,908,34.485,34.34,-0.0162,-0.0003,9.8152,-0.2327,-0.4078,-0.2248
1935,1118,909,34.496,34.329,-0.0632,0.0183,9.7846,0.2145,0.2407,0.8723
1940,1112,908,34.587,34.177,-0.0616,0.0772,9.742,0.1169,-0.3521,-0.699
1945,1108,908,34.478,34.281,0.0673,0.1021,9.8424,0.2986,-0.2536,0.294
1950,1108,902,34.537,34.307,0.0529,-0.0029,9.8679,-0.3745,-0.5635,-1.1897
1955,1114,906,34.45,34.307,0.019,-0.0092,9.8432,0.0676,0.458,-0.1173
1960,1105,897,34.419,34.227,-0.0412,0.1111,9.7823,0.2014,0.2581,0.3431
1965,1097,905,34.527,34.286,0.0582,0.0558,9.7217,-0.144,-0.2262,-0.0362
1970,1098,900,34.504,34.32,-0.0083,0.0256,9.8235,-0.0849,0.8729,0.6258
1975,1090,899,34.456,34.306,-0.0587,-0.0062,9.8037,-0.1852,-0.4177,0.3167
1980,1097,897,34.497,34.245,-0.0096,-0.0449,9.6754,0.6532,0.2061,0.4325
1985,1089,902,34.505,34.228,-0.0118,0.0085,9.739,0.6131,-0.7556,0.2582
1990,1092,890,34.523,34.209,-0.0679,0.0104,9.6912,-0.1586,0.6801,0.5075
1995,1087,892,34.506,34.274,0.0898,0.0097,9.7793,-0.626,0.3757,-0.2317
2000,1087,893,34.557,34.179,0.0368,-0.107,9.8696,-0.9022,-0.8978,0.2261
2005,1090,886,34.491,34.217,0.0156,-0.1446,9.8581,-1.1219,0.1312,1.0961
2009,1086,886,34.36,34.285,-0.0099,0.0254,9.7759,-0.2862,0.5957,-0.5967
2015,1079,884,34.604,34.226,-0.0584,0.0041,9.8568,-0.1683,-0.2279,0.3234
2020,1085,887,34.584,34.13,0.0136,0.0372,9.8573,0.7132,-0.4019,0.3379
2025,1078,881,34.532,34.244,0.0348,0.0132,9.8725,0.9279,0.6161,0.1118
2029,1069,881,34.532,34.144,-0.0272,-0.054,9.7859,0.0777,-0.3142,-1.0338
2035,1070,878,34.494,34.219,-0.0733,-0.0042,9.724,0.4546,0.0345,-0.2378
2040,1070,872,34.394,34.266,0.059,0.0248,9.756,-0.2114,0.3423,0.1486
2045,1060,871,34.655,34.164,-0.0741,-0.0077,9.8624,0.5517,0.0731,0.5483
2050,1052,875,34.506,34.313,-0.0141,0.0283,9.8077,0.3927,-0.1701,0.3483
2055,1055,867,34.458,34.305,-0.0672,-0.0586,9.796,-0.3511,0.4549,-0.3373
2060,1059,873,34.496,34.263,0.0182,-0.0327,9.765,0.4601,-0.2282,-0.5844
2065,1058,869,34.49,34.267,-0.0254,0.0014,9.7526,0.2148,0.5098,-0.5059
2070,1051,866,34.53,34.206,0.0131,-0.0808,9.8063,0.2359,-0.3486,0.9673
2075,1035,864,34.473,34.274,0.0593,-0.0191,9.7772,0.2762,-0.4529,0.2239
2080,1031,860,34.387,34.31,0.0702,0.0439,9.8455,-0.5705,-0.5035,0.0598
2085,1038,861,34.496,34.32,-0.0074,-0.0243,9.764,-0.3113,0.2352,-0.3631
2090,1025,862,34.567,34.213,-0.0156,-0.0219,9.7667,1.0276,0.8254,-0.1318
2095,1022,861,34.521,34.268,0.0427,0.0208,9.7229,0.6464,-0.3289,-1.0333
2100,1020,858,34.557,34.402,-0.0958,-0.1052,9.7363,0.1543,0.0745,-0.0228
2105,1013,864,34.557,34.248,0.0135,0.0201,9.7295,0.8108,-0.0321,0.2454
2110,995,852,34.435,34.252,0.0658,-0.1052,9.807,0.0788,-0.2684,-0.0028
2115,998,858,34.513,34.17,0.0076,-0.0147,9.7879,0.8704,-0.1936,-0.2179
2120,991,857,34.433,34.281,0.0228,0.0563,9.9023,-0.0954,0.4229,-0.2205
2125,990,859,34.475,34.296,-0.0975,-0.0164,9.8324,-0.4555,0.1938,-0.2698
2130,976,853,34.536,34.302,0.0691,-0.0356,9.9633,-0.1262,0.265,-0.7954
2135,966,847,34.417,34.189,-0.0538,-0.0083,9.7839,-0.5916,-0.3255,0.5017
2140,960,851,34.459,34.334,0.0596,-0.0352,9.7827,0.1915,0.379,-0.4104
2145,944,840,34.603,34.315,0.0934,0.0751,9.804,0.6864,0.2044,-0.4244
2150,945,846,34.446,34.222,-0.0095,-0.0126,9.7954,-0.2789,0.6404,-0.5449
2155,941,846,34.567,34.29,0.0545,-0.0196,9.8541,0.1817,0.4155,-0.5948
2160,929,844,34.57,34.283,-0.0106,0.1567,9.8438,-0.3747,0.1211,0.189
2165,917,843,34.519,34.329,-0.1365,0.0487,9.8154,-0.9159,0.2468,0.1581
2170,917,839,34.504,34.31,0.1157,-0.0581,9.8488,0.2972,0.9109,0.87
2175,903,838,34.469,34.241,-0.0356,0.0343,9.867,-0.4981,-0.3961,-0.4756
2180,897,837,34.487,34.34,-0.0141,0.1165,9.816,0.2252,-0.4629,0.159
2185,889,835,34.5,34.357,0.0834,-0.0777,9.7445,0.5572,-0.1211,0.068
2190,871,830,34.449,34.265,-0.0299,-0.0297,9.9297,0.4895,0.3107,0.1245
2195,871,828,34.484,34.253,0.0165,-0.0241,9.8784,-0.6302,0.4143,0.0154
2200,862,826,34.516,34.276,-0.0489,-0.0223,9.806,-0.0501,-0.7883,0.4842
2205,854,820,34.48,34.2,-0.0113,0.0013,9.7966,0.4803,0.2281,0.1459
2210,837,823,34.406,34.255,0.0893,-0.0264,9.814,0.518,-0.116,-1.3913
2215,831,825,34.575,34.271,0.0037,-0.0099,9.8364,-0.3656,-0.3202,-0.7808
2220,832,817,34.459,34.191,-0.0635,-0.011,9.8107,-0.5401,-0.3844,-0.4036
2225,823,810,34.559,34.27,-0.0638,0.0032,9.7504,0.2806,0.8965,-0.0241
2230,810,810,34.498,34.242,0.0006,0.1322,9.847,-0.0875,-0.261,-0.0547
2235,804,808,34.469,34.224,0.029,0.0181,9.7913,0.1131,0.5091,-0.529
2240,802,801,34.456,34.348,-0.0809,0.0526,9.8394,-0.4947,0.3131,-0.3129
2245,791,796,34.5,34.296,0.0436,-0.0035,9.7096,-0.6257,0.4474,0.3032
2250,787,795,34.528,34.288,-0.0379,0.0981,9.7844,-0.856,0.0353,-0.1166
2255,775,791,34.511,34.287,0.0255,-0.0383,9.8065,0.0763,-0.1073,0.2664
2260,772,780,34.515,34.072,0.0285,0.0158,9.8146,0.8098,-0.6838,-0.1989
2265,765,782,34.474,34.24,-0.0903,0.0124,9.8385,0.3386,0.5463,0.8082
2270,765,780,34.477,34.197,0.068,0.0362,9.7943,-0.7169,-0.8846,0.2348
2275,764,776,34.52,34.304,-0.011,0.0356,9.8244,0.0242,0.0989,0.661
2280,760,765,34.481,34.303,0.0264,0.0103,9.8145,-0.0993,0.2238,-0.5755
2285,744,761,34.475,34.263,-0.0094,0.0008,9.7742,-0.1552,-0.0926,0.1657
2290,756,757,34.443,34.295,0.0554,-0.0509,9.7697,-0.4442,0.1145,-0.373
2295,755,756,34.553,34.279,0.0765,0.0016,9.7579,0.0401,-0.4817,0.4008
2300,751,746,34.476,34.201,0.073,0.01,9.7255,-0.0289,-0.1432,0.6855
2305,756,744,34.505,34.193,0.0712,-0.0743,9.739,-0.0463,-0.5323,-0.2215
2310,743,742,34.476,34.252,0.0586,-0.0341,9.7936,-0.2132,-0.0108,-0.3394
2315,749,733,34.557,34.287,0.0082,-0.0418,9.7803,0.4052,-0.1043,-0.0599
2320,745,724,34.557,34.172,0.081,-0.0125,9.7608,0.3122,-0.4416,-0.3416
2325,753,722,34.528,34.207,0.1392,-0.0894,9.8515,0.0416,-1.1145,0.5467
2330,749,718,34.374,34.229,0.1123,-0.0539,9.8665,0.1255,0.4046,-0.2981
2335,757,716,34.496,34.239,-0.0212,-0.0216,9.87,-0.7122,-0.2806,-0.2822
2340,765,705,34.47,34.366,-0.0443,-0.0339,9.8148,0.3427,0.4416,0.0425
2345,771,706,34.559,34.291,-0.0232,-0.0382,9.8792,0.1993,0.1845,-0.2113
2350,770,698,34.445,34.177,0.1028,-0.0583,9.8187,0.7648,-0.4834,0.2357
2355,773,696,34.542,34.144,0.0488,0.0764,9.7381,0.0633,-0.8908,-0.4548
2360,775,689,34.501,34.253,-0.0193,-0.1061,9.8149,0.3042,-0.6642,-0.341
2365,788,687,34.464,34.287,0.0367,-0.0163,9.7663,0.3877,0.3911,0.4284
2370,802,679,34.488,34.189,-0.006,0.0018,9.8168,0.5633,0.1102,-0.7296
2375,807,671,34.544,34.252,0.0045,0.0369,9.7409,0.4939,0.4363,0.1909
2380,802,675,34.496,34.301,0.0188,0.0397,9.7437,-0.7253,-0.3643,-0.1012
2385,824,676,34.577,34.284,-0.0396,-0.0171,9.7475,-0.4224,-0.0675,-0.673
2390,816,663,34.581,34.259,-0.0106,-0.0,9.8561,0.3932,0.7619,-0.226
2395,835,664,34.552,34.193,0.024,0.0347,9.8174,0.8877,-0.2613,-0.8811
2400,850,658,34.5,34.302,-0.0066,-0.0354,9.8703,0.0067,0.5516,-1.0732
2405,853,661,34.409,34.304,-0.0095,0.0132,9.7675,0.3752,-0.2002,-0.6941
2410,864,654,34.511,34.219,-0.0048,0.0241,9.8098,-0.2321,-0.2892,0.0958
2415,875,660,34.573,34.271,0.0005,-0.0688,9.747,0.0279,-0.9785,0.349
2420,883,653,34.49,34.259,-0.0248,0.0217,9.7692,-0.3172,-0.1292,-0.3994
2425,909,656,34.437,34.272,-0.0068,-0.0297,9.7405,0.3942,-0.5472,0.5642
2430,911,649,34.483,34.254,-0.0393,-0.0068,9.8646,-0.6543,1.1137,0.0293
2435,919,651,34.587,34.25,-0.022,-0.0014,9.8561,0.3403,0.288,0.1059
2440,934,645,34.483,34.281,-0.0261,-0.0644,9.8775,0.7265,-0.6998,0.3567
2445,943,653,34.474,34.228,-0.0562,0.0248,9.846,0.6287,0.5922,-0.0322
2450,959,653,34.449,34.364,-0.0211,0.0461,9.9224,0.471,-0.6248,0.4856
2455,967,651,34.484,34.327,0.0326,-0.0169,9.7689,0.495,-0.485,0.3102
2460,977,656,34.536,34.337,0.022,0.0566,9.8374,-1.1637,-0.9124,0.2771
2465,991,655,34.587,34.249,-0.0194,-0.0022,9.8036,0.3983,-0.0577,0.3336
2470,1005,652,34.595,34.209,0.0263,0.0362,9.8009,0.9485,0.692,0.0338
2475,1006,659,34.591,34.294,-0.0004,0.0059,9.788,0.7524,0.8477,0.2834
2480,1030,664,34.528,34.277,0.017,-0.0088,9.821,-0.0446,-0.5574,0.2425
2485,1040,668,34.511,34.251,0.0252,-0.075,9.8612,-0.8247,0.2121,-0.1909
2490,1047,671,34.555,34.346,0.0716,-0.0411,9.8012,0.0807,0.2682,0.0201
2495,1059,677,34.522,34.24,0.0337,-0.0122,9.842,0.2109,-0.033,0.1292
2500,1067,678,34.493,34.232,-0.0176,0.0674,9.9114,-0.1331,0.2703,-0.7633
2505,1079,681,34.553,34.174,0.0167,-0.0071,9.7777,0.7864,-0.3875,0.5517
2510,1085,688,34.5,34.236,-0.0232,-0.0668,9.7507,-0.6305,0.9993,0.2253
2515,1095,691,34.515,34.243,-0.0304,0.0746,9.8639,-0.5459,0.0716,-0.0298
2520,1102,694,34.494,34.239,0.0222,-0.0741,9.8441,-0.0835,-0.3806,0.5023
2525,1116,703,34.502,34.194,-0.0019,0.0993,9.8539,-0.3633,0.3315,-0.3934
2530,1123,707,34.514,34.258,-0.0352,0.0472,9.8464,0.5618,-0.3996,-0.5682
2535,1125,719,34.515,34.151,-0.0542,0.0397,9.8286,-0.4709,-0.7315,-0.1457
2540,1150,721,34.419,34.265,-0.0196,0.0062,9.8816,-0.2267,0.5114,0.3797
2545,1145,724,34.473,34.41,-0.1161,0.0686,9.7236,0.1642,-0.0811,-0.6701
2550,1152,732,34.477,34.321,0.01,0.0225,9.8414,1.0301,-0.4052,0.3822
2555,1161,737,34.468,34.246,0.0096,-0.0012,9.8252,-0.4303,0.4416,1.1305
2560,1164,746,34.441,34.368,-0.0047,-0.0299,9.8235,-0.049,0.5331,0.318
2565,1162,755,34.538,34.228,-0.1059,0.0767,9.7769,-0.0309,-0.1747,0.7532
2570,1177,756,34.477,34.229,-0.0177,-0.0093,9.7741,0.6525,-0.1219,0.0466
2575,1173,770,34.52,34.246,0.0288,-0.0253,9.8551,-0.1202,-0.2234,0.2195
2580,1178,771,34.549,34.274,-0.0609,-0.0269,9.8267,0.7408,-0.1515,-0.1447
2585,1171,780,34.45,34.245,-0.0122,0.0371,9.7615,0.296,0.4135,-0.0126
2590,1174,788,34.523,34.352,-0.067,0.1232,9.8337,-0.105,-0.1285,0.2202
2595,1185,795,34.586,34.185,0.0205,-0.0166,9.7368,-0.108,-0.5011,0.3146
2600,1187,802,34.548,34.176,0.024,0.0258,9.8282,0.2961,-0.0455,-0.9059
2605,1197,813,34.546,34.183,-0.0161,0.0827,9.9208,-0.2594,0.233,0.7876
2610,1196,814,34.523,34.278,0.0473,0.0514,9.8792,1.3225,0.7861,0.1045
2615,1185,826,34.538,34.206,0.0227,-0.0302,9.828,0.52,0.7346,-0.3397
2620,1192,818,34.621,34.316,0.0585,-0.0153,9.8487,-0.0583,-0.1003,0.6893
2625,1184,833,34.54,34.292,-0.0288,0.0094,9.8198,-0.6038,-0.2182,0.8216
2630,1177,843,34.5,34.258,-0.0092,0.005,9.8499,0.0774,0.111,-0.4439
2635,1189,845,34.556,34.341,0.0381,-0.063,9.7884,-0.7061,-0.19,-0.4964
2640,1182,856,34.537,34.174,0.0153,-0.0712,9.7249,-0.1912,0.0631,1.3363
2645,1183,856,34.546,34.225,-0.0567,-0.0235,9.8768,0.3411,-0.8669,-0.1197
2650,1183,859,34.558,34.354,0.0407,0.0113,9.9005,1.0013,0.1983,0.4612
2655,1170,869,34.575,34.238,-0.0831,-0.0172,9.8276,-0.3991,0.1022,0.0163
2660,1168,875,34.562,34.228,-0.0303,0.0847,9.8419,-0.5279,-0.4116,-0.8573
2665,1170,875,34.557,34.216,-0.109,-0.0841,9.8275,-0.2158,0.4662,0.0357
2670,1168,878,34.564,34.298,0.0031,-0.016,9.8329,0.2478,-0.1012,-0.6465
2675,1177,885,34.516,34.266,0.0248,0.043,9.8272,0.4421,-0.4532,0.1717
2680,1166,888,34.426,34.249,-0.0253,0.0081,9.7872,-0.5222,0.2915,0.0254
2685,1162,890,34.51,34.275,-0.0288,0.0038,9.7734,-0.3701,-0.1261,-0.2183
2690,1163,893,34.475,34.178,-0.061,0.1039,9.7814,-0.6452,-0.0036,-0.4767
2695,1161,900,34.537,34.264,-0.0264,0.0108,9.8714,0.3463,-0.0254,0.6832
2700,1154,894,34.564,34.31,-0.0965,0.0022,9.8123,0.3315,-0.07,0.1641
2705,1150,909,34.549,34.162,-0.0175,0.1273,9.8446,0.0569,0.4458,0.9359
2710,1153,906,34.45,34.284,-0.0035,-0.0201,9.7991,0.0514,0.0058,-0.1467
2715,1148,906,34.513,34.181,-0.0129,-0.0431,9.8114,-0.1575,-0.994,-0.836
2720,1134,901,34.559,34.232,0.0431,-0.0197,9.8635,0.5648,0.3288,-0.3081
2725,1138,907,34.407,34.192,0.0205,0.0688,9.8744,-0.1266,0.2794,-0.3505
2730,1143,910,34.543,34.273,-0.0242,-0.0192,9.8472,0.6963,-0.5826,0.0989
2735,1126,912,34.479,34.269,0.0137,-0.0286,9.7883,0.7736,-0.3033,-0.546
2740,1120,908,34.499,34.199,0.0042,-0.052,9.8413,-0.6538,-1.1361,-0.1185
2745,1135,909,34.409,34.214,0.1137,-0.0794,9.8066,0.017,-0.3337,-0.3892
2750,1117,909,34.456,34.25,0.0298,0.0879,9.7454,0.5557,-0.7784,-0.1736
2755,1121,914,34.564,34.294,0.0007,-0.0777,9.8484,-0.5761,-0.4955,0.1214
2760,1114,912,34.483,34.232,0.0261,-0.0113,9.8341,-0.3118,0.0498,-0.0111
2765,1114,907,34.436,34.23,0.031,-0.0348,9.6804,0.8294,-0.3945,-0.219
2770,1109,906,34.523,34.28,0.0366,-0.0318,9.8059,0.1992,-0.258,-0.2087
2775,1105,910,34.583,34.253,-0.0101,0.0335,9.8332,0.0715,-0.3196,0.3587
2780,1105,907,34.485,34.289,0.0292,-0.0718,9.8375,0.4266,0.0635,0.9947
2785,1109,907,34.571,34.295,0.0224,0.0251,9.7386,0.5223,0.7,0.6917
2790,1103,900,34.385,34.27,-0.0456,-0.039,9.859,-0.746,-0.5486,-0.4047
2795,1102,904,34.469,34.239,-0.0086,0.0377,9.8647,0.6509,-0.8086,1.5409
2800,1094,900,34.51,34.282,0.0515,0.0701,9.8059,-1.0838,-0.1617,0.4526
2805,1097,900,34.503,34.222,-0.0128,0.0398,9.8079,0.0856,-0.4131,-0.5963
2810,1096,898,34.502,34.279,0.0022,0.0141,9.8184,-0.2703,0.3079,0.4308
2815,1086,890,34.501,34.19,-0.016,-0.0088,9.8069,-0.1857,-0.6968,-0.2481
2820,1089,894,34.501,34.311,0.0583,0.0994,9.8296,0.4554,-0.4229,0.3655
2825,1087,891,34.485,34.271,-0.051,-0.0724,9.7751,-1.2066,0.2567,-0.9577
2830,1084,893,34.437,34.257,0.0176,0.0207,9.8535,-0.7155,0.4183,0.1862
2835,1082,888,34.478,34.261,-0.0325,-0.0584,9.7846,0.1074,0.2447,0.6339
2840,1081,890,34.499,34.231,-0.045,0.0359,9.7788,-0.4643,-0.131,0.3853
2845,1079,883,34.449,34.211,-0.0574,0.0322,9.919,0.5943,0.8836,-0.5433
2850,1075,887,34.585,34.239,0.0223,0.02,9.8859,0.1605,-0.7509,0.6038
2855,1080,882,34.521,34.248,0.0157,-0.0408,9.7801,-0.8588,-0.6461,-0.1984
2860,1072,881,34.421,34.325,0.0157,-0.0794,9.8935,0.321,0.2475,-0.2323
2865,1076,880,34.495,34.166,0.0607,0.006,9.833,-0.1844,0.0983,-0.0943
2870,1059,875,34.518,34.254,0.0001,0.0374,9.8194,0.134,-0.035,-0.7766
2875,1066,877,34.616,34.335,-0.0053,-0.0786,9.7645,0.0846,-0.2705,-0.67
2880,1055,874,34.478,34.218,0.0433,0.079,9.7608,-0.1983,0.1836,0.4046
2885,1056,872,34.476,34.225,-0.0819,0.0016,9.7635,0.0623,0.7642,-0.9531
2890,1055,869,34.561,34.258,0.0063,0.0004,9.7042,-0.1562,-0.9036,0.4169
2895,1042,866,34.542,34.266,-0.079,-0.0457,9.8711,-0.52,-0.1543,0.2502
2900,1048,866,34.492,34.251,0.0356,-0.0395,9.8046,-0.3615,0.3871,0.6037
2905,1038,861,34.505,34.282,0.0109,-0.1103,9.826,0.3518,0.0664,-0.2961
2910,1031,866,34.453,34.225,0.0577,-0.0138,9.845,0.3102,-0.3784,0.2086
2915,1028,860,34.419,34.299,-0.0339,0.0412,9.7855,-0.1541,0.2502,0.14
2920,1032,861,34.499,34.279,-0.0671,-0.0888,9.8624,0.2044,0.6452,0.0568
2925,1010,855,34.526,34.269,0.0094,0.0126,9.7593,0.7843,0.7481,-0.8087
2930,1012,863,34.406,34.365,0.0529,-0.0135,9.8141,0.1494,0.7925,0.2586
2935,1005,854,34.481,34.261,0.028,0.0359,9.8644,0.6308,-0.4727,0.9297
2940,996,856,34.466,34.221,0.014,-0.0289,9.8199,0.0623,0.3449,-0.163
2945,997,853,34.473,34.239,-0.008,0.0478,9.7808,-0.6363,0.5109,-0.2052
2950,990,856,34.447,34.356,0.0845,0.0324,9.7723,-0.1381,0.1363,0.5455
2955,980,852,34.539,34.317,-0.0353,-0.0414,9.85,0.8743,1.3571,-0.3507
2960,968,847,34.527,34.269,0.0225,0.014,9.9029,0.5948,-0.5381,-0.093
2965,962,845,34.571,34.324,0.0423,-0.0646,9.8203,0.2258,-0.5656,-0.0064
2970,961,851,34.427,34.226,0.0671,0.0137,9.7539,-0.0516,-1.2417,0.1134
2975,965,846,34.493,34.285,-0.1053,-0.0497,9.8724,-0.9875,-0.7944,0.3257
2980,952,851,34.53,34.326,-0.0927,-0.081,9.8612,0.8689,0.3573,-1.1707
2985,933,848,34.489,34.227,-0.0235,-0.0926,9.7975,-0.2337,-0.3394,0.6804
2990,931,848,34.533,34.243,0.0598,0.0239,9.848,-0.1433,-0.0051,0.0152
2995,920,844,34.605,34.312,0.065,-0.029,9.7715,-0.6025,-0.6435,0.0462
3000,903,837,34.5,34.31,0.0706,-0.1169,9.7486,-0.3221,0.4639,0.7268
3005,913,838,34.454,34.314,0.0383,0.0141,9.8011,-0.8022,0.1274,-0.2784
3010,909,832,34.465,34.333,0.0005,0.0202,9.8071,0.0196,0.2269,-0.2514
3015,885,831,34.457,34.164,0.051,-0.0082,9.7256,-0.5288,-0.7072,0.5333
3020,879,830,34.463,34.285,0.0215,0.0275,9.755,0.1865,1.0251,0.1638
3025,874,831,34.591,34.35,-0.0523,0.056,9.852,-0.2785,-0.0334,0.0106
3030,865,823,34.556,34.275,0.0091,-0.0579,9.7706,-0.4856,-0.65,-0.5555
3035,857,828,34.48,34.31,0.075,0.0448,9.7222,-0.3776,0.4445,-0.4709
3040,850,817,34.562,34.282,0.0449,0.0306,9.726,0.1726,-0.3195,0.8743
3045,829,817,34.576,34.204,0.0608,-0.1007,9.823,-0.2568,0.4978,-0.464
3050,837,815,34.446,34.183,-0.0174,-0.0029,9.7761,-0.9034,-0.022,-0.2964
3055,820,813,34.588,34.218,0.0608,0.0233,9.866,-0.4501,-0.5889,-0.5884
3060,803,812,34.408,34.315,0.0592,0.048,9.9045,-0.2593,0.0278,-0.1139
3065,801,803,34.48,34.299,0.0402,-0.06,9.8466,0.4529,0.5428,0.3412
3070,799,797,34.438,34.343,0.0068,0.1045,9.702,0.0052,0.0544,-0.1398
3075,787,801,34.476,34.222,-0.0221,0.0668,9.8566,-0.4801,0.0814,-0.057
3080,790,790,34.492,34.325,-0.0573,0.0093,9.8182,-0.1691,0.0925,-0.7761
3085,779,787,34.545,34.328,0.056,-0.033,9.7706,0.0742,0.3498,-0.5655
3090,774,786,34.494,34.27,0.0995,0.044,9.8011,0.6904,0.2647,0.51
3095,769,778,34.485,34.218,0.0266,-0.0698,9.843,0.2465,-0.2057,0.2905
3100,763,775,34.521,34.267,0.0039,-0.019,9.7969,-0.3289,0.3233,-0.3102
3105,759,769,34.611,34.261,0.0453,0.0304,9.7754,-0.6459,0.0424,0.1334
3110,755,769,34.477,34.181,-0.043,0.1133,9.82,-0.2658,-0.3532,-0.0494
3115,751,761,34.579,34.3,0.0669,-0.006,9.7651,-0.1782,0.4154,-0.4151
3120,756,756,34.525,34.278,-0.0187,0.0221,9.769,0.5646,-0.6505,0.0186
3125,751,754,34.585,34.187,0.0435,0.0294,9.8218,0.4322,0.5445,0.0612
3130,748,744,34.406,34.301,0.0197,0.0311,9.8165,-0.6372,0.1975,0.4036
3135,752,742,34.519,34.226,0.051,-0.0303,9.8222,0.5135,-0.0113,-0.2396
3140,751,737,34.561,34.326,0.0413,-0.0819,9.6946,0.9134,-0.4835,-0.7238
3145,749,733,34.539,34.146,-0.0093,-0.0291,9.8473,-0.4398,-0.2453,-0.2734
3150,752,731,34.442,34.138,0.0043,-0.0412,9.8083,-0.847,-0.213,0.1454
3155,754,721,34.584,34.311,-0.0169,0.0452,9.7635,-0.3498,0.5795,-0.4355
3160,750,717,34.434,34.317,-0.006,-0.1908,9.7647,-0.5337,-1.3585,0.2732
3165,758,705,34.604,34.253,0.0428,0.0126,9.9064,0.8352,0.1863,0.1687
3170,751,707,34.465,34.191,0.1117,0.0527,9.8086,0.3773,0.5491,0.3531
3175,763,707,34.516,34.327,0.0251,0.0362,9.8106,-0.1659,-0.8182,-0.0697
3180,763,700,34.484,34.329,0.0041,0.0492,9.79,0.0254,0.0333,-0.5594
3185,776,694,34.542,34.362,0.0363,0.0086,9.7685,0.979,-0.6942,0.3259
3190,787,689,34.581,34.272,0.0857,-0.0165,9.8093,-0.5774,-0.5384,1.0253
3195,789,684,34.531,34.3,-0.0339,-0.0142,9.772,0.5303,-0.0501,0.294
3200,805,679,34.495,34.352,-0.0124,-0.0345,9.8707,0.2248,1.0322,-0.7342
3205,802,676,34.432,34.3,-0.0124,0.0408,9.7487,0.2101,-0.7275,0.7673
3210,826,679,34.452,34.272,0.0309,0.0234,9.8303,-0.3224,-0.8573,0.294
3215,816,669,34.465,34.279,0.0531,0.0412,9.806,-0.7656,-0.6559,-0.7178
3220,831,663,34.486,34.273,-0.0439,0.0324,9.8416,-0.191,-0.9107,-1.0878
3225,835,665,34.554,34.322,-0.0067,-0.0032,9.8247,-0.1163,0.1219,0.2184
3230,853,663,34.487,34.313,0.0349,-0.0118,9.7439,-0.2127,0.1895,-0.1903
3235,857,657,34.537,34.216,-0.0751,0.013,9.9157,-0.5915,0.2794,-0.0657
3240,869,660,34.501,34.261,0.0587,0.0334,9.7992,-0.2194,0.3607,0.5343
3245,886,656,34.509,34.201,0.0528,-0.0239,9.8841,0.2464,-0.142,0.0586
3250,890,657,34.422,34.25,0.0557,0.015,9.8515,0.2994,-0.4884,-0.3363
3255,899,658,34.535,34.313,0.0153,0.0278,9.7964,0.4469,-0.6599,-0.0411
3260,911,654,34.541,34.3,-0.0689,-0.0035,9.7228,-0.2193,0.4122,-0.492
3265,916,649,34.43,34.281,-0.0264,0.0607,9.8689,0.2532,0.5431,0.0329
3270,930,653,34.547,34.185,0.015,-0.0236,9.7957,-0.4097,-0.3382,0.2346
3275,956,652,34.43,34.275,0.0286,0.0875,9.7788,-0.1529,-0.0562,0.2515
3280,959,650,34.537,34.234,0.0999,0.0334,9.7856,0.1588,-0.1435,-0.3135
3285,970,654,34.552,34.253,-0.0492,0.0464,9.8581,0.0886,-0.0562,0.0662
3290,983,657,34.383,34.33,0.0067,-0.0079,9.8149,0.3287,-0.2996,0.4554
3295,997,659,34.564,34.237,-0.0392,-0.0499,9.8685,0.3127,-0.9546,-0.0221
3300,1009,656,34.533,34.281,0.0195,0.0016,9.7643,0.3313,-0.5353,0.3902
3305,1010,661,34.495,34.229,-0.0026,-0.025,9.8477,0.3775,0.0326,0.1111
3310,1025,662,34.557,34.255,0.0347,0.0757,9.7665,0.3672,-0.3519,0.7555
3315,1037,667,34.508,34.283,0.0177,-0.055,9.8213,-0.0503,-0.2427,1.0786
3320,1048,673,34.49,34.201,0.0663,0.0258,9.9063,0.3243,0.3181,-0.6823
3325,1051,675,34.611,34.289,0.0191,-0.0848,9.9629,0.0124,-0.3789,0.2014
3330,1064,673,34.527,34.182,-0.0102,-0.0652,9.7915,0.4974,0.336,0.1237
3335,1076,681,34.472,34.226,0.0562,-0.0141,9.7282,-0.2206,-0.3325,-0.2893
3340,1089,694,34.488,34.29,0.0174,-0.1042,9.7737,0.2692,0.2789,0.0552
3345,1101,688,34.631,34.29,0.0394,0.008,9.8123,-0.177,-0.5404,-0.3607
3350,1106,696,34.482,34.254,-0.0029,-0.0166,9.7978,-0.4711,0.5404,-0.1854
3355,1120,703,34.576,34.206,-0.1005,0.0741,9.7955,-0.8106,-0.1999,-0.1766
3360,1124,711,34.46,34.281,0.0353,0.0201,9.8596,0.3301,-0.4226,0.2778
3365,1132,716,34.444,34.275,0.0003,0.0049,9.7614,0.407,0.4083,0.3803
3370,1125,724,34.609,34.246,-0.0398,0.0563,9.816,-0.4251,-0.8499,-0.1807
3375,1142,730,34.476,34.31,-0.0836,-0.0914,9.787,-0.4164,-0.0929,0.1859
3380,1140,733,34.514,34.299,0.0059,0.066,9.7856,0.2886,-0.2984,-0.9402
3385,1156,739,34.546,34.275,0.0744,0.0577,9.8323,-0.282,-0.3244,0.218
3390,1167,748,34.524,34.291,-0.0193,0.0601,9.7276,0.4855,0.4266,0.3355
3395,1160,754,34.476,34.248,0.0039,0.0744,9.7981,0.311,-0.2754,-0.5448
3400,1168,760,34.476,34.306,0.0035,0.0356,9.8304,0.2466,-0.399,-0.2146
3405,1179,767,34.466,34.34,0.0229,-0.034,9.7843,-0.5969,-0.7201,0.0648
3410,1169,774,34.598,34.303,0.0226,-0.0004,9.799,-0.4302,0.0109,-0.2613
3415,1182,783,34.401,34.195,-0.0096,-0.0164,9.8449,0.0946,-0.6612,-0.0404
3420,1182,784,34.529,34.297,0.1004,0.0086,9.7867,0.5626,-0.0625,0.0423
3425,1188,796,34.487,34.285,0.0056,0.0382,9.696,0.5363,-0.0363,-0.4936
3430,1183,803,34.53,34.326,-0.0136,0.0235,9.8802,-0.803,0.346,0.8682
3435,1187,809,34.503,34.304,-0.0034,0.0785,9.752,0.6168,0.8256,0.5741
3440,1189,818,34.562,34.18,-0.1087,-0.0092,9.7517,-0.0235,-0.5999,-0.4023
3445,1186,828,34.424,34.333,-0.0493,0.0136,9.7517,-0.2685,0.3025,0.9717
3450,1192,827,34.479,34.243,0.0894,-0.0233,9.7672,-1.3161,0.023,-1.0655
3455,1193,834,34.515,34.315,0.0507,-0.0397,9.7985,-0.3193,0.6865,-0.0568
3460,1179,843,34.473,34.282,0.0085,-0.0306,9.7363,-0.3749,0.7736,-0.2963
3465,1179,844,34.528,34.213,0.0052,-0.0296,9.8891,-0.2513,-0.5886,0.0604
3470,1193,852,34.42,34.229,0.0595,-0.0386,9.8268,0.073,0.8113,-0.2279
3475,1176,859,34.546,34.234,-0.0601,-0.0148,9.7985,-0.2315,0.6383,-1.4919
3480,1178,858,34.499,34.232,-0.0342,-0.0284,9.7509,-1.2534,-0.9073,0.0615
3485,1177,867,34.491,34.188,-0.0177,-0.0289,9.8158,-0.106,-0.4083,-0.4666
3490,1172,876,34.569,34.174,0.01,-0.0848,9.7946,0.3605,-0.6693,0.2673
3495,1175,878,34.54,34.245,-0.0062,0.0022,9.8289,0.5065,0.3259,1.424
3500,1170,885,34.444,34.269,0.0031,0.0468,9.8695,0.1339,-0.7297,-1.2309
3505,1172,884,34.597,34.262,-0.0209,0.0308,9.7876,0.2913,0.7642,-1.0695
3510,1161,885,34.55,34.284,-0.0415,0.0207,9.7534,0.6626,-0.7628,1.2837
3515,1169,887,34.521,34.304,-0.0446,-0.0351,9.8127,-0.7611,-0.3267,0.2098
3520,1145,893,34.483,34.277,0.114,0.0661,9.771,1.2027,0.0945,-0.3626
3525,1153,900,34.428,34.232,0.0049,0.0008,9.8117,-1.1198,-0.6901,-0.4139
3530,1152,904,34.501,34.291,0.0231,0.0186,9.7427,0.7895,-0.2344,0.6993
3535,1143,902,34.483,34.276,-0.1205,0.0806,9.7907,0.3004,-0.2789,-0.2378
3540,1149,902,34.535,34.254,-0.0526,0.0777,9.7791,-1.42,-0.439,0.215
3545,1144,910,34.561,34.3,-0.0269,0.0229,9.8579,0.264,-0.1485,0.1422
3550,1139,912,34.465,34.226,-0.0527,-0.0047,9.7887,-0.3022,-0.1207,0.0289
3555,1134,908,34.526,34.273,-0.0917,0.0025,9.8202,1.042,-0.651,0.4395
3560,1134,905,34.528,34.293,0.0135,0.0358,9.7052,0.3403,0.0101,-0.1157
3565,1124,908,34.495,34.268,-0.0484,-0.0213,9.8037,-1.1401,-0.4962,0.1049
3570,1123,909,34.548,34.262,-0.0265,0.0083,9.8634,-0.5127,0.2074,-0.1202
3575,1127,909,34.526,34.379,0.0205,0.0256,9.8353,0.365,0.502,0.5782
3580,1129,912,34.51,34.339,-0.0048,0.077,9.8764,-0.5316,-0.2869,0.4039
3585,1121,903,34.486,34.219,-0.0225,-0.0117,9.7753,0.2565,0.4409,0.0431
3590,1105,907,34.555,34.216,0.1099,-0.0346,9.826,-0.1398,0.622,-0.2764
3595,1113,912,34.529,34.276,0.0145,0.0283,9.7882,0.5599,-0.0592,-0.8935
3600,1118,910,34.401,34.232,0.0105,0.0592,9.7861,0.2601,0.5086,0.9133
3605,1108,906,34.457,34.282,0.0072,0.0665,9.8682,-0.8421,-0.7388,-0.3242
3610,1107,905,34.454,34.39,-0.0712,0.0124,9.8176,-0.0649,-0.4452,0.3107
3615,1112,911,34.52,34.242,0.0639,-0.008,9.8095,-0.3615,-0.9486,0.3049
3620,1098,908,34.475,34.292,0.0163,-0.003,9.7932,-0.8418,0.3757,-0.5936
3625,1095,904,34.595,34.21,0.0345,-0.043,9.8316,0.3119,-0.2463,-0.2029
3630,1100,903,34.503,34.312,0.0462,-0.0282,9.8658,-0.8915,0.4177,0.0133
3635,1093,899,34.576,34.261,-0.013,0.0228,9.7971,0.2148,-0.1976,0.0904
3640,1108,900,34.506,34.188,-0.0173,0.0276,9.7794,0.6012,-0.5559,-0.2285
3645,1096,900,34.482,34.306,0.058,0.0692,9.8355,0.2319,0.6054,0.3508
3650,1083,898,34.459,34.315,0.0359,-0.0137,9.7726,-0.1619,-0.4228,1.2786
3655,1088,892,34.358,34.241,-0.0068,-0.0049,9.8169,0.8403,-0.8533,-1.0159
3660,1081,889,34.582,34.308,-0.0777,0.0518,9.7456,0.8496,0.2221,-1.2451
3665,1085,884,34.52,34.281,0.0008,0.031,9.7722,0.6223,-0.2851,0.107
3670,1084,884,34.465,34.347,-0.0018,-0.0564,9.7731,-0.3608,-0.5214,-0.6176
3675,1080,883,34.549,34.244,-0.0747,-0.0116,9.8362,0.1452,-0.1631,-0.8257
3680,1075,880,34.569,34.337,-0.0924,-0.1063,9.7557,-0.7052,0.867,0.1528
3685,1074,882,34.577,34.314,0.0504,0.022,9.7043,0.0049,-0.7033,-0.1027
3690,1062,877,34.635,34.332,-0.0432,-0.0459,9.8282,0.3259,-0.6978,-0.6242
3695,1078,873,34.564,34.276,-0.0302,0.0319,9.7423,-0.4679,-0.3995,-1.0321
3700,1064,873,34.564,34.265,-0.0574,-0.0198,9.7851,0.8036,-0.6113,0.2815
3705,1063,875,34.532,34.321,0.0798,0.0733,9.8404,-0.0247,1.0274,0.4498
3710,1049,874,34.458,34.161,-0.0515,-0.0494,9.8916,0.2861,0.3754,0.8913
3715,1059,869,34.529,34.229,-0.0181,-0.0363,9.8086,0.1732,-0.2329,-0.6133
3720,1054,866,34.538,34.32,0.0527,0.0473,9.7808,-0.4814,0.9538,0.9414
3725,1041,865,34.538,34.206,0.0179,0.0247,9.798,-0.493,-0.3733,0.2472
3730,1041,863,34.54,34.228,-0.0572,-0.0043,9.7381,0.143,0.167,0.3584
3735,1041,861,34.472,34.218,0.0914,0.074,9.8281,-0.2529,-1.386,-0.7514
3740,1031,864,34.493,34.249,-0.0683,-0.0005,9.8318,-0.8528,0.1504,0.0819
3745,1030,861,34.534,34.347,0.0391,0.0262,9.8621,0.7265,-0.5012,-0.3779
3750,1033,856,34.55,34.309,0.0858,0.0054,9.8758,-0.3223,0.2642,-0.4524
3755,1023,863,34.538,34.293,0.0217,-0.0594,9.7994,0.1719,-0.0918,-0.5414
3760,1013,860,34.603,34.213,-0.048,-0.0555,9.8367,-0.074,-0.8941,-0.2641
3765,999,857,34.487,34.304,-0.0328,-0.0223,9.7583,-0.6253,0.1731,0.2206
3770,999,857,34.495,34.319,-0.021,0.04,9.901,0.8899,0.6959,-0.2696
3775,996,856,34.56,34.374,-0.0214,-0.0102,9.8093,0.3152,0.0214,-0.5093
3780,987,855,34.573,34.23,0.0473,0.0372,9.8402,-0.0304,-0.7255,-0.8025
3785,978,847,34.412,34.264,0.0062,-0.0871,9.8595,-0.4554,0.5179,-0.631
3790,979,853,34.443,34.281,-0.0418,0.0999,9.7517,-0.4586,0.6204,0.1393
3795,975,853,34.623,34.203,0.0198,0.0486,9.7919,-0.1626,-0.1359,0.7552
3800,962,849,34.507,34.25,0.0203,0.0027,9.7738,-0.013,-0.0299,0.3046
3805,956,849,34.524,34.351,-0.0002,-0.0411,9.7069,-0.0002,0.3998,-0.5522
3810,943,847,34.481,34.213,-0.0804,-0.001,9.8229,0.5076,-0.398,-0.4685
3815,937,844,34.497,34.213,0.0272,0.0008,9.749,-0.1339,-0.3346,-0.1643
3820,934,839,34.492,34.335,0.0013,0.0103,9.8404,-0.3645,0.6383,-0.4365
3825,913,842,34.579,34.247,0.1005,0.0311,9.7621,-0.111,0.0612,0.7852
3830,904,837,34.498,34.299,-0.0423,-0.0404,9.7743,0.4458,0.1673,-0.5087
3835,907,837,34.572,34.362,-0.013,0.0149,9.7317,0.0651,-0.0046,0.3629
3840,897,830,34.55,34.287,-0.0406,-0.0062,9.8725,0.0506,-0.2317,-0.4433
3845,878,836,34.5,34.229,0.0241,0.1245,9.8341,-0.7466,0.5454,-0.1848
3850,874,833,34.478,34.222,-0.0281,-0.0314,9.7898,0.2433,0.139,-0.3438
3855,866,823,34.545,34.323,-0.027,0.0653,9.8226,0.4331,-0.7917,0.2671
3860,860,824,34.52,34.26,0.0936,0.0381,9.7808,0.2325,-0.3121,-0.6444
3865,846,824,34.582,34.277,-0.0761,0.0018,9.8691,0.0979,0.2682,0.2593
3870,849,822,34.552,34.226,0.0272,0.0168,9.9,-0.1341,-0.3323,0.4125
3875,834,820,34.606,34.26,-0.0062,-0.0115,9.6941,-0.0502,-0.3347,1.004
3880,826,815,34.502,34.276,0.0202,0.0645,9.8009,0.1199,0.2361,-0.3551
3885,826,812,34.58,34.276,0.0447,0.0663,9.7778,-0.0031,0.7555,0.8056
3890,808,801,34.465,34.209,-0.0158,0.0151,9.8401,0.4541,-0.5513,0.1341
3895,799,806,34.511,34.281,0.0783,-0.0543,9.859,0.5881,-0.0428,0.1114
3900,800,797,34.458,34.222,0.0397,-0.0742,9.8024,0.0091,1.412,0.8961
3905,786,793,34.431,34.245,-0.0808,0.0586,9.837,0.0689,0.0396,0.2433
3910,782,794,34.514,34.275,0.0068,0.0032,9.8177,-0.1993,-0.4036,0.3669
3915,777,795,34.471,34.331,-0.0526,-0.0038,9.7628,-0.0822,-0.1682,0.5635
3920,770,783,34.469,34.361,-0.1094,0.0196,9.7694,0.0692,0.2192,0.6389
3925,772,780,34.459,34.279,0.0212,0.0537,9.8282,-0.6473,-0.0482,0.5663
3930,771,775,34.502,34.294,-0.0608,0.0254,9.8777,0.1436,-0.115,0.4462
3935,760,765,34.577,34.246,-0.0398,0.0342,9.8635,0.0714,0.4176,0.3405
3940,750,765,34.545,34.315,-0.0108,0.0776,9.8517,0.2558,0.8286,-0.7363
3945,760,760,34.533,34.151,-0.0516,-0.0062,9.7493,0.0575,0.1516,-0.5267
3950,755,758,34.55,34.312,-0.0293,0.0221,9.7994,1.2641,0.6337,0.2465
3955,738,753,34.505,34.328,-0.0079,-0.0597,9.8395,0.8289,-0.3155,-0.1027
3960,746,743,34.468,34.288,-0.0019,-0.0528,9.7578,-0.2213,-0.3289,-0.2942
3965,750,733,34.562,34.209,-0.0396,0.0014,9.8251,-0.9016,0.062,0.1006
3970,746,739,34.457,34.282,-0.0375,0.0262,9.8297,0.0921,0.8016,-0.4353
3975,762,731,34.574,34.288,-0.0136,-0.0184,9.7822,0.144,-0.7431,0.9166
3980,748,732,34.468,34.307,-0.0051,-0.0232,9.8013,0.7288,0.3904,-0.5794
3985,759,724,34.429,34.274,0.1041,0.0254,9.8613,-0.7935,0.142,-0.4713
3990,750,713,34.629,34.369,-0.0211,-0.0299,9.776,1.1022,0.8288,-0.1936
3995,750,713,34.544,34.217,0.028,0.0219,9.8347,0.9446,-0.3371,-0.0086
4000,758,706,34.403,34.293,-0.025,0.0254,9.7521,0.994,-0.1077,-0.71
4005,764,695,34.542,34.26,0.0307,0.0055,9.8179,-0.1937,-0.0044,0.5572
4010,776,697,34.521,34.334,-0.0426,0.0347,9.8697,0.1852,-0.1535,0.2491
4014,776,693,34.502,34.269,-0.0133,-0.0363,9.8831,0.1072,-0.2158,-0.4909
4019,790,683,34.515,34.317,0.0137,0.0467,9.9348,-0.1336,0.2772,-0.8416
4025,781,682,34.574,34.292,0.0019,0.0073,9.8691,-0.7458,0.122,-0.1828
4030,804,681,34.642,34.289,-0.0327,0.0687,9.807,0.5366,-0.6662,-0.7179
4035,810,680,34.541,34.243,-0.0561,-0.0602,9.8164,0.7379,0.4639,-0.1977
4040,809,671,34.528,34.357,0.0231,-0.0395,9.8483,-0.3831,0.8362,0.0336
4045,822,673,34.515,34.344,-0.0129,-0.0097,9.766,-0.6984,-0.5678,-0.3889
4050,829,663,34.561,34.261,-0.0252,0.023,9.8829,0.5241,-0.2896,0.2599
4054,832,664,34.559,34.337,0.0762,0.0904,9.772,-0.0986,-0.4994,0.1509
4059,847,662,34.51,34.313,-0.0357,-0.0649,9.8446,-0.4896,0.3644,0.6941
4065,863,652,34.544,34.362,0.0434,-0.0518,9.8254,-0.4625,-0.2305,0.0588
4070,873,659,34.488,34.191,-0.0315,-0.0185,9.7796,0.099,-0.8315,0.1044
4075,874,653,34.563,34.207,-0.0213,0.0632,9.9049,0.3715,0.1466,-0.3084
4080,894,654,34.538,34.272,-0.0112,-0.0006,9.8042,0.1619,0.3215,-0.4901
4085,896,646,34.492,34.374,0.0489,-0.0343,9.7597,-0.0829,0.2315,0.2303
4090,916,650,34.532,34.228,0.0122,-0.1152,9.853,0.2303,0.4011,-0.067
4094,933,653,34.423,34.277,-0.0218,0.0695,9.8333,-0.286,-0.0805,-0.5578
4100,930,651,34.537,34.301,-0.0336,0.0546,9.8259,0.1459,0.3428,-0.4033
4105,954,653,34.535,34.319,0.0007,-0.055,9.8929,1.0108,0.817,0.3176
4110,959,653,34.395,34.244,-0.0512,-0.0101,9.8503,0.0194,-0.5992,-0.7088
4115,968,644,34.47,34.221,-0.0189,0.003,9.7915,0.0018,1.1786,0.7988
4120,987,658,34.454,34.308,0.0122,-0.0332,9.8215,-0.7402,-0.5744,0.1973
4125,996,660,34.533,34.222,0.0003,-0.0169,9.7954,-0.1013,-0.5048,0.0001
4130,1008,657,34.512,34.316,0.077,-0.0153,9.8281,-0.6481,0.3856,0.1911
4135,1018,662,34.504,34.243,0.0358,-0.0021,9.7272,0.1271,-0.1243,-0.4802
4140,1026,665,34.482,34.316,-0.0776,-0.0348,9.8313,-0.1568,0.6642,-0.317
4145,1032,671,34.496,34.242,-0.0044,-0.014,9.7973,-0.1946,-0.8561,0.4889
4150,1052,671,34.461,34.298,0.0205,-0.0466,9.7795,0.7817,0.4833,0.2158
4155,1056,675,34.565,34.286,-0.0309,-0.06,9.8613,0.3025,-0.1786,-0.6396
4160,1067,682,34.512,34.316,0.1003,0.0317,9.9001,-0.4535,-0.1404,-0.4441
4165,1080,685,34.6,34.232,0.0523,0.0209,9.7955,0.1915,0.5526,0.0339
4170,1090,693,34.443,34.284,-0.0476,-0.0252,9.7882,-0.0324,-0.4526,-0.1355
4175,1098,693,34.499,34.284,0.0648,-0.0405,9.963,-0.2386,-1.2215,0.5402
4180,1102,702,34.44,34.253,-0.0622,-0.0288,9.6973,0.2698,-0.2091,1.0619
4185,1121,700,34.55,34.388,-0.0386,-0.0689,9.8472,-0.3705,1.0012,0.0732
4190,1115,707,34.416,34.327,-0.0729,0.0581,9.7813,0.6066,-0.4954,0.1399
4195,1129,711,34.588,34.281,0.0312,-0.0987,9.7392,0.249,-0.6719,-0.3413
4200,1147,727,34.487,34.307,0.0415,-0.0308,9.7963,-0.6595,0.7965,0.6853
4205,1142,730,34.598,34.261,-0.0378,-0.06,9.8363,0.1691,-0.371,-0.3726
4210,1150,738,34.523,34.283,-0.0962,-0.0078,9.8663,0.1087,0.093,-0.6317
4215,1161,742,34.568,34.273,0.0446,-0.0156,9.7405,1.1065,-0.3085,0.6688
4220,1160,744,34.509,34.288,0.0215,0.0394,9.7845,-0.0404,-0.3786,0.0213
4225,1168,755,34.486,34.344,0.0314,0.0177,9.8555,-0.4828,0.7077,0.3968
4230,1175,767,34.509,34.193,-0.0112,0.0535,9.8096,0.0465,-1.0615,-0.4553
4235,1174,771,34.493,34.266,0.0493,-0.0156,9.8866,-0.5608,-0.0498,0.1591
4240,1186,774,34.517,34.25,0.0284,0.0587,9.7241,0.0696,-0.2833,-0.2007
4245,1189,786,34.58,34.217,-0.0192,0.1327,9.7404,-0.4962,0.1584,0.1946
4250,1181,790,34.574,34.195,0.0059,-0.0985,9.8424,-0.2563,0.105,0.4777
4255,1189,801,34.438,34.253,0.0281,-0.0616,9.8397,0.2259,0.26,-0.3294
4260,1192,796,34.553,34.34,-0.0327,-0.0279,9.7489,0.4607,0.1844,-0.7413
4265,1190,810,34.551,34.234,0.0456,-0.037,9.739,0.1761,0.4805,0.6453
4270,1186,812,34.511,34.295,0.1243,0.0219,9.8637,0.1974,0.2073,0.1813
4275,1186,821,34.455,34.247,-0.0175,0.0204,9.7811,-0.0226,-1.3818,-0.2049
4280,1182,833,34.59,34.329,0.0518,0.0015,9.7848,-0.1759,-0.0742,-0.2671
4285,1181,832,34.456,34.273,0.0231,0.0185,9.8143,-1.3108,0.386,1.2155
4290,1181,834,34.529,34.345,0.0689,-0.0531,9.7568,-0.3604,-0.1208,0.0926
4295,1187,847,34.504,34.262,-0.0371,-0.0443,9.8791,0.4873,0.6377,0.3026
4300,1178,856,34.508,34.314,-0.0234,-0.0541,9.7744,-0.7477,-0.8005,0.9983
4305,1188,861,34.494,34.305,-0.0095,-0.042,9.7567,-0.0599,0.9036,0.1773
4310,1183,861,34.56,34.244,-0.0262,-0.0512,9.8751,0.3568,0.1666,-0.0325
4315,1177,863,34.492,34.326,0.0064,-0.0293,9.8511,0.0302,0.3926,-0.4708
4320,1170,870,34.482,34.36,-0.0067,-0.0422,9.8345,0.5588,-0.0772,1.1735
4325,1175,881,34.552,34.398,-0.0751,-0.0343,9.8013,0.037,-0.3312,-0.7646
4330,1167,879,34.576,34.316,-0.0121,0.0289,9.8154,0.3896,0.1237,0.7074
4335,1166,884,34.606,34.25,0.0277,-0.0355,9.8446,-0.0503,-0.9853,0.6198
4340,1163,887,34.516,34.307,0.0252,0.0487,9.7504,-0.4523,0.345,-0.5505
4345,1158,891,34.541,34.246,0.0489,-0.0064,9.8447,-0.6098,0.3121,0.4095
4350,1158,896,34.412,34.329,0.0145,0.0011,9.7543,-0.8186,1.5176,0.4235
4355,1160,896,34.551,34.183,-0.048,-0.0688,9.8646,0.1383,-0.2276,-0.3429
4360,1155,900,34.464,34.256,0.0422,-0.0874,9.8628,0.0171,-0.1285,-0.2491
4365,1148,899,34.567,34.355,0.0157,-0.0251,9.8104,0.3461,0.2017,-0.0913
4370,1154,907,34.473,34.228,-0.0378,0.0061,9.9238,0.1254,-1.3661,0.0235
4375,1144,902,34.425,34.276,-0.0233,0.0163,9.8986,-0.4981,0.0018,0.3969
4380,1145,909,34.508,34.319,0.0865,0.0003,9.7628,0.3586,-0.3248,-0.0804
4385,1135,906,34.508,34.355,-0.0236,0.1084,9.8635,-0.3547,-0.6719,0.8307
4390,1144,904,34.564,34.218,0.0305,0.0144,9.8186,0.462,-0.5324,0.3002
4395,1140,909,34.446,34.312,0.0551,0.1275,9.7344,0.1023,-0.1521,-0.9169
4400,1132,912,34.466,34.261,0.0758,-0.0123,9.8215,0.5314,-0.0491,-0.4662
4405,1122,909,34.47,34.313,-0.0376,0.0781,9.7909,-0.8099,0.7936,0.0544
4410,1117,910,34.442,34.213,-0.0047,0.0032,9.8508,0.3003,0.298,-0.209
4415,1123,912,34.579,34.32,0.032,-0.0342,9.8174,-0.0564,-0.0725,1.0207
4420,1113,906,34.51,34.213,0.0761,-0.0535,9.8714,0.7283,-0.4603,-0.1389
4425,1108,908,34.581,34.286,0.0395,-0.024,9.8901,0.4678,-0.4055,0.4693
4430,1115,908,34.531,34.358,0.0481,0.0217,9.8637,0.0837,0.2494,0.7642
4435,1103,909,34.578,34.262,-0.1258,-0.0624,9.8155,-0.2359,-0.6129,0.9208
4440,1102,911,34.514,34.272,-0.0251,-0.0151,9.7234,-0.2325,-0.3479,0.3983
4445,1097,904,34.43,34.318,0.0139,0.0545,9.7872,-0.2655,-0.7395,-0.8902
4450,1108,906,34.547,34.329,0.0367,-0.0715,9.8833,-2.0408,0.5206,0.1892
4455,1104,907,34.53,34.282,-0.0041,0.0287,9.8072,0.7866,-0.0236,-0.0556
4460,1095,904,34.5,34.317,0.0136,-0.0598,9.7614,-0.3486,-0.187,0.1798
4465,1089,900,34.473,34.263,-0.038,-0.0383,9.851,0.0614,-0.8433,-0.0517
4470,1087,895,34.472,34.281,0.0131,-0.005,9.8117,0.5014,0.0167,-0.3717
4475,1097,897,34.449,34.281,-0.0449,0.0168,9.801,0.7229,0.0355,0.7713
4480,1087,897,34.512,34.222,-0.0408,-0.0553,9.741,0.9595,-0.3759,-0.3334
4485,1085,888,34.553,34.241,0.07,0.0169,9.8323,-1.0964,0.1131,-0.1977
4490,1086,893,34.498,34.295,-0.0083,-0.0057,9.834,0.4325,0.4378,0.3574
4495,1084,887,34.609,34.32,0.0613,0.0217,9.6908,0.0036,0.3158,-0.5551
4500,1076,888,34.549,34.23,0.0586,0.0455,9.8452,-0.6855,0.096,-0.8252
4505,1077,882,34.533,34.218,0.0506,0.0788,9.7925,-0.1745,0.0769,-0.3827
4510,1078,886,34.49,34.295,-0.1187,0.0067,9.9189,0.4221,-0.4993,-0.4512
4515,1071,879,34.503,34.334,0.0009,0.0154,9.8768,-0.3337,0.0721,0.2053
4520,1079,880,34.629,34.323,0.0459,-0.0204,9.831,0.733,-0.3145,0.0327
4525,1067,879,34.523,34.322,0.091,0.0265,9.8316,0.4633,0.3989,-0.2722
4530,1067,881,34.502,34.296,0.0061,0.0519,9.8582,1.1507,0.8829,0.3451
4535,1057,873,34.534,34.252,0.0237,-0.0365,9.876,-0.7912,0.6517,0.1714
4540,1058,870,34.549,34.283,-0.0414,-0.1107,9.8454,-0.0903,0.2136,-0.1298
4545,1059,869,34.527,34.311,-0.0975,-0.0671,9.8056,0.0418,-0.2595,0.0751
4550,1051,873,34.555,34.395,0.0099,0.0863,9.8342,-0.0681,-0.7468,0.0797
4555,1044,869,34.554,34.352,-0.0185,-0.048,9.7315,0.3337,0.6507,0.0011
4560,1047,864,34.57,34.243,-0.0262,0.022,9.8511,-0.3928,-0.4839,0.1817
4565,1034,868,34.563,34.277,-0.0088,-0.0068,9.7988,-0.8034,0.3941,0.1978
4570,1030,866,34.61,34.262,0.0095,-0.0105,9.8285,0.8871,-0.1744,-0.1398
4575,1022,865,34.471,34.307,0.0088,-0.0268,9.8294,-0.405,1.496,0.0622
4580,1024,867,34.562,34.313,-0.0233,0.0121,9.8391,0.0499,0.0881,-0.2193
4585,1021,854,34.523,34.254,0.0476,-0.0099,9.7405,-0.4351,-0.1613,-0.5117
4590,1019,860,34.586,34.279,0.0441,-0.0303,9.6985,0.1897,-0.6339,0.5014
4595,1006,857,34.55,34.296,-0.0127,-0.0195,9.7467,0.405,0.0544,-0.0847
4600,999,855,34.567,34.25,-0.138,-0.0214,9.7467,0.1185,-0.7312,-0.0411
4605,996,856,34.423,34.269,-0.0112,-0.0071,9.766,0.0142,0.5658,0.122
4610,988,854,34.502,34.216,0.0232,-0.0215,9.7662,0.267,-0.5627,-0.778
4615,981,855,34.53,34.324,0.0133,0.0398,9.7756,-0.4021,-0.5108,-0.4596
4620,964,850,34.586,34.32,0.0446,-0.0925,9.6845,0.4513,-0.0071,-0.2131
4625,961,853,34.544,34.188,0.0172,0.0057,9.8833,0.8369,-0.0879,-0.729
4630,959,847,34.469,34.257,0.0826,-0.0442,9.8377,0.7417,0.0494,-0.2355
4635,947,848,34.473,34.247,0.0013,0.0034,9.8417,-0.2067,-0.2131,-0.2411
4640,943,845,34.483,34.259,0.0107,0.059,9.8201,0.3391,0.4748,-0.371
4645,936,848,34.541,34.293,0.0773,0.05,9.7823,-0.8187,0.6009,-0.0248
4650,924,838,34.559,34.214,0.0491,-0.0225,9.8743,1.0068,0.2665,0.9103
4655,919,839,34.545,34.414,-0.0057,-0.017,9.8439,0.0803,-1.0098,0.356
4660,903,838,34.493,34.374,-0.0006,0.0191,9.85,0.1816,0.2207,0.0049
4665,899,840,34.409,34.247,-0.022,0.1176,9.7681,-0.0976,0.3253,0.1494
4670,893,836,34.501,34.289,-0.005,-0.0181,9.8527,-1.0571,0.271,0.2373
4675,882,831,34.549,34.301,0.0672,-0.0143,9.8047,0.3138,0.674,-0.0002
4680,870,828,34.446,34.228,0.0795,0.0359,9.7803,0.1622,-0.5202,0.119
4685,867,830,34.556,34.228,0.0087,-0.0536,9.7702,-0.431,-0.1279,0.2795
4690,855,827,34.553,34.326,-0.086,-0.0081,9.8418,-0.0059,-0.5672,-0.2981
4695,846,827,34.511,34.198,-0.0819,0.0094,9.7294,0.6388,0.1575,0.7237
4700,841,824,34.463,34.248,0.0142,0.0374,9.8986,0.1263,-0.7487,0.4022
4705,835,817,34.521,34.265,-0.0401,0.0633,9.8256,-0.1699,0.8919,0.3162
4710,823,815,34.594,34.31,-0.0187,0.0225,9.9046,-0.1039,0.8332,-0.9179
4715,817,814,34.533,34.305,-0.0761,-0.0356,9.8476,0.3405,0.0645,0.6916
4720,804,811,34.621,34.342,-0.0353,0.0478,9.8923,-0.0009,-0.2091,0.7762
4725,804,803,34.504,34.313,0.0202,-0.0285,9.781,0.3138,-0.0415,-0.4789
4730,794,798,34.504,34.237,0.0032,-0.0161,9.7813,0.4004,-0.1346,-1.3779
4735,784,790,34.535,34.262,-0.0298,0.017,9.8761,0.2077,-0.2777,0.032
4740,790,801,34.555,34.248,-0.0272,-0.0135,9.7838,-0.1899,-0.5148,-0.1204
4745,779,787,34.573,34.343,-0.007,-0.0011,9.8486,0.7847,-1.4981,0.8625
4750,780,782,34.518,34.334,0.0547,-0.0304,9.8407,0.3205,-0.5459,-0.4648
4755,765,783,34.595,34.228,0.0163,-0.0027,9.7294,0.2095,0.8752,-0.0709
4760,762,779,34.514,34.226,-0.0247,-0.0356,9.7376,0.4094,-0.2509,-0.321
4765,755,769,34.62,34.328,-0.0052,-0.0164,9.8349,-0.3202,-0.8126,-0.6462
4770,755,764,34.516,34.25,-0.0266,-0.0142,9.8363,0.1315,0.3187,-0.0264
4775,756,756,34.49,34.392,0.092,0.0191,9.817,0.1645,-0.1322,0.111
4780,756,753,34.574,34.226,-0.137,-0.0178,9.7632,-0.5882,-0.732,0.4919
4785,747,754,34.584,34.25,-0.0082,-0.0084,9.8252,0.3688,0.2528,0.9821
4790,753,744,34.509,34.319,-0.0222,0.0624,9.7943,-0.4672,0.0929,-0.153
4795,743,741,34.532,34.311,0.0299,-0.0041,9.7723,-0.0914,-0.2266,1.1768
4800,748,735,34.578,34.326,-0.0833,0.0267,9.8178,-0.2932,0.1323,-0.4626
4805,747,733,34.524,34.284,-0.0006,-0.0202,9.8606,-0.5048,-0.3292,0.5692
4810,746,727,34.504,34.243,0.0722,-0.005,9.7882,0.2969,0.3775,0.2874
4815,755,721,34.541,34.24,0.0483,-0.0452,9.8208,-0.4168,0.0921,0.5347
4820,754,712,34.539,34.454,0.0455,0.1166,9.8409,-0.9351,-0.3138,-0.5553
4825,760,707,34.515,34.36,-0.0372,-0.0142,9.7952,-0.6905,0.3412,0.0028
4830,756,701,34.533,34.365,-0.0139,0.0068,9.8625,0.1399,0.145,-0.2842
4835,760,698,34.554,34.363,0.0233,0.011,9.8391,0.5465,-0.1309,0.3281
4840,780,699,34.548,34.214,-0.0813,-0.072,9.7605,0.0968,-0.2242,0.2686
4845,769,689,34.553,34.231,-0.0667,-0.0231,9.8084,1.1377,0.7473,0.0923
4850,781,691,34.507,34.297,0.083,0.0523,9.7581,0.8561,-0.4172,0.1965
4855,786,682,34.517,34.225,-0.0046,0.039,9.8081,-0.7924,0.7719,-0.3029
4860,799,681,34.587,34.328,0.0307,0.0217,9.7798,-0.3647,-0.3969,-0.399
4865,796,681,34.566,34.314,0.0484,0.0341,9.7888,-0.5693,-0.1178,-0.115
4870,817,670,34.575,34.316,-0.0195,-0.0379,9.894,0.1119,0.5016,-0.4743
4875,822,669,34.547,34.254,0.0252,0.0715,9.8093,0.0615,-0.2967,-0.8735
4880,828,665,34.43,34.304,0.1015,0.0697,9.8548,0.1554,0.4482,0.0687
4885,840,663,34.523,34.324,0.0506,-0.0922,9.7374,-0.5111,-0.6223,-0.263
4890,849,659,34.588,34.361,0.0524,0.0662,9.8012,0.296,-0.7415,-0.2728
4895,862,657,34.555,34.203,0.0681,-0.0063,9.7657,-0.0665,0.522,0.2764
4900,866,655,34.515,34.307,0.0521,-0.1193,9.7722,-0.7677,0.5698,-0.5426
4905,877,656,34.536,34.29,0.0445,-0.0454,9.8124,0.8215,0.2841,0.2374
4910,903,649,34.597,34.366,0.0334,0.0377,9.822,-0.1379,0.4125,0.3091
4915,903,650,34.528,34.293,0.0116,0.0092,9.8388,0.8178,0.2735,-0.0502
4920,911,653,34.504,34.33,-0.0296,-0.0067,9.7025,0.8991,0.4675,-0.5677
4925,926,651,34.552,34.404,0.0564,-0.0641,9.8197,-0.7333,0.3292,-0.1683
4930,939,652,34.544,34.363,-0.0588,-0.0247,9.7005,-0.7249,-0.0606,0.6014
4935,949,653,34.531,34.26,-0.0861,0.0508,9.7632,-0.1569,0.9935,0.1371
4940,956,646,34.591,34.293,-0.0206,0.0924,9.8587,0.5768,0.27,0.5809
4945,972,652,34.51,34.238,0.0208,-0.1054,9.7812,0.2053,0.3571,0.4694
4950,982,654,34.528,34.273,-0.0366,0.0122,9.8358,-0.1989,0.4852,0.3568
4955,998,656,34.48,34.305,0.0181,-0.0384,9.9003,0.0885,-0.115,-0.3557
4960,1007,662,34.547,34.306,-0.009,-0.0578,9.8317,0.7315,0.4519,-0.6757
4965,1015,664,34.533,34.315,0.0281,-0.0232,9.7858,0.3116,0.3005,0.2238
4970,1024,671,34.546,34.266,0.0186,0.0454,9.9006,0.1129,0.5845,-0.735
4975,1029,671,34.527,34.316,-0.0088,-0.0339,9.8513,-1.0291,-0.7745,-0.3227
4980,1051,672,34.567,34.272,-0.0085,-0.0409,9.8188,0.0801,-0.8886,1.4353
4985,1053,676,34.538,34.302,0.0515,0.0238,9.7973,-0.1383,-0.4392,-0.2376
4990,1074,677,34.544,34.291,0.0053,0.0717,9.837,-0.3955,-0.6933,-0.324
4995,1078,688,34.475,34.334,0.0157,-0.0168,9.8253,-0.3085,0.0104,0.1221
5000,1095,687,34.57,34.364,-0.0099,-0.0307,9.845,0.1645,-0.8402,-0.1908
5005,1095,689,34.543,34.256,-0.1106,0.0582,9.8247,-0.4271,0.6426,-0.0734
5010,1111,692,34.523,34.361,0.0773,-0.1205,9.7561,-0.468,0.5041,-0.7127
5015,1114,703,34.476,34.316,0.1307,0.0486,9.7966,0.2364,-0.039,0.6962
5020,1132,708,34.503,34.304,0.0143,0.0237,9.7859,-0.258,-0.7304,1.263
5025,1123,722,34.581,34.317,0.0162,-0.0036,9.7253,-1.0039,0.7491,1.1417
5030,1145,727,34.551,34.251,-0.0463,0.0062,9.8568,-0.0697,-0.1121,0.9486
5035,1153,728,34.617,34.294,-0.041,0.0417,9.8304,-0.3235,-0.1866,0.1445
5040,1140,735,34.57,34.289,-0.0225,-0.0251,9.8632,0.3949,0.2255,-0.1475
5045,1151,743,34.558,34.206,0.0258,0.049,9.7973,0.0721,0.0143,-0.2105
5050,1161,750,34.558,34.272,-0.0756,0.0586,9.705,-0.4972,0.1421,-0.0781
5055,1163,758,34.487,34.236,0.0214,-0.0078,9.8511,0.8389,0.3636,0.1052
5060,1168,763,34.507,34.373,0.0398,-0.0282,9.6907,-0.0635,0.3629,-0.2677
5065,1184,769,34.481,34.237,0.002,0.0134,9.7802,-0.3216,1.2277,0.9075
5070,1168,775,34.454,34.254,0.0109,-0.113,9.8217,0.3512,-0.8212,-0.2735
5075,1188,785,34.481,34.294,-0.0266,0.0039,9.7898,-0.7182,-0.1644,0.176
5080,1181,792,34.562,34.362,0.0211,0.0915,9.807,0.3671,-0.5058,0.0691
5085,1185,797,34.565,34.248,0.0172,-0.061,9.7932,1.031,0.0442,0.8708
5090,1180,811,34.545,34.302,-0.0055,0.0744,9.7427,-0.1371,0.1673,0.0042
5095,1186,814,34.498,34.286,-0.0204,-0.0507,9.8374,0.2587,-0.4624,-0.5031
5100,1191,815,34.576,34.345,-0.0097,-0.0071,9.7842,0.1741,0.2174,-0.6351
5105,1184,825,34.614,34.34,0.0343,-0.0157,9.778,-0.1969,-0.1931,0.6156
5110,1176,825,34.613,34.258,0.0044,-0.0151,9.9094,0.037,0.0117,-0.5933
5115,1192,833,34.455,34.263,0.0156,0.0339,9.7964,-0.7094,-0.7531,-0.0031
5120,1187,839,34.54,34.303,0.0012,0.0387,9.8192,0.1277,0.1343,0.3634
5125,1188,847,34.593,34.313,0.013,-0.017,9.7853,1.4808,-0.0982,1.0849
5130,1181,855,34.531,34.287,-0.0146,0.0193,9.774,0.0454,-0.2689,0.0686
5135,1177,860,34.581,34.331,0.0126,0.0715,9.8215,0.4161,-0.4647,0.5594
5140,1175,865,34.497,34.258,-0.0893,0.0372,9.8447,0.1863,-0.4797,0.8359
5145,1181,866,34.548,34.179,0.0206,0.0194,9.8622,0.5754,0.2054,-0.0741
5150,1175,877,34.595,34.286,-0.0143,-0.0811,9.7688,0.0131,-0.3659,-0.8489
5155,1166,874,34.515,34.298,-0.0609,-0.0087,9.9362,0.6446,0.6312,0.1594
5160,1172,880,34.521,34.264,0.106,0.0067,9.8809,0.0906,-0.0619,-0.4703
5165,1167,879,34.502,34.397,-0.0248,-0.0262,9.8094,-0.0234,0.595,-0.4737
5170,1170,889,34.5,34.331,-0.1074,-0.0769,9.8124,-0.0636,0.6006,-0.1871
5175,1163,894,34.545,34.31,0.0289,0.0223,9.8321,-0.4236,-0.0624,0.0953
5180,1165,895,34.459,34.32,0.0773,-0.0253,9.7169,-0.1623,0.0045,-0.6084
5185,1151,903,34.519,34.305,-0.0023,-0.0235,9.7407,0.0732,0.9236,0.6107
5190,1158,901,34.612,34.378,0.0556,0.0066,9.8357,-0.3692,0.6279,0.4171
5195,1151,902,34.421,34.274,-0.0355,0.0833,9.8244,-0.0661,-0.1662,0.2156
5200,1154,910,34.529,34.246,0.0554,0.0473,9.8424,-0.494,-0.2119,-0.7395
5205,1140,908,34.478,34.35,-0.0024,-0.0025,9.872,-0.1487,0.0178,-0.2032
5210,1130,910,34.542,34.327,0.1044,0.128,9.8884,-1.2176,-0.1964,0.2516
5215,1139,911,34.524,34.326,0.0433,0.0448,9.826,0.3424,0.4429,0.2488
5220,1134,913,34.573,34.209,-0.0154,0.072,9.8261,-0.2251,-0.5254,1.0046
5225,1138,911,34.59,34.229,0.0857,0.0743,9.789,-0.2568,-0.3762,-0.7303
5230,1129,914,34.621,34.191,0.0456,0.0146,9.7665,-0.0547,0.0114,0.0141
5235,1124,908,34.47,34.279,-0.0774,0.0198,9.769,-0.3444,-0.047,0.2862
5240,1121,909,34.55,34.319,-0.035,-0.0001,9.8403,0.1559,1.0017,-0.2268
5245,1123,914,34.578,34.316,0.0183,0.0288,9.8644,-0.1726,0.4057,-0.0664
5250,1116,908,34.579,34.275,0.0242,-0.0201,9.798,0.7751,-0.4072,0.3603
5255,1117,910,34.526,34.316,-0.0241,-0.0262,9.7645,0.5234,0.0987,0.0271
5260,1101,914,34.517,34.241,0.0203,0.0837,9.8072,0.1444,-0.2461,1.3584
5265,1109,913,34.497,34.259,0.0897,0.0543,9.8243,-0.8211,-0.7089,0.2167
5270,1090,905,34.591,34.173,0.0432,0.0589,9.7692,0.5289,-0.386,-0.3416
5275,1097,909,34.51,34.377,0.0804,-0.0131,9.8448,-0.2956,-0.2672,0.8526
5280,1105,905,34.552,34.306,0.076,-0.0879,9.8336,-0.2933,0.5718,-0.296
5285,1097,900,34.594,34.335,-0.0681,-0.0679,9.8497,-0.6298,-0.3086,1.0248
5290,1104,902,34.473,34.227,0.0384,0.0985,9.7827,0.4108,0.0121,-0.5023
5295,1091,895,34.575,34.275,-0.1529,0.0511,9.9111,-0.0939,-0.0792,-0.4317
5300,1089,895,34.625,34.285,-0.0048,0.0255,9.8147,0.8925,-0.0477,0.035
5305,1096,890,34.46,34.266,-0.0236,0.0161,9.7764,0.7247,-0.1044,-0.482
5310,1087,898,34.481,34.261,-0.0365,0.0967,9.789,0.1598,0.22,-0.5112
5315,1090,890,34.549,34.282,0.0298,0.0429,9.8174,-0.4992,-0.5488,0.3772
5320,1081,893,34.433,34.288,0.1139,-0.0396,9.8023,0.4876,0.5177,-0.1966
5325,1083,883,34.466,34.213,-0.053,0.039,9.8665,0.2571,-1.236,-0.1729
5330,1081,885,34.496,34.343,-0.0522,-0.0682,9.828,-0.0187,-0.9584,-0.2242
5335,1077,888,34.721,34.294,-0.0219,0.0252,9.8332,-0.1079,-0.3851,0.8346
5340,1076,882,34.51,34.352,0.0445,0.1148,9.8583,-1.072,0.3948,-0.324
5345,1071,881,34.512,34.252,0.0349,0.0359,9.8623,0.113,-0.4212,0.7975
5350,1073,880,34.547,34.242,0.0107,0.042,9.8383,-0.1218,0.0678,0.9409
5355,1060,877,34.586,34.261,-0.0063,0.02,9.8314,-0.5828,-1.0304,0.4808
5360,1067,877,34.585,34.227,-0.0207,-0.0038,9.8126,-0.0606,-0.0813,-0.31
5365,1069,873,34.471,34.237,-0.0206,-0.0325,9.8707,0.8957,-0.1346,-0.2484
5370,1054,870,34.504,34.172,-0.0289,0.0084,9.8205,0.0742,-0.3732,-0.2885
5375,1068,870,34.539,34.227,0.0999,-0.0102,9.8157,-0.3312,0.1975,-0.0981
5380,1048,862,34.52,34.298,0.0343,0.0248,9.8601,0.3309,-0.4137,0.4064
5385,1044,868,34.469,34.374,-0.0185,-0.0581,9.7282,-0.1844,0.0443,0.0935
5390,1041,865,34.546,34.423,-0.0362,0.1589,9.7338,0.0854,-0.0559,0.2141
5395,1036,863,34.593,34.199,-0.0398,0.0428,9.781,-1.5685,-0.3231,-0.1447
5400,1043,861,34.485,34.219,-0.0852,-0.0209,9.8202,-0.0859,-0.7242,0.2888
5405,1025,862,34.58,34.258,-0.0037,-0.0296,9.8191,-0.6208,-0.0986,0.1485
5410,1026,863,34.525,34.243,0.0013,0.0083,9.7418,0.3253,0.0906,0.4209
5415,1020,861,34.532,34.319,-0.0649,0.0076,9.8384,0.5461,0.751,0.3628
5420,1022,858,34.447,34.186,0.0016,-0.0689,9.766,-0.1968,-0.1334,-0.3091
5425,1009,861,34.636,34.393,-0.1224,0.0782,9.8159,0.0643,-0.6439,-0.0307
5430,1009,857,34.538,34.296,0.0408,0.059,9.7537,0.8595,-0.1008,-0.3332
5435,1000,851,34.461,34.225,-0.0229,0.0513,9.934,0.5897,-0.5808,0.1966
5440,991,855,34.572,34.224,0.0252,-0.0156,9.8917,-0.6523,0.3111,-0.1774
5445,978,851,34.622,34.25,-0.0428,0.0351,9.7894,-0.3133,0.62,-0.3518
5450,972,847,34.548,34.222,0.0009,-0.063,9.8393,-0.0828,0.0346,-0.1779
5455,959,849,34.523,34.305,0.0203,-0.0862,9.7678,0.0828,-0.0897,-0.3906
5460,958,846,34.551,34.183,-0.0379,-0.0505,9.8329,-0.3503,-0.5506,0.3074
5465,947,849,34.553,34.23,-0.1217,0.0096,9.6745,0.8621,-0.0789,1.1951
5470,939,845,34.542,34.352,-0.0252,0.0131,9.939,0.0698,-0.2254,0.413
5475,930,846,34.493,34.314,0.0038,-0.0042,9.6613,-0.5438,-0.6209,0.0445
5480,928,842,34.545,34.251,0.0221,-0.0512,9.7563,-1.153,0.1957,-0.2391
5485,912,843,34.592,34.332,-0.0017,-0.0266,9.8549,0.2154,0.1544,1.07
5490,907,839,34.505,34.247,-0.1214,0.0332,9.8128,0.1237,-0.0335,0.3777
5495,899,831,34.518,34.304,-0.0005,0.0176,9.7284,-0.0258,-0.569,0.0661
5500,887,835,34.463,34.358,0.0288,-0.0286,9.8236,1.1002,0.1884,0.4051
5505,879,834,34.524,34.383,0.0429,-0.0831,9.7704,-0.1218,0.2142,0.351
5510,866,827,34.523,34.309,-0.0051,0.05,9.833,0.1044,-0.5327,-0.0375
5515,861,828,34.484,34.352,0.0262,0.0299,9.8363,-0.3547,0.2469,-0.0415
5520,856,828,34.59,34.244,-0.067,-0.0036,9.8357,0.2388,0.4128,0.4808
5525,844,827,34.507,34.333,-0.0495,-0.0544,9.7598,-0.0543,-0.9979,0.3004
5530,833,815,34.58,34.38,-0.0519,0.0303,9.7801,-0.1253,0.5511,0.199
5535,824,823,34.508,34.263,-0.0201,0.0357,9.7863,0.2529,-0.3745,0.6846
5540,824,811,34.434,34.227,0.0256,-0.0271,9.7314,0.3101,0.4697,-0.4221
5545,816,812,34.465,34.347,0.1219,-0.0617,9.8423,0.1539,0.1341,0.2269
5550,794,802,34.613,34.283,0.0172,0.0082,9.7166,-0.6086,-0.8758,-0.1854
5555,793,804,34.554,34.255,-0.0344,-0.0565,9.7188,-0.2008,0.198,0.3998
5560,794,796,34.596,34.349,-0.0297,-0.0385,9.7505,-0.8556,-0.2974,0.2377
5565,790,798,34.578,34.245,0.0259,-0.0644,9.7582,0.0278,0.6047,-0.5322
5570,780,789,34.515,34.21,-0.0186,0.001,9.8338,0.4183,1.2308,-0.015
5575,775,793,34.551,34.299,-0.0239,0.0013,9.7522,0.3039,-0.1037,-0.0888
5580,767,786,34.51,34.373,0.0935,0.0069,9.8442,-0.3617,-0.1126,-0.3553
5585,764,780,34.574,34.277,0.0239,-0.0438,9.9039,0.2063,-0.206,-0.1271
5590,762,770,34.527,34.341,0.0384,0.0547,9.898,-0.86,0.4072,0.4613
5595,770,774,34.534,34.34,-0.0394,-0.0814,9.9091,0.5098,-0.7981,0.084
5600,760,766,34.518,34.315,-0.0624,-0.0553,9.795,-0.4269,0.0529,0.8023
5605,752,761,34.47,34.293,-0.0584,0.0135,9.7869,0.5067,0.1968,0.3701
5610,752,752,34.538,34.339,-0.0568,-0.0199,9.7947,0.3509,-0.4872,-0.3812
5615,741,750,34.527,34.374,0.0215,-0.0272,9.7257,-0.488,0.2712,0.0694
5620,742,745,34.53,34.232,0.0047,0.1172,9.8208,0.3429,0.3024,0.8707
5625,746,744,34.501,34.242,0.0243,-0.021,9.8207,-0.1466,-0.0143,0.1532
5630,744,729,34.593,34.288,0.0916,-0.0254,9.8314,0.0171,0.2455,0.04
5635,747,729,34.582,34.319,0.0519,0.046,9.9554,-0.4628,0.4277,-0.4137
5640,748,724,34.545,34.163,0.0026,0.0464,9.7883,-0.2461,-0.1311,-0.5989
5645,756,717,34.537,34.352,0.0158,-0.0152,9.8826,0.2735,-0.3548,-0.219
5650,754,716,34.499,34.2,0.071,0.0323,9.8769,-0.6213,-0.6308,-0.8888
5655,759,712,34.545,34.254,0.018,0.0083,9.789,-0.1968,-0.1454,0.5734
5660,766,707,34.519,34.22,0.0079,-0.0475,9.7953,-0.1194,-0.0904,-0.0097
5665,755,700,34.592,34.3,0.0732,-0.037,9.9039,0.8945,-0.0354,1.2439
5670,771,703,34.544,34.26,-0.0438,-0.0752,9.7375,0.4417,-0.0443,-0.0001
5675,777,690,34.604,34.171,-0.0606,-0.0565,9.8585,0.5955,-0.0164,0.9944
5680,778,687,34.555,34.258,-0.0356,-0.0267,9.7411,-0.947,0.3333,-0.6878
5685,787,684,34.505,34.165,0.0074,-0.1134,9.9626,0.3312,0.9724,-0.28
5690,808,676,34.465,34.21,-0.0576,0.0159,9.8325,0.7675,0.7659,-0.0379
5695,813,678,34.541,34.29,-0.0,-0.085,9.8701,0.3097,-0.691,-0.2044
5700,807,671,34.522,34.379,0.0563,-0.0857,9.7987,0.0266,0.5262,0.161
5705,827,668,34.585,34.328,0.0485,0.0021,9.7798,0.31,-1.011,-0.1569
5710,834,669,34.615,34.259,-0.0555,-0.0699,9.7422,0.3586,-0.3439,-0.1237
5715,843,661,34.496,34.308,0.0194,0.0533,9.8286,-0.6422,0.6167,-0.0764
5720,859,662,34.529,34.314,0.0476,0.0021,9.8046,-0.8339,0.3369,-1.0515
5725,863,662,34.481,34.27,0.0651,-0.0644,9.8596,0.6512,-0.0568,-0.0245
5730,869,656,34.428,34.364,0.0054,-0.0161,9.7799,-0.1899,-0.2357,-0.038
5735,884,658,34.451,34.35,-0.1143,0.0532,9.8796,-0.3964,0.5439,-0.6834
5740,889,654,34.622,34.297,0.0225,-0.0107,9.8347,0.9357,-0.234,-0.4224
5745,913,654,34.618,34.299,0.0541,0.0182,9.8517,-0.3417,-0.3187,-0.2939
5750,915,649,34.599,34.208,-0.069,0.0286,9.7519,0.3636,-0.5382,0.2065
5755,928,652,34.611,34.258,-0.0316,0.036,9.7761,-0.5835,0.5515,-0.9725
5760,935,651,34.522,34.296,-0.0447,0.013,9.7659,0.7701,0.2603,0.3057
5765,944,648,34.536,34.243,0.0752,-0.0317,9.8482,0.5079,0.0265,0.1272
5770,965,655,34.541,34.231,-0.0157,-0.0443,9.8562,-0.1603,-0.1241,0.7004
5775,973,654,34.505,34.261,-0.0105,0.0397,9.7662,-0.0501,0.539,-0.1429
5780,986,651,34.516,34.254,-0.0279,0.0519,9.7542,0.2178,0.4237,0.5345
5785,999,657,34.508,34.328,0.0278,0.0238,9.7847,0.1623,-0.5742,0.0797
5790,1004,658,34.62,34.274,-0.0227,-0.0765,9.7578,0.9378,0.0287,-0.4168
5795,1022,669,34.458,34.388,-0.0008,-0.0443,9.7451,-0.345,-0.6813,-0.1141
5800,1026,664,34.415,34.26,0.0597,-0.0166,9.8768,0.236,-0.8601,0.3502
5805,1048,664,34.503,34.277,0.0261,-0.0809,9.8007,0.3812,0.3202,-0.1107
5810,1055,672,34.561,34.266,0.0828,0.035,9.8072,-0.5482,0.0392,1.0645
5815,1061,682,34.535,34.337,0.0109,0.0099,9.838,0.6915,-0.5891,0.3308
5820,1079,680,34.541,34.261,-0.0201,0.0032,9.7514,0.2517,-0.6185,0.4206
5825,1074,687,34.489,34.176,0.0635,-0.0603,9.751,0.0548,-0.532,-0.4583
5830,1089,690,34.483,34.254,0.0015,0.0225,9.8836,0.5855,0.4331,-0.828
5835,1097,695,34.58,34.34,0.0471,0.0346,9.8703,0.0324,-0.2556,-0.0796
5840,1112,704,34.498,34.24,-0.0737,-0.0517,9.8252,-0.3932,1.0325,0.1171
5845,1118,704,34.563,34.291,-0.0041,-0.0563,9.8063,-0.435,-0.1309,0.7086
5850,1117,715,34.569,34.305,0.0138,0.0405,9.8527,-0.2538,0.0186,-0.2977
5855,1132,718,34.505,34.321,0.0059,-0.0496,9.8607,-0.8424,-0.7684,0.8816
5860,1141,724,34.586,34.257,0.012,-0.0079,9.7862,-0.548,0.3835,-0.1963
5865,1145,732,34.575,34.303,0.1002,-0.0737,9.7288,-0.3395,0.1654,0.1969
5870,1154,739,34.57,34.358,0.033,0.0138,9.81,0.0914,-0.5751,0.5772
5875,1162,748,34.428,34.213,0.0458,0.0324,9.8776,-0.6848,-0.0785,0.8724
5880,1164,748,34.519,34.313,0.0095,-0.0373,9.9231,-0.1474,0.1054,0.3058
5885,1161,759,34.543,34.331,0.0018,0.0217,9.7943,1.2513,-0.4681,-0.3095
5890,1176,764,34.52,34.396,-0.0026,-0.0089,9.8618,0.9587,0.0306,-0.7215
5895,1171,776,34.633,34.252,-0.0496,-0.0153,9.8381,-0.6382,1.3162,-0.2727
5900,1175,781,34.529,34.346,-0.0662,0.042,9.8869,-0.0791,0.2755,-0.0293
5905,1180,781,34.499,34.237,-0.0338,-0.0278,9.837,0.4308,0.3817,-0.4356
5910,1187,795,34.501,34.314,-0.1228,-0.0938,9.8429,-0.3778,0.9182,-0.0613
5915,1182,796,34.476,34.255,-0.1076,-0.0305,9.8261,-0.7785,-0.4037,0.5705
5920,1199,803,34.585,34.257,0.0443,0.0575,9.8491,-0.6013,0.5475,-0.1955
5925,1177,807,34.534,34.298,-0.0469,0.0041,9.8203,0.3702,0.3373,-0.3248
5930,1198,820,34.541,34.326,0.0356,0.0124,9.8316,0.3171,0.1005,-0.1616
5935,1183,826,34.552,34.271,-0.0025,0.0376,9.8674,0.9146,0.3009,-0.2922
5940,1176,829,34.503,34.278,0.0156,0.0695,9.8144,-0.1466,0.8737,1.0563
5945,1186,838,34.447,34.274,0.0241,0.0546,9.8889,0.0552,0.6028,-0.4738
5950,1185,842,34.63,34.221,0.0037,0.0058,9.7842,0.085,-0.2807,0.3267
5955,1182,845,34.566,34.327,-0.0194,-0.0775,9.8361,0.3365,-0.1079,-0.3572
5960,1182,854,34.568,34.222,0.0174,0.039,9.838,-0.5789,0.4816,-0.2081
5965,1182,856,34.532,34.294,-0.0039,0.1013,9.8491,-0.2488,-0.2558,-0.0186
5970,1174,867,34.563,34.164,0.0297,-0.0694,9.848,-0.334,0.5303,0.4101
5975,1178,868,34.562,34.337,0.0458,-0.0556,9.7472,0.7399,-0.8328,-0.7628
5980,1178,878,34.613,34.373,-0.0275,-0.0062,9.8082,0.0076,-0.7691,-0.1721
5985,1174,874,34.563,34.293,0.023,-0.0402,9.7899,-0.1553,-0.8696,-0.2113
5990,1178,883,34.529,34.334,0.0045,-0.0742,9.7654,-0.0443,0.9273,-0.8213
5995,1168,885,34.539,34.21,-0.0083,0.0214,9.6937,0.0251,0.9349,-0.1488
6000,1177,884,34.514,34.291,0.0445,-0.0097,9.7894,0.5715,1.1008,0.397
6005,1153,894,34.583,34.302,0.0314,0.0774,9.8462,-0.7773,0.4647,-0.2263
6010,1165,889,34.63,34.252,-0.035,-0.0276,9.7756,0.1765,-0.503,0.1812
6015,1154,900,34.531,34.277,-0.0003,0.0151,9.7875,0.2383,-0.2893,-0.2971
6020,1150,902,34.537,34.377,0.0208,-0.0419,9.8374,0.2069,-0.2065,0.0262
6025,1139,903,34.517,34.287,0.0001,0.0014,9.7946,-0.7154,0.4275,-0.6319
6030,1146,900,34.435,34.293,0.0417,0.0015,9.8164,0.3706,-0.194,0.3421
6035,1145,905,34.522,34.276,-0.0089,0.0016,9.7463,0.2967,0.236,0.4518
6040,1149,902,34.557,34.229,0.0021,-0.1314,9.8509,0.2,-0.8421,-0.5094
6045,1131,906,34.546,34.205,0.1866,-0.0536,9.7543,0.4227,-0.4537,-0.0848
6050,1137,912,34.53,34.259,0.0566,-0.0687,9.8331,0.3658,0.6477,0.0735
6055,1136,910,34.496,34.176,0.0147,0.0419,9.7934,-0.1285,-0.0267,0.0158
6060,1121,910,34.549,34.342,0.0303,0.0841,9.7545,-0.0277,-0.5269,0.2519
6065,1135,914,34.527,34.193,-0.0229,0.0548,9.7638,-0.033,-0.4419,0.1456
6070,1127,911,34.581,34.221,0.0018,0.0238,9.8215,0.337,-0.581,-0.2219
6075,1124,915,34.604,34.299,0.0381,-0.0714,9.8216,-0.2853,-0.0271,-0.5842
6080,1118,912,34.467,34.295,-0.0342,-0.0395,9.7732,0.2948,0.2173,-0.1987
6085,1115,911,34.538,34.287,-0.0406,0.0083,9.8409,-0.5268,0.0604,0.8596
6090,1111,911,34.52,34.25,0.0369,0.0631,9.8251,0.3881,-0.0954,-0.1482
6095,1109,908,34.583,34.283,-0.116,0.0301,9.9078,0.2433,0.1384,0.3128
6100,1110,911,34.588,34.265,-0.0433,-0.0024,9.8324,0.1339,0.5142,0.4141
6105,1109,908,34.565,34.299,-0.0233,-0.0091,9.7825,0.7717,0.1434,0.0667
6110,1099,905,34.515,34.329,0.036,0.0063,9.7695,-0.198,0.0836,-0.0197
6115,1108,904,34.502,34.298,0.0774,-0.0255,9.8665,-0.2904,0.6789,0.4833
6120,1098,899,34.446,34.268,-0.0392,-0.0266,9.7617,0.005,0.7213,-0.0472
6125,1091,900,34.576,34.391,-0.0058,0.0547,9.7309,0.3571,-0.5715,0.4323
6130,1101,898,34.6,34.343,-0.0361,-0.0037,9.8073,-0.0862,-0.1926,0.4919
6135,1095,896,34.571,34.237,0.0159,-0.0203,9.7691,0.7209,0.6579,0.4012
6140,1090,894,34.493,34.246,-0.044,0.0183,9.8028,-1.321,0.5363,0.0783
6145,1087,889,34.607,34.323,0.0291,0.0083,9.8353,0.5935,0.7092,0.0487
6150,1084,892,34.641,34.302,-0.0615,-0.0189,9.9172,-1.2027,0.4661,-0.2692
6155,1080,885,34.537,34.319,-0.0791,-0.0335,9.8368,0.2241,-0.0814,-0.4647
6160,1078,889,34.609,34.343,0.0096,0.0217,9.8704,0.0361,0.386,-0.0462
6165,1083,881,34.47,34.35,-0.062,-0.0715,9.8245,0.6005,0.0028,0.3005
6170,1085,881,34.508,34.316,-0.1256,0.0309,9.8894,-0.1597,-0.203,0.4692
6175,1077,878,34.583,34.23,-0.0073,-0.0755,9.8271,-0.6134,-0.1722,-0.1713
6180,1067,877,34.571,34.265,0.0851,0.0697,9.8057,0.0845,0.2827,0.6989
6185,1063,877,34.447,34.217,-0.0064,-0.0413,9.8319,0.897,0.3232,-0.0549
6190,1054,880,34.562,34.265,-0.0734,-0.0065,9.8887,-0.0588,0.6106,-0.1103
6195,1059,870,34.479,34.281,-0.0175,-0.0488,9.7454,-1.602,-0.0775,0.5139
6200,1068,873,34.429,34.311,0.0309,0.0385,9.8132,0.0686,-0.6144,0.734
6205,1051,871,34.521,34.217,-0.0029,0.0777,9.81,-0.8198,-0.6617,0.0517
6210,1047,869,34.399,34.24,-0.0389,0.0139,9.7948,-0.171,-0.921,0.6557
6215,1052,873,34.473,34.299,0.0104,0.0781,9.9181,-0.3089,-0.0243,0.102
6220,1038,859,34.599,34.312,0.0318,-0.0416,9.805,0.4376,0.2294,0.4922
6225,1038,862,34.523,34.294,-0.0907,0.0362,9.7976,-0.6064,-0.2684,-0.6801
6230,1027,863,34.539,34.29,0.081,-0.012,9.8882,0.0881,0.2881,0.0534
6235,1022,861,34.543,34.263,0.0525,0.01,9.8209,-0.3355,-0.7541,0.5151
6240,1029,859,34.515,34.348,-0.0063,-0.0165,9.792,0.1463,-0.0902,0.2392
6245,1013,855,34.622,34.34,0.0117,-0.0506,9.7988,0.79,-0.364,0.1874
6250,1010,857,34.526,34.322,0.045,0.0411,9.8138,0.2239,0.2185,-0.1686
6255,992,857,34.447,34.273,0.0147,-0.0038,9.8527,0.0913,-0.8702,1.0211
6260,999,852,34.543,34.304,-0.0627,0.0027,9.8117,-0.1822,-0.139,-0.6195
6265,988,858,34.542,34.278,0.0383,0.0289,9.7975,0.2597,-0.3393,0.915
6270,991,857,34.567,34.215,-0.0506,0.0136,9.8473,0.4227,-0.2648,0.2608
6275,977,853,34.532,34.28,0.0426,0.1367,9.8657,0.3905,-0.1795,-0.0628
6280,976,843,34.609,34.325,0.0444,0.0495,9.7462,0.0652,0.0204,-0.6231
6285,967,843,34.53,34.259,0.0202,0.033,9.8553,-0.4341,-0.8468,-0.288
6290,963,850,34.534,34.264,-0.0567,0.0154,9.8141,-0.4424,-1.1233,-0.9202
6295,946,845,34.561,34.316,-0.0467,0.1134,9.8021,0.4489,0.2993,0.3467
6300,938,844,34.562,34.244,0.1073,0.0276,9.823,-0.4537,-0.6622,-0.781
6305,935,845,34.474,34.339,0.0291,-0.0559,9.8352,0.407,0.272,0.4034
6310,926,837,34.53,34.272,0.0587,-0.0789,9.7561,0.5032,-0.6167,-0.4711
6315,918,844,34.555,34.289,-0.0713,0.0822,9.7889,-0.6488,-0.4788,-0.4929
6320,903,842,34.529,34.329,0.0303,-0.0271,9.9912,0.6522,0.3606,-0.2816
6325,896,843,34.538,34.272,-0.0377,-0.0271,9.8243,-0.2238,-0.0021,-0.6069
6330,892,829,34.537,34.402,0.0032,-0.0089,9.9328,0.767,0.2245,0.5191
6335,877,832,34.649,34.229,-0.0492,-0.0422,9.8326,-0.5593,-0.8751,-0.0344
6340,868,831,34.573,34.273,0.0063,-0.155,9.8714,-0.5359,-0.1093,-0.3806
6345,852,826,34.635,34.303,-0.0872,-0.0592,9.8546,-0.4636,0.7245,-0.0784
6350,854,826,34.406,34.297,0.0097,0.0164,9.7305,0.7962,-0.4671,0.4952
6355,848,819,34.48,34.194,0.0013,-0.0783,9.7989,-0.2584,0.2038,-0.2019
6360,841,817,34.479,34.331,-0.0028,0.0043,9.8046,-0.2576,-0.5917,-0.9472
6365,836,814,34.539,34.261,-0.0158,-0.0168,9.9255,0.8747,0.4904,-0.6301
6370,826,812,34.598,34.358,0.0757,0.0488,9.7959,0.8363,0.7965,-0.4443
6375,817,815,34.473,34.21,-0.0101,0.0194,9.6915,1.1615,-0.3589,0.178
6380,802,807,34.61,34.27,-0.0288,-0.0377,9.806,-0.4453,0.0761,0.1369
6385,800,807,34.629,34.259,0.0563,-0.0124,9.7665,0.5145,-0.0342,-0.4583
6390,793,797,34.558,34.31,-0.0259,-0.0702,9.8343,0.6743,-0.0754,-0.292
6395,781,796,34.461,34.25,-0.0893,0.0209,9.8186,-0.2401,0.298,0.1807
6400,783,792,34.38,34.259,0.0869,-0.0251,9.8098,-0.0227,0.1754,-0.1308
6405,785,785,34.567,34.325,0.0169,-0.0578,9.8242,0.5261,0.3979,0.2179
6410,775,782,34.619,34.295,0.0193,-0.0017,9.8171,0.4983,-0.2935,-0.1854
6415,763,785,34.525,34.308,-0.0582,0.0005,9.7747,0.2252,-0.3408,-0.3046
6420,767,769,34.566,34.336,-0.0026,0.0935,9.8372,-0.6683,0.3823,0.5158
6425,763,767,34.584,34.241,-0.0126,-0.0611,9.7853,-0.1965,-0.0799,0.0176
6430,758,770,34.601,34.29,0.0392,-0.0125,9.8516,-0.386,0.3795,-0.964
6435,759,760,34.516,34.33,-0.0695,0.0377,9.885,-0.2385,0.163,0.3267
6440,751,755,34.531,34.356,0.0825,0.09,9.759,-0.844,-0.1999,0.1672
6445,749,750,34.522,34.314,-0.0062,-0.0281,9.7828,-0.1644,0.4823,0.294
6450,750,746,34.495,34.268,-0.0132,-0.0462,9.8267,-0.2412,0.9143,-0.4201
6455,753,736,34.493,34.284,0.034,0.0118,9.8035,0.7839,0.283,0.0584
6460,741,733,34.471,34.321,0.0536,0.0211,9.7222,-0.2129,-0.4091,0.0097
6465,749,730,34.457,34.307,0.0189,-0.0464,9.8507,-0.3942,-0.3273,0.4529
6470,748,725,34.533,34.317,-0.0777,-0.0242,9.7204,-0.7813,-1.3925,0.5641
6475,754,726,34.513,34.255,-0.0116,0.0342,9.8522,0.917,-0.1927,-0.2723
6480,756,713,34.529,34.251,-0.0037,-0.0424,9.8034,-0.1454,0.414,-0.0932
6485,769,709,34.533,34.231,0.0402,0.0067,9.7438,0.3643,-0.4455,0.3351
6490,766,703,34.541,34.287,-0.0228,0.0251,9.8468,-0.4612,0.4604,-0.7825
6495,765,703,34.444,34.289,-0.0698,-0.034,9.8902,0.4788,0.0673,-0.263
6500,775,698,34.581,34.26,-0.0642,-0.0456,9.7764,-0.442,0.254,-0.075
6505,783,695,34.534,34.345,0.0082,-0.0507,9.835,-0.5452,0.3974,0.264
6510,782,688,34.404,34.364,0.0357,-0.0876,9.7842,-0.5339,0.1782,0.0273
6515,790,679,34.62,34.194,0.0163,-0.1086,9.8192,-0.5982,-0.2147,0.0991
6520,790,678,34.545,34.273,-0.1284,-0.0192,9.8619,-0.373,0.3792,0.5763
6525,807,670,34.571,34.23,0.1026,-0.0647,9.8522,0.3224,-0.5301,-0.6739
6530,817,669,34.583,34.307,-0.08,-0.0386,9.7744,0.6902,-0.0907,0.533
6535,822,666,34.619,34.262,-0.1057,-0.0464,9.8093,0.2348,-0.2543,-0.0317
6540,827,673,34.508,34.284,-0.0142,-0.0254,9.8295,0.086,0.1891,0.5046
6545,852,658,34.579,34.323,0.0155,-0.0013,9.828,-0.6006,-0.416,0.47
6550,855,658,34.471,34.362,0.0033,-0.0489,9.781,0.3789,-0.56,-0.8226
6555,864,659,34.507,34.255,0.0274,0.0299,9.8192,0.3882,0.5328,0.3795
6560,876,655,34.605,34.317,-0.0362,-0.0657,9.8506,-0.3971,-0.4031,-0.6964
6565,889,651,34.479,34.369,0.0658,0.0838,9.6831,-0.0359,0.358,0.8338
6570,895,658,34.507,34.25,-0.0735,-0.0037,9.8463,-0.1197,-0.0948,-0.1334
6575,911,647,34.556,34.32,-0.0592,-0.0855,9.7761,0.1935,-0.7167,-0.4806
6580,915,652,34.58,34.313,0.0781,-0.0157,9.8186,-0.0348,-0.4974,0.0442
6585,930,649,34.568,34.244,-0.0231,0.0434,9.8358,-0.8477,0.4292,-1.0288
6590,945,651,34.452,34.349,-0.002,0.037,9.8028,-0.5568,-0.7048,-0.0164
6595,949,648,34.566,34.357,-0.0234,-0.0232,9.8373,-0.7124,0.5446,-0.566
6600,962,647,34.504,34.322,0.0856,-0.0929,9.7856,0.2696,-0.3398,-0.1509
6605,973,654,34.554,34.308,-0.0578,-0.0242,9.8345,-0.4079,-0.1063,-0.0596
6610,988,657,34.524,34.241,0.029,-0.0703,9.7843,0.1629,-0.4099,0.1917
6615,997,655,34.486,34.397,-0.0505,-0.0459,9.7788,0.54,0.2914,1.1068
6620,1012,659,34.468,34.335,0.0602,0.0928,9.8652,-0.2493,0.0668,-0.4388
6625,1020,663,34.581,34.289,0.0303,-0.0185,9.8351,-0.0228,-0.2618,-0.6129
6630,1033,663,34.522,34.295,-0.0833,0.0294,9.9182,0.0117,-0.4886,0.4779
6635,1039,672,34.54,34.272,-0.0663,-0.03,9.7827,-0.0976,-0.0619,-0.7068
6640,1054,673,34.532,34.424,0.0486,0.0755,9.8821,-0.6089,0.9477,-0.0415
6645,1070,678,34.49,34.294,-0.005,-0.1981,9.7317,0.1852,-0.0415,1.1897
6650,1074,677,34.582,34.239,0.097,-0.0773,9.8138,-0.1375,-0.0207,-0.5452
6655,1085,683,34.571,34.292,-0.011,-0.0908,9.7995,-0.3376,-0.9983,0.1008
6660,1099,688,34.521,34.298,0.0951,-0.0447,9.8735,-0.214,-1.1091,1.172
6665,1109,702,34.621,34.322,-0.0616,0.0018,9.87,0.8495,-0.5592,1.2197
6670,1113,704,34.495,34.37,0.0904,0.0293,9.7872,0.486,-1.1793,0.6211
6675,1113,706,34.522,34.319,0.0114,-0.0448,9.808,0.6331,0.6766,1.1018
6680,1128,712,34.509,34.283,0.0296,0.0735,9.7766,-0.3717,0.0096,0.2526
6685,1124,722,34.602,34.347,-0.0311,-0.051,9.7281,0.3742,-0.1672,0.092
6690,1140,722,34.573,34.22,-0.0394,-0.0636,9.879,0.2675,1.0832,0.1432
6695,1138,731,34.583,34.28,0.0409,-0.1403,9.8079,-1.175,-0.7278,1.1042
6700,1159,737,34.522,34.355,0.0215,0.0721,9.8361,0.0502,1.2015,-1.0071
6705,1155,744,34.515,34.37,0.0058,0.0512,9.7922,-0.6215,-0.1417,0.0009
6710,1160,754,34.598,34.29,0.0132,-0.0216,9.8001,-1.0172,0.0282,-0.5363
6715,1162,757,34.534,34.35,-0.0824,-0.0737,9.77,0.6196,0.1379,-0.6039
6720,1177,762,34.569,34.349,0.0726,0.0643,9.8224,0.062,-0.4495,-0.1497
6725,1178,773,34.463,34.181,-0.019,-0.0438,9.7714,0.4702,-0.5211,-0.0875
6730,1184,778,34.566,34.283,-0.0287,-0.0164,9.7982,0.3316,-0.3123,0.3642
6735,1187,784,34.565,34.378,0.0414,-0.0615,9.7785,0.2888,-0.7621,-0.054
6740,1184,794,34.54,34.339,-0.017,0.0251,9.7991,-0.9113,-0.9183,-0.6248
6745,1179,802,34.437,34.272,-0.0567,0.0196,9.8045,-0.5181,-0.1928,0.6139
6750,1187,804,34.645,34.243,-0.0389,0.0205,9.8126,-0.926,0.4118,0.2368
6755,1190,811,34.579,34.252,0.0684,-0.0343,9.8153,0.5237,-0.1611,-0.5041
6760,1186,823,34.587,34.286,-0.0926,0.0934,9.8392,-0.1884,-0.7355,0.6101
6765,1191,828,34.586,34.236,-0.0118,-0.018,9.7,0.1812,0.123,-0.7389
6770,1185,829,34.571,34.251,0.0477,0.0346,9.8328,0.3444,0.0272,-0.7467
6775,1184,837,34.528,34.319,-0.043,0.0273,9.8061,-0.5209,0.1233,0.2
6780,1182,844,34.571,34.234,0.0474,-0.0125,9.7839,-0.1095,-0.7487,-0.4426
6785,1178,851,34.537,34.29,0.0757,0.0094,9.8475,-0.4492,0.2335,0.1119
6790,1170,849,34.571,34.295,0.0193,-0.0138,9.8412,-0.2699,0.3352,-0.3597
6795,1187,859,34.513,34.284,0.007,-0.0153,9.7862,-0.3463,0.4517,0.4619
6800,1185,867,34.509,34.345,0.0627,-0.0656,9.7947,-1.2353,0.129,0.079
6805,1183,862,34.507,34.3,0.0458,0.045,9.8402,-0.0074,0.4444,-0.3037
6810,1166,877,34.542,34.288,0.0356,0.0783,9.7655,-0.5317,-0.1594,0.5915
6815,1179,878,34.637,34.241,0.0256,-0.1019,9.7803,0.1386,-0.91,0.8331
6820,1165,884,34.514,34.277,0.0737,0.0701,9.8524,0.1631,0.2493,-0.5531
6825,1168,887,34.52,34.234,-0.0757,-0.0348,9.827,0.3318,0.1625,0.419
6830,1152,891,34.589,34.358,-0.0105,0.0483,9.7543,0.7565,-0.1621,0.3146
6835,1158,893,34.669,34.246,-0.1072,0.0581,9.8334,0.6137,-0.1274,0.0723
6840,1159,899,34.467,34.317,-0.0504,0.0017,9.8705,0.5547,-0.1323,1.082
6845,1159,894,34.585,34.261,-0.0306,-0.0045,9.8098,0.2198,0.5179,-0.2079
6850,1148,900,34.567,34.317,0.015,-0.0081,9.6992,-0.3232,-0.1429,-0.2473
6855,1154,902,34.41,34.291,-0.0434,0.0031,9.8092,0.2606,-0.3135,0.0052
6860,1154,907,34.445,34.368,-0.0772,0.0572,9.7726,0.9388,0.6846,-0.3875
6865,1146,904,34.507,34.276,0.0169,0.1363,9.8675,1.025,-0.251,0.833
6870,1139,907,34.554,34.329,-0.0591,-0.0613,9.756,-0.2347,0.4886,-0.0737
6875,1133,908,34.52,34.266,-0.021,0.0711,9.8076,-0.4033,0.3195,-0.5082
6880,1131,910,34.643,34.282,0.0097,-0.0277,9.8199,-0.2839,-0.4253,0.1922
6885,1128,907,34.536,34.356,0.0091,0.0023,9.7395,0.514,-0.1666,-0.5324
6890,1130,908,34.592,34.35,0.0015,-0.0151,9.8284,-0.0629,0.2993,-0.5572
6895,1124,911,34.481,34.296,0.0827,-0.0624,9.8082,0.4881,-0.9141,0.31
6900,1124,907,34.528,34.214,0.017,-0.0364,9.7879,-0.0375,-0.1015,-0.7336
6905,1125,910,34.478,34.281,-0.024,-0.0243,9.8234,0.4878,-0.4344,0.4506
6910,1120,915,34.591,34.303,-0.0195,0.0054,9.7973,-0.0643,0.5411,0.7626
6915,1113,907,34.537,34.343,0.0602,-0.0623,9.8297,-0.2842,0.0017,0.4935
6920,1107,910,34.533,34.302,0.0452,-0.015,9.7972,-0.0688,0.2369,-0.2309
6925,1106,914,34.563,34.244,-0.1,-0.0148,9.8556,-0.6311,0.837,-0.3911
6930,1116,903,34.471,34.297,-0.0101,-0.1123,9.7973,-0.5948,-0.0369,0.3979
6935,1116,902,34.545,34.377,-0.0275,0.0523,9.821,-1.2539,-0.0703,0.7725
6940,1090,903,34.526,34.317,-0.0133,-0.0338,9.7985,-0.4632,0.4445,-0.5166
6945,1101,901,34.657,34.355,-0.0476,-0.039,9.8232,-0.1617,0.1278,0.8534
6950,1088,904,34.59,34.269,0.0326,0.1015,9.8018,0.1986,-0.4317,0.1827
6955,1105,898,34.567,34.363,0.0314,0.0243,9.7764,0.4215,0.4144,0.4575
6960,1091,898,34.578,34.365,-0.0253,-0.0142,9.8238,-0.359,-0.1417,0.318
6965,1088,896,34.565,34.355,-0.0183,-0.0131,9.8268,-0.8987,-0.6924,-0.2489
6970,1083,893,34.489,34.299,-0.078,-0.0174,9.7819,-0.7586,-0.2318,0.4409
6975,1084,889,34.613,34.293,-0.0346,-0.0386,9.819,-0.2695,-0.0557,0.1814
6980,1088,890,34.599,34.311,0.0214,-0.0785,9.8409,-0.1726,-0.7362,0.2331
6985,1082,885,34.538,34.341,-0.0197,-0.0191,9.7526,-0.6042,-0.2014,-0.304
6990,1081,886,34.535,34.351,-0.0161,-0.0774,9.8137,0.5635,0.8053,1.2681
6995,1074,881,34.486,34.377,-0.0167,0.0037,9.7465,-1.4396,-0.3779,-0.3237
7000,1075,877,34.591,34.285,0.0216,0.0015,9.8398,-0.4132,-0.1931,-0.4137
7005,1072,881,34.624,34.299,0.0576,-0.0608,9.819,-0.9269,0.3021,0.8115
7010,1079,879,34.443,34.461,-0.0094,-0.0101,9.8552,-0.7507,-0.247,-0.7476
7015,1067,878,34.439,34.291,-0.0044,-0.0167,9.8462,-0.1844,0.0649,0.1621
7020,1065,881,34.558,34.224,0.053,0.0135,9.7696,-0.3988,0.9967,0.0224
7025,1065,871,34.524,34.256,0.0134,-0.0859,9.8464,0.5395,0.5804,0.3821
7030,1051,871,34.564,34.304,-0.0205,0.0216,9.6871,0.6261,-0.6003,-0.3835
7035,1052,866,34.469,34.315,0.007,0.0163,9.8615,0.3594,-0.2547,-0.6632
7040,1046,871,34.61,34.34,0.0222,-0.0475,9.8857,0.1376,0.3653,0.6058
7045,1048,865,34.505,34.348,-0.0793,-0.0257,9.856,-0.0366,-0.494,-0.5732
7050,1044,868,34.584,34.292,-0.0004,0.0689,9.822,0.3265,-0.8755,0.6356
7055,1036,864,34.59,34.273,0.0195,0.0166,9.9062,-0.0138,-0.4502,0.4886
7060,1035,863,34.473,34.279,-0.0186,0.0549,9.688,0.0023,0.1585,0.4849
7065,1024,859,34.533,34.343,0.1292,0.0169,9.8839,0.3546,0.1244,0.0595
7070,1021,856,34.455,34.296,0.0352,-0.04,9.7716,0.2236,-0.0552,-0.773
7075,1013,860,34.526,34.3,-0.0848,0.1216,9.8396,0.6492,0.161,-0.1262
7080,1004,861,34.508,34.29,-0.0392,0.0149,9.748,0.7775,0.3047,-0.1491
7085,1000,853,34.532,34.379,0.0383,-0.053,9.8648,0.2255,-1.2539,0.5232
7090,990,846,34.477,34.32,-0.0158,0.0211,9.806,0.0813,0.4333,-0.6729
7095,991,855,34.553,34.31,0.0577,0.0094,9.8302,0.6733,-0.2983,-0.5608
7100,987,854,34.591,34.346,-0.0413,0.0903,9.7891,0.2406,0.0812,-0.712
7105,974,848,34.493,34.328,-0.0433,-0.0688,9.9538,-0.1843,-0.2823,0.2643
7110,964,851,34.586,34.302,0.0646,-0.0499,9.7432,-0.3651,-0.0235,-0.8622
7115,964,848,34.579,34.364,-0.0232,0.0384,9.8303,-0.0092,0.0467,0.3139
7120,949,846,34.57,34.288,0.0107,-0.002,9.8465,-0.6333,-0.435,0.4474
7125,943,845,34.487,34.299,0.0657,0.027,9.8178,0.8685,0.2557,0.5037
7130,937,850,34.494,34.373,0.0017,0.0109,9.7934,-0.253,-0.5097,-0.1908
7135,925,850,34.536,34.4,-0.0111,0.1524,9.8973,-0.1299,-0.7988,0.5475
7140,932,835,34.614,34.297,-0.0686,-0.1425,9.8145,-0.9124,0.0792,0.2941
7145,918,848,34.52,34.25,0.0173,0.0456,9.7817,0.1863,-0.8607,-0.8882
7150,902,842,34.595,34.267,0.0113,0.0143,9.8082,0.337,-0.5072,-0.5259
7155,901,835,34.541,34.313,-0.0006,0.0071,9.8373,0.1488,0.5601,-0.3002
7160,895,832,34.57,34.257,0.0876,0.0698,9.6989,0.2824,0.8991,0.4891
7165,879,833,34.596,34.331,0.0309,0.0045,9.8579,-0.3226,-0.1223,0.5019
7170,861,827,34.53,34.307,0.0087,-0.0038,9.863,0.2084,-0.2395,-0.1906
7175,857,828,34.488,34.248,-0.0325,-0.009,9.7487,0.7523,0.3622,0.3107
7180,862,822,34.547,34.343,0.0082,-0.0992,9.8386,-0.9003,-0.2932,-0.4036
7185,845,827,34.511,34.353,0.0153,-0.0457,9.8006,-0.4887,0.2957,-1.162
7190,838,822,34.407,34.459,-0.1166,0.0296,9.809,0.6833,0.4574,1.4149
7195,834,811,34.608,34.22,-0.0042,-0.0761,9.8285,0.5276,0.2233,0.9451
7200,828,814,34.503,34.332,0.0103,0.008,9.7964,-0.3295,0.1236,-0.2885
7205,801,810,34.546,34.296,0.0134,-0.0506,9.8659,-0.2891,0.7335,0.7634
7210,806,807,34.572,34.252,0.0577,-0.0374,9.7947,0.0866,-0.2164,-0.2232
7215,800,803,34.617,34.212,-0.0924,-0.059,9.8762,-0.6772,0.6204,-0.6407
7220,793,799,34.609,34.288,0.0415,0.0062,9.8194,-0.2008,0.0555,-0.6445
7225,781,796,34.493,34.34,-0.0322,0.0751,9.8277,0.3576,0.9876,0.011
7230,780,787,34.592,34.361,-0.0736,-0.0414,9.9129,-0.3178,0.1815,-0.2771
7235,771,789,34.485,34.36,0.053,0.0024,9.8895,0.2622,0.2949,-0.9019
7240,769,784,34.505,34.256,-0.0793,0.0168,9.9019,-0.0261,-0.6215,-0.2179
7245,766,779,34.5,34.305,-0.0202,0.002,9.8459,0.2996,-0.4146,-0.814
7250,756,773,34.596,34.28,0.0701,-0.0729,9.8451,-0.4762,-0.24,-0.2115
7255,756,763,34.55,34.41,-0.0662,-0.0581,9.7422,-0.2694,0.5753,0.0367
7260,744,759,34.523,34.267,-0.0104,0.0595,9.7107,0.5527,0.785,0.586
7265,753,756,34.521,34.289,0.0172,-0.0155,9.7972,0.216,-0.6933,-0.8197
7270,745,756,34.576,34.378,-0.0273,-0.0568,9.8171,0.9038,-0.1259,0.0845
7275,748,750,34.516,34.337,-0.0578,0.0088,9.743,0.2042,-0.5415,-0.503
7280,745,744,34.558,34.26,-0.0676,0.0337,9.7672,-0.336,-0.5543,-0.0572
7285,750,739,34.512,34.256,0.0173,0.0179,9.8018,0.3344,0.6563,-0.0251
7290,744,733,34.586,34.246,-0.1123,0.1096,9.7598,-0.0143,0.3917,-0.1866
7295,747,729,34.489,34.236,-0.0115,0.0033,9.7806,0.4754,-0.218,0.3163
7300,749,723,34.617,34.309,-0.089,-0.0726,9.7886,0.1519,-0.6987,0.1268
7305,758,717,34.549,34.284,0.0502,0.0236,9.7443,0.0474,0.2694,-0.0651
7310,759,711,34.514,34.303,-0.0174,-0.058,9.8331,0.2973,-0.6542,0.0584
7315,767,707,34.457,34.21,-0.0436,-0.0272,9.8082,-0.0754,-0.1929,-0.2678
7320,769,700,34.558,34.313,-0.0254,0.0656,9.7353,-0.5056,-0.6964,-0.9378
7325,776,699,34.524,34.29,0.0286,-0.0728,9.6872,0.5501,0.0695,0.5325
7330,775,698,34.568,34.329,-0.0514,0.0648,9.7467,0.1986,0.1295,0.2115
7335,770,690,34.513,34.263,-0.0014,-0.0422,9.8856,-0.5707,-0.6232,-0.0058
7340,781,688,34.53,34.298,0.0047,0.0649,9.8754,0.3518,0.3837,0.2763
7345,789,680,34.579,34.269,0.0677,0.0813,9.7812,-0.4306,-0.301,0.1684
7350,802,681,34.563,34.393,-0.1027,-0.0472,9.7978,0.7022,-0.4019,-0.6127
7355,793,670,34.571,34.343,0.0878,-0.0817,9.8396,-0.2136,0.2984,-0.2504
7360,819,675,34.58,34.39,0.1091,0.0083,9.8486,0.1725,-0.1623,0.8301
7365,830,664,34.577,34.343,0.0599,0.0114,9.6803,0.3067,0.6241,-0.2835
7370,836,663,34.549,34.337,-0.0613,-0.0043,9.9292,0.0581,-0.3824,-0.6585
7375,843,658,34.487,34.357,0.0579,0.0848,9.8298,0.6785,0.0603,-0.5076
7380,863,658,34.637,34.236,-0.0403,-0.0185,9.7556,0.9589,-0.1498,-0.197
7385,860,655,34.606,34.352,-0.0037,0.0589,9.8238,0.5891,0.9828,0.6361
7390,887,655,34.458,34.326,-0.0059,-0.0324,9.8435,0.0624,0.1962,-0.2087
7395,881,657,34.499,34.287,0.02,0.0082,9.789,-0.5542,-0.2685,-0.2485
7400,888,650,34.476,34.312,-0.0477,-0.0822,9.8104,0.8879,0.2718,0.2164
7405,900,652,34.549,34.248,-0.0076,0.0163,9.7014,-1.2984,0.3223,-0.112
7410,927,651,34.603,34.296,0.0707,0.0351,9.8557,0.6883,0.6884,0.1845
7415,941,654,34.602,34.256,0.0168,-0.1182,9.7577,0.5987,0.1823,-0.1416
7420,955,658,34.568,34.364,-0.0216,-0.0432,9.8467,0.4342,-0.6572,0.2269
7425,956,653,34.454,34.33,-0.0276,-0.0757,9.7486,0.48,0.2255,0.4209
7430,957,653,34.59,34.351,-0.0889,-0.0773,9.926,0.5046,-0.4052,-0.682
7435,976,654,34.525,34.188,-0.0158,0.0602,9.8215,1.004,-0.3223,0.2779
7440,989,656,34.644,34.247,-0.0063,-0.0617,9.7673,-0.2538,-0.0758,0.2982
7445,1004,658,34.59,34.363,-0.0915,-0.03,9.8139,0.3588,0.0506,-0.9497
7450,1017,657,34.602,34.328,0.0132,0.1207,9.8381,0.6515,-0.0693,-0.6126
7455,1021,663,34.458,34.312,-0.046,0.0096,9.7797,1.1977,0.3234,0.1982
7460,1028,661,34.607,34.239,0.0868,-0.045,9.8199,0.0799,-0.4529,-0.05
7465,1043,669,34.624,34.312,-0.0791,-0.0694,9.7968,0.7601,0.1722,-0.0258
7470,1062,671,34.523,34.334,-0.1172,0.0199,9.8225,-0.7058,-0.6001,1.3495
7475,1062,670,34.565,34.297,0.0033,-0.0036,9.785,-0.5722,-0.2425,-0.738
7480,1079,684,34.596,34.238,0.0226,-0.0103,9.7609,-0.5442,0.0913,1.4654
7485,1086,688,34.542,34.297,0.0684,-0.0329,9.813,-0.4742,-0.2631,-0.2918
7490,1091,690,34.574,34.333,-0.0687,0.016,9.7235,-0.7436,0.5661,-0.3468
7495,1104,693,34.564,34.417,-0.0527,0.0014,9.7573,-0.0294,0.4672,-0.4406
7500,1113,702,34.606,34.314,-0.0623,-0.0401,9.7071,0.8625,-0.2289,1.0062
7505,1121,706,34.494,34.342,-0.0134,0.0632,9.7262,0.4622,0.1083,0.7612
7510,1128,713,34.489,34.361,0.1242,0.0159,9.798,0.1884,-0.2903,0.131
7515,1133,715,34.514,34.359,-0.0696,0.019,9.9047,0.1126,-0.4647,0.0907
7520,1141,728,34.497,34.359,0.0551,-0.0141,9.7925,-0.6892,0.2408,-0.3301
7525,1152,731,34.579,34.319,0.0304,-0.0406,9.7208,-0.2266,0.1487,-0.6531
7530,1157,744,34.482,34.271,0.0858,-0.0117,9.7794,0.6535,0.0367,0.6876
7535,1159,747,34.633,34.232,0.0098,0.015,9.7564,0.3218,-0.8236,0.2035
7540,1159,749,34.525,34.353,-0.0475,0.0659,9.8266,-0.1495,-0.4964,0.3123
7545,1173,758,34.534,34.328,-0.1045,0.0006,9.8176,-0.0701,0.2464,0.3132
7550,1178,763,34.48,34.305,-0.0109,0.01,9.92,0.6565,0.3511,0.4317
7555,1177,770,34.57,34.389,-0.0456,-0.0148,9.7732,0.4261,-0.0576,0.4579
7560,1182,781,34.644,34.231,0.0096,-0.0469,9.8578,-0.1115,-0.338,-0.3428
7565,1175,790,34.508,34.259,-0.0438,-0.0656,9.7395,0.9564,-0.5657,-0.5997
7570,1189,795,34.591,34.304,0.0312,-0.0768,9.8805,-0.1981,-0.7717,0.2166
7575,1179,806,34.618,34.394,0.0392,-0.046,9.8551,0.2461,0.444,0.3177
7580,1187,809,34.462,34.235,-0.0121,-0.0796,9.8119,0.1668,-0.5714,0.2378
7585,1194,812,34.553,34.311,0.0133,0.0002,9.7129,-0.6984,-0.4365,-0.2868
7590,1193,821,34.556,34.38,-0.0254,0.0417,9.8233,-0.5645,0.4309,-1.4723
7595,1190,829,34.67,34.346,0.0684,0.0257,9.8222,-0.5472,0.1859,0.2296
7600,1182,834,34.476,34.266,-0.0689,-0.0158,9.7593,-0.8622,-0.1305,-0.1483
7605,1199,838,34.508,34.265,-0.053,-0.0594,9.8222,-0.14,-0.0379,-0.1999
7610,1202,845,34.576,34.287,0.0128,-0.0772,9.8387,0.1867,-0.1997,-0.4032
7615,1177,845,34.523,34.293,-0.0146,0.0089,9.7689,0.1643,0.5656,-0.5824
7620,1187,855,34.589,34.362,0.0265,0.1095,9.6996,0.5391,-0.2135,0.3142
7625,1183,858,34.569,34.291,-0.0581,-0.0179,9.7649,0.1577,0.5625,-0.1331
7630,1170,871,34.597,34.272,-0.0509,-0.0225,9.8131,0.5112,0.0175,-0.2781
7635,1178,867,34.582,34.341,0.0105,0.0488,9.7614,-0.1843,-0.2603,0.4818
7640,1168,877,34.602,34.251,-0.0167,-0.0026,9.9094,-0.0718,0.2526,-0.231
7645,1169,881,34.595,34.244,0.0058,-0.036,9.8038,-0.4943,-0.6117,-0.0846
7650,1167,882,34.562,34.274,-0.0018,-0.0176,9.6941,0.1573,-0.1209,0.3519
7655,1161,890,34.467,34.269,-0.0013,-0.0634,9.7613,-0.6244,-0.2297,0.8161
7660,1157,889,34.591,34.366,0.0366,0.0033,9.7809,-0.8613,0.0511,0.0051
7665,1155,893,34.593,34.396,-0.0399,0.0842,9.8165,-0.3615,0.0443,-0.1571
7670,1158,900,34.45,34.279,-0.0079,0.0755,9.9081,0.247,-0.0207,0.5871
7675,1151,900,34.579,34.25,-0.0181,0.0488,9.8171,-0.216,-0.3423,-0.8658
7680,1150,897,34.529,34.274,-0.026,-0.0264,9.8156,0.2304,-0.3599,0.5675
7685,1144,905,34.579,34.337,-0.0914,-0.0418,9.6942,-0.3187,-0.865,-0.2584
7690,1137,908,34.512,34.274,-0.0002,-0.004,9.8052,0.2214,-1.0361,0.3132
7695,1148,902,34.541,34.343,-0.0911,-0.0032,9.8566,-0.1213,0.0384,-0.845
7700,1136,903,34.451,34.346,0.0209,0.0606,9.8521,-0.7238,-0.5493,-0.0292
7705,1130,912,34.6,34.337,-0.0107,0.0393,9.8241,0.0758,-0.4332,-0.3617
7710,1127,908,34.555,34.276,0.0072,-0.064,9.7688,0.5221,-0.1981,0.0658
7715,1139,910,34.542,34.362,-0.0584,0.1218,9.8308,0.461,0.6388,0.4527
7720,1117,909,34.504,34.34,0.0132,0.0173,9.7489,0.3115,0.4737,-0.3872
7725,1120,905,34.661,34.38,-0.0578,-0.0663,9.8075,0.4478,0.1715,-0.9895
7730,1124,913,34.57,34.278,-0.0334,-0.0665,9.7372,0.5307,0.2806,-1.0604
7735,1110,908,34.487,34.334,0.0166,-0.0096,9.8396,-0.7888,-0.5822,0.512
7740,1114,912,34.45,34.392,-0.0725,0.0863,9.8264,-1.0399,0.4691,0.3882
7745,1121,911,34.548,34.432,-0.0195,0.0022,9.788,0.7356,-0.7581,-0.032
7750,1110,905,34.536,34.328,0.1424,-0.0248,9.7306,0.1318,1.0131,0.4841
7755,1108,903,34.502,34.325,-0.0377,-0.0275,9.8665,-0.387,-0.3326,-0.3831
7760,1113,907,34.581,34.284,-0.0423,0.006,9.8776,0.1667,0.7208,-0.433
7765,1106,907,34.487,34.257,-0.0083,0.0457,9.8423,-0.0125,-0.4924,0.3187
7770,1105,909,34.511,34.314,0.0164,0.0036,9.8697,-0.3648,0.3312,-0.1153
7775,1107,904,34.586,34.358,-0.029,0.049,9.8198,-0.4278,-0.1033,-0.5227
7780,1104,901,34.446,34.295,0.022,-0.0318,9.8177,-0.138,0.5226,-0.7361
7785,1091,899,34.484,34.405,-0.0589,0.061,9.764,-0.3088,0.5952,-0.1517
7790,1096,894,34.59,34.384,0.0214,0.0854,9.8082,-0.0614,0.032,0.6441
7795,1089,897,34.536,34.316,0.0861,0.0941,9.8292,0.1569,-0.0274,-0.0917
7800,1091,890,34.534,34.314,0.0224,-0.0336,9.797,-0.691,-0.0842,0.3252
7805,1092,896,34.688,34.274,-0.0789,0.0507,9.7325,-0.2413,0.5882,-0.3075
7810,1086,889,34.594,34.404,-0.0072,-0.0024,9.8321,-0.3165,0.441,0.5096
7815,1077,886,34.532,34.337,-0.0013,0.0025,9.7774,0.5453,0.0093,0.3248
7820,1079,887,34.569,34.28,0.0378,0.0129,9.7778,-0.1925,0.1571,0.7628
7825,1066,883,34.361,34.379,-0.1087,-0.0346,9.7356,-0.0915,-0.4775,0.4536
7830,1079,879,34.531,34.362,-0.0603,0.0693,9.8475,0.4331,-0.6398,0.0637
7835,1076,877,34.536,34.323,-0.0438,-0.0258,9.8735,-0.3595,0.0536,-0.0519
7840,1075,882,34.522,34.275,-0.0562,-0.0915,9.9105,-0.5643,-0.2223,-0.7433
7845,1071,876,34.519,34.325,0.0003,-0.0408,9.8725,-0.3831,0.0049,-0.4759
7850,1065,873,34.592,34.365,-0.0716,-0.0313,9.8128,-0.346,-0.25,-0.0859
7855,1071,874,34.558,34.457,-0.0808,0.0958,9.8431,0.5597,0.4303,-0.0588
7860,1049,870,34.433,34.286,0.0605,-0.0463,9.8324,0.0766,0.3602,-0.1037
7865,1054,873,34.547,34.207,-0.0747,0.0059,9.7558,-0.1791,0.1806,0.6877
7870,1053,867,34.54,34.22,-0.0292,-0.0356,9.875,-0.3783,0.5276,0.4833
7875,1049,866,34.52,34.296,-0.0098,-0.0459,9.7475,0.3407,0.2746,0.0779
7880,1034,866,34.591,34.226,-0.0231,-0.017,9.7943,0.0665,-0.1329,0.0523
7885,1034,859,34.548,34.294,0.0095,0.1384,9.7891,0.08,-0.4754,-0.3198
7890,1035,860,34.552,34.383,-0.0241,0.0069,9.7107,-0.0365,0.6217,0.5011
7895,1026,860,34.445,34.29,-0.0082,0.0359,9.8477,-0.1208,0.0724,-0.1226
7900,1018,862,34.584,34.312,0.0057,0.0048,9.8424,0.6299,0.589,-0.7365
7905,1023,856,34.637,34.345,-0.048,0.02,9.8371,-0.2278,0.2256,0.1359
7910,997,859,34.571,34.295,-0.0058,-0.0706,9.8846,-0.09,0.0631,0.3399
7915,1002,859,34.563,34.3,0.0128,0.0061,9.7351,0.1629,-0.8521,0.3957
7920,999,852,34.448,34.28,0.0998,-0.0137,9.7822,0.1146,-0.8858,0.0471
7925,990,855,34.548,34.304,0.0416,-0.0188,9.7778,0.1568,-0.0194,0.4983
7930,977,855,34.648,34.297,0.0273,-0.0142,9.8471,0.7519,-0.0591,-0.2715
7935,981,853,34.561,34.194,-0.019,-0.0617,9.7205,0.1214,0.518,0.0285
7940,961,847,34.486,34.278,0.0433,-0.1372,9.8047,0.3423,0.4802,-0.0062
7945,958,842,34.562,34.291,-0.0267,-0.0015,9.7752,0.362,0.3647,0.1863
7950,955,851,34.547,34.284,0.049,-0.0166,9.7598,0.4459,0.5228,-0.041
7955,943,846,34.47,34.3,0.0405,0.057,9.853,-0.3684,-0.6247,-1.0506
7960,937,843,34.483,34.297,0.0294,-0.0024,9.8724,-1.326,-0.2248,-0.5499
7965,924,840,34.556,34.337,-0.0574,0.0891,9.8333,-0.1739,0.4364,-0.0973
7970,919,839,34.556,34.429,-0.0104,0.0728,9.7903,-0.147,-0.2491,1.0933
7975,915,842,34.571,34.347,0.0467,-0.0508,9.7522,-0.4102,-0.3063,-0.1953
7980,913,840,34.435,34.291,-0.0739,-0.122,9.7437,1.1428,0.0358,0.9217
7985,899,840,34.609,34.383,-0.0513,0.0686,9.7867,-0.1082,0.1731,0.312
7990,882,834,34.5,34.353,0.0074,-0.0448,9.744,0.1368,-0.1402,-0.067
7995,880,833,34.596,34.289,0.0497,-0.0094,9.7366,0.3537,-0.1349,-0.1943
8000,869,825,34.498,34.28,-0.0322,0.0671,9.8803,0.2051,-0.4831,-0.9152
8005,857,827,34.591,34.271,0.0252,-0.0443,9.8781,0.3262,-0.0862,0.6939
8010,852,820,34.595,34.331,-0.0025,0.0017,9.8143,0.1887,-0.4406,0.5582
8015,845,825,34.534,34.307,0.003,-0.0354,9.8715,0.0645,0.155,-0.1403
8020,842,815,34.502,34.261,0.0315,-0.075,9.8168,-0.3969,0.5472,-0.2324
8025,825,815,34.596,34.306,-0.0791,-0.0673,9.8076,0.1642,-1.3929,0.4986
8029,820,817,34.591,34.288,-0.0246,-0.0285,9.8049,0.3955,0.5141,0.3045
8035,814,810,34.574,34.316,0.1096,-0.0249,9.8162,0.4005,-0.0468,0.8347
8039,800,800,34.475,34.258,0.0272,-0.0622,9.7669,-0.4444,-0.0877,-0.4679
8045,787,803,34.489,34.276,0.0987,0.0064,9.8568,0.641,0.3755,0.6937
8050,793,797,34.519,34.304,-0.0136,-0.0418,9.8158,-0.1418,-0.231,-0.0659
8055,788,796,34.538,34.343,0.1435,-0.0253,9.7791,0.1568,0.537,0.4445
8060,781,796,34.493,34.299,0.0585,-0.0079,9.7967,-0.0175,0.6354,-0.0231
8064,788,780,34.635,34.277,0.0268,-0.0065,9.8941,0.2461,-0.038,0.1136
8070,769,784,34.495,34.289,-0.0076,0.0361,9.6976,-0.0992,-0.0379,-0.1961
8074,774,775,34.472,34.278,0.0145,0.029,9.8179,0.3505,-0.2542,0.8238
8080,762,775,34.583,34.252,0.0305,0.0396,9.7427,-0.2849,-0.1839,-0.9052
8085,758,767,34.569,34.239,-0.031,-0.07,9.7997,0.8722,0.1518,-0.6528
8090,757,762,34.557,34.371,-0.0533,-0.0297,9.7848,0.1614,0.2624,-0.3463
8095,750,756,34.608,34.33,-0.1089,0.0369,9.7482,0.392,-0.0597,-0.7603
8100,750,757,34.527,34.254,0.045,0.0322,9.8001,-0.4948,-0.3595,-0.2277
8105,748,750,34.486,34.216,-0.0885,-0.0125,9.8357,0.6843,-0.0606,-0.2668
8109,749,745,34.532,34.299,-0.0323,-0.0443,9.769,-0.4253,-0.1224,-0.0973
8115,750,737,34.615,34.363,-0.015,-0.0597,9.8887,0.4204,-0.0374,-0.5168
8119,739,734,34.528,34.246,0.0429,-0.0073,9.9209,0.0379,0.4675,0.3
8125,749,727,34.537,34.368,0.0503,0.0341,9.7684,-0.0719,0.2016,-0.3462
8130,757,719,34.536,34.34,0.0305,0.0069,9.8378,0.0936,-0.4626,0.1016
8135,750,719,34.566,34.352,-0.0397,-0.0242,9.8399,-0.2962,-0.2601,-0.172
8140,751,713,34.546,34.297,0.0248,0.0884,9.8211,0.0911,-0.1066,-0.111
8145,754,707,34.561,34.375,0.0639,-0.0464,9.8462,0.2313,-0.3697,0.2935
8150,766,703,34.602,34.407,0.0533,0.0808,9.8218,0.4843,0.2595,0.3938
8154,766,698,34.522,34.33,0.0354,-0.0238,9.8204,0.0562,0.0215,0.0925
8160,774,691,34.589,34.363,-0.1067,0.0454,9.906,-0.4751,-0.8503,-0.698
8164,774,689,34.57,34.287,0.0069,0.0196,9.6783,-0.0305,0.478,-0.6949
8170,789,688,34.562,34.306,-0.0753,-0.054,9.784,-0.152,-0.0305,-0.5324
8175,799,682,34.575,34.301,0.0512,0.0013,9.8111,-0.4228,0.6399,-0.3217
8180,807,677,34.574,34.298,0.0381,-0.0409,9.7774,0.1815,-0.6322,0.0131
8185,812,673,34.659,34.364,-0.0195,-0.0122,9.7852,0.5426,0.6641,-0.0272
8189,812,670,34.524,34.251,0.1113,0.0013,9.8044,0.1448,-0.8742,0.0431
8195,825,667,34.567,34.307,0.0331,-0.1881,9.775,-0.7172,-0.7606,-0.3661
8200,836,665,34.553,34.239,0.0549,0.0831,9.8008,-0.5232,-0.3588,0.5447
8205,842,664,34.608,34.322,0.0549,-0.0014,9.8072,-0.0943,0.0071,0.0198
8210,850,659,34.639,34.318,-0.05,-0.0187,9.8298,-0.4377,-0.1093,-0.3174
8215,866,653,34.566,34.316,-0.0435,0.0031,9.7713,0.2021,-0.2655,-0.2121
8220,877,654,34.577,34.185,0.0418,0.0075,9.8759,-0.5227,0.4366,-0.5552
8225,891,654,34.638,34.414,0.0585,0.0189,9.7917,-0.9739,0.3899,0.7011
8230,899,656,34.494,34.254,-0.0167,-0.0088,9.7138,0.7863,0.5658,0.02
8235,908,648,34.484,34.277,-0.004,-0.0019,9.763,-0.179,-0.2699,0.0328
8240,918,656,34.583,34.294,0.0858,-0.0088,9.8159,0.0171,-0.6619,0.2335
8245,938,647,34.593,34.358,-0.1054,-0.0225,9.7318,-0.03,0.8742,0.3209
8250,936,646,34.661,34.344,-0.0167,0.0249,9.7706,0.2363,0.1815,0.6148
8255,963,655,34.491,34.375,0.0165,-0.0261,9.7658,0.8969,-0.0083,-0.1369
8260,969,658,34.519,34.375,0.0962,0.1016,9.8087,-1.2515,-0.1662,0.1364
8265,984,658,34.596,34.278,-0.0737,-0.1155,9.7742,0.7879,-0.9344,0.0777
8270,982,652,34.567,34.305,0.0348,0.0157,9.8922,-0.5577,0.4905,0.3294
8275,1001,654,34.59,34.309,-0.0603,0.0241,9.8198,-0.7125,-0.2321,0.3035
8280,1013,661,34.568,34.382,-0.0707,0.0541,9.8266,0.068,-0.6909,-0.0295
8285,1022,662,34.565,34.33,0.0144,-0.0517,9.8388,-0.3557,-0.0905,-1.4974
8290,1034,658,34.561,34.315,-0.0367,-0.0141,9.8089,0.0534,0.3616,0.8178
8295,1046,674,34.457,34.334,-0.0518,0.0346,9.8683,-0.1145,-0.1201,-1.5018
8300,1056,668,34.55,34.393,-0.0546,-0.1053,9.8187,-0.2121,0.1345,0.4011
8305,1072,676,34.566,34.406,-0.071,0.0564,9.8879,0.7303,0.7711,-0.4318
8310,1083,678,34.592,34.367,0.0719,0.0431,9.7631,-0.494,0.2653,0.4282
8315,1084,685,34.56,34.29,0.0254,0.015,9.7889,0.649,0.0105,0.3385
8320,1099,693,34.531,34.289,0.023,0.0043,9.8185,-0.2548,0.26,-0.7071
8325,1098,695,34.59,34.292,-0.0577,-0.0373,9.819,0.3862,0.1844,-0.3817
8330,1115,700,34.463,34.332,0.0088,-0.0352,9.8022,-0.1609,-0.7619,-0.3956
8335,1117,712,34.551,34.282,-0.0279,-0.1028,9.7902,-0.9218,-0.1652,0.6981
8340,1127,715,34.517,34.338,-0.0394,0.0132,9.7592,-0.772,-0.0638,-0.8663
8345,1128,716,34.527,34.317,0.0849,-0.0013,9.7928,-0.338,0.5025,-0.0716
8350,1139,728,34.581,34.271,0.0216,0.0491,9.798,0.2358,-0.4151,0.2013
8355,1156,731,34.56,34.406,0.0911,0.022,9.8184,0.6044,-0.2061,-0.0486
8360,1151,740,34.573,34.181,0.0894,0.0032,9.8154,0.66,-1.3448,0.2406
8365,1159,746,34.602,34.385,0.0557,-0.0738,9.761,0.1648,-0.0414,-0.392
8370,1160,756,34.572,34.36,-0.1775,-0.0379,9.8131,-0.9505,0.3028,0.3399
8375,1164,759,34.58,34.279,-0.0252,0.0021,9.8633,0.2785,-0.1616,0.5974
8380,1175,765,34.505,34.339,0.0691,-0.0483,9.8095,-0.0269,-1.3354,0.1235
8385,1165,774,34.555,34.309,0.0029,-0.0083,9.802,0.3865,-0.3954,-0.1226
8390,1187,785,34.502,34.262,-0.0238,-0.0184,9.805,-0.2779,1.4021,-0.1691
8395,1180,786,34.58,34.316,-0.0334,0.0131,9.7784,-0.4999,-0.0339,0.0642
8400,1182,795,34.568,34.379,-0.0177,-0.0072,9.8064,0.37,0.4448,0.3329
8405,1179,800,34.632,34.315,0.0116,0.0965,9.8835,1.0735,0.1047,-0.0518
8410,1188,805,34.603,34.302,-0.0461,0.0026,9.8493,-0.3842,0.2909,0.4088
8415,1186,805,34.459,34.411,-0.0558,-0.0329,9.7563,-0.2294,0.2245,-0.3413
8420,1191,818,34.503,34.338,0.011,-0.0374,9.8178,-0.1671,-0.3465,-0.1412
8425,1185,829,34.532,34.302,-0.0462,-0.0737,9.8826,0.321,0.212,-0.3871
8430,1178,833,34.476,34.24,0.045,-0.0497,9.8513,0.5155,-0.0017,0.3731
