timestamp_ms,ir_finger,ir_toe,temp_finger,temp_toe,ax,ay,az,gx,gy,gz
0,1041,671,34.346,33.679,0.019,0.0285,9.8423,-0.4712,0.6471,0.2602
5,1064,677,34.261,33.745,0.0668,0.0846,9.7587,-0.1823,-0.3681,-0.461
10,1063,676,34.257,33.717,0.0203,0.0149,9.8004,-0.5018,-0.4966,-0.0487
15,1067,684,34.312,33.653,-0.013,-0.0596,9.7658,0.1418,-0.24,0.7903
20,1081,686,34.328,33.611,0.0069,0.0229,9.9055,0.2863,-0.8575,-0.4222
25,1088,693,34.382,33.649,0.029,0.0982,9.8562,0.3183,-0.2667,-0.0175
30,1099,696,34.376,33.655,0.0262,-0.049,9.8403,-0.3863,-0.0813,-0.4072
35,1093,706,34.332,33.662,-0.0012,0.0429,9.8361,-0.4862,0.6545,-0.1556
40,1110,713,34.345,33.606,0.1131,-0.0638,9.761,0.0511,0.2532,0.704
45,1118,714,34.386,33.665,-0.0054,-0.0245,9.8791,0.0125,-0.2052,0.2063
50,1125,715,34.333,33.71,-0.037,0.0068,9.794,-0.6187,0.5967,0.4197
55,1143,725,34.272,33.771,-0.0293,0.0105,9.8331,0.384,0.0922,0.2378
60,1134,733,34.241,33.601,0.0561,-0.0082,9.7855,-0.9341,0.0621,0.2223
65,1138,736,34.284,33.722,-0.0035,0.0711,9.8624,-0.2483,-0.7854,0.1648
70,1148,742,34.286,33.713,0.0153,-0.045,9.7919,0.1632,0.4883,0.2931
75,1152,753,34.295,33.673,0.0311,0.0462,9.768,0.3747,0.0226,-0.7371
80,1169,756,34.311,33.678,-0.0317,-0.0768,9.7771,-1.0638,0.497,0.2895
85,1160,760,34.412,33.613,-0.0252,0.0209,9.8115,0.1162,-0.0275,-0.3831
90,1170,768,34.311,33.648,0.058,-0.0969,9.8324,0.2736,-0.2068,0.1452
95,1173,778,34.267,33.685,0.006,-0.0153,9.9356,0.2609,0.2793,0.1245
100,1185,781,34.338,33.648,0.0116,-0.0132,9.774,0.321,-0.5733,0.6037
105,1172,787,34.311,33.552,0.0908,-0.0002,9.8502,0.1959,-0.3774,0.3223
110,1180,791,34.297,33.619,0.0227,-0.0405,9.8019,-0.106,-0.5413,-0.2464
115,1179,797,34.403,33.72,-0.0618,0.0208,9.8495,-0.4987,0.2842,0.0372
120,1173,801,34.375,33.666,0.0113,-0.0078,9.7727,-0.5597,-0.3322,0.1968
125,1191,809,34.335,33.718,0.0082,0.0375,9.7387,0.1744,-0.1992,-0.4766
130,1190,819,34.298,33.699,-0.0379,0.0066,9.8472,-0.233,-0.2175,-0.665
135,1183,820,34.31,33.664,-0.0669,0.0169,9.9368,0.1166,-0.1283,0.0321
140,1193,829,34.353,33.618,0.0533,-0.0012,9.9181,0.297,-0.3862,-0.8672
145,1188,835,34.335,33.631,0.0477,-0.0313,9.8195,-0.1479,-0.4973,0.0254
150,1189,840,34.318,33.672,-0.0354,-0.0471,9.805,0.0424,-0.5486,0.343
155,1196,844,34.343,33.568,-0.0599,0.0441,9.7196,-1.1062,-0.6217,-0.8007
160,1186,851,34.349,33.718,0.0316,-0.03,9.8097,-0.0477,0.083,0.0053
165,1185,855,34.353,33.696,-0.0555,0.001,9.7966,0.2153,-0.31,-0.0955
170,1187,862,34.29,33.661,0.052,0.0437,9.8166,-1.1521,-0.0835,-0.2839
175,1183,865,34.304,33.671,-0.0943,-0.0215,9.7993,1.0415,0.6222,-0.3003
180,1177,863,34.306,33.725,-0.016,-0.0897,9.8597,0.1202,-0.8287,0.6648
185,1182,877,34.336,33.643,-0.0519,-0.0016,9.9026,-0.1404,-1.123,0.7049
190,1180,876,34.29,33.678,-0.0271,0.0074,9.8448,-0.896,-0.6469,-0.4568
195,1174,881,34.331,33.65,-0.0682,-0.0269,9.8752,-1.0537,-0.5495,-0.8695
200,1174,884,34.34,33.627,-0.0341,0.0214,9.7572,-0.5016,-0.8342,0.1755
205,1174,891,34.327,33.589,-0.0213,-0.0034,9.768,0.4505,0.0296,-0.035
210,1162,892,34.298,33.701,0.0269,-0.0763,9.7331,0.2879,0.2445,0.4489
215,1165,897,34.342,33.637,-0.0082,-0.0158,9.8288,-0.0759,0.2421,-0.6027
220,1165,892,34.351,33.645,0.0131,-0.0619,9.9213,-0.5401,-0.3361,-0.2527
225,1165,898,34.443,33.693,0.074,0.0156,9.8541,-0.7084,-0.2821,0.2469
230,1161,901,34.313,33.64,-0.0393,0.064,9.8544,-0.401,0.1687,-0.3612
235,1161,900,34.279,33.623,-0.0323,-0.022,9.7539,-0.4144,0.5047,0.6644
240,1150,907,34.296,33.615,-0.0085,-0.0948,9.7942,-0.2922,-0.0538,0.1422
245,1153,913,34.23,33.597,0.1057,0.0446,9.85,0.1974,-0.1009,-0.3035
250,1154,912,34.432,33.686,-0.0005,0.0439,9.91,-0.0817,0.311,-0.4658
255,1143,918,34.236,33.732,-0.0065,0.0251,9.7862,-0.5352,0.9019,1.2493
260,1144,909,34.414,33.705,-0.0309,-0.1322,9.748,-0.0364,-0.1671,-0.3239
265,1138,913,34.395,33.608,0.1019,0.046,9.7965,-0.4777,0.0503,-0.5084
270,1135,910,34.362,33.721,0.0039,-0.0053,9.81,0.2231,0.0342,-0.8345
275,1137,912,34.349,33.661,0.0519,0.0194,9.848,0.6687,0.4918,-0.0243
280,1132,912,34.429,33.634,0.0458,0.0265,9.8209,0.4539,0.5416,0.0638
285,1138,913,34.246,33.647,-0.0891,-0.0285,9.8319,0.644,-0.5567,-0.01
290,1125,914,34.26,33.706,0.0495,0.0049,9.791,0.8595,-1.0606,0.8684
295,1135,911,34.33,33.781,-0.036,0.0439,9.7823,1.7096,-0.2105,-0.2834
300,1119,915,34.302,33.652,0.0803,0.045,9.739,0.7352,0.58,-0.4557
305,1119,912,34.289,33.632,-0.0115,-0.0012,9.7887,0.4188,-0.3855,-0.658
310,1116,916,34.257,33.698,-0.1045,-0.0229,9.8113,0.6103,-0.0749,0.2009
315,1115,911,34.3,33.645,-0.0227,-0.0587,9.8845,-0.9351,-0.5481,-1.4554
320,1118,911,34.405,33.586,0.0568,0.0645,9.8479,0.104,0.6686,0.028
325,1104,908,34.333,33.598,0.0497,0.0493,9.8298,0.0977,0.0615,0.3953
330,1104,910,34.414,33.645,-0.0574,0.0028,9.7694,0.6473,0.1809,-0.2855
335,1107,906,34.349,33.695,-0.0331,0.0497,9.7912,-0.5685,-0.6318,0.1781
340,1103,902,34.344,33.687,0.0009,-0.0764,9.8903,0.1714,-0.7576,-0.5391
345,1103,906,34.232,33.64,0.0318,0.002,9.8742,0.4455,0.6545,0.5278
350,1109,904,34.28,33.68,-0.036,-0.0174,9.7768,0.058,0.3415,0.0303
355,1096,900,34.32,33.698,-0.0696,-0.0321,9.7701,-0.53,0.348,0.8117
360,1090,898,34.281,33.589,-0.0252,0.0629,9.8095,-0.1403,0.3546,0.2086
365,1092,898,34.346,33.676,0.1421,0.0485,9.8066,0.5415,0.3509,-0.4669
370,1087,897,34.372,33.669,0.0318,0.0149,9.8066,0.3744,-0.3801,-0.1719
375,1089,894,34.373,33.683,-0.0057,0.0775,9.754,0.349,0.0126,0.1096
380,1089,894,34.236,33.596,-0.0345,-0.0058,9.7672,0.8634,-0.3224,0.1004
385,1089,889,34.298,33.645,0.0299,-0.0006,9.8162,-0.8125,0.2384,1.4065
390,1092,892,34.278,33.734,0.0081,0.0068,9.9138,0.013,0.2984,-0.5089
395,1088,881,34.286,33.68,-0.0403,0.0173,9.7311,0.1157,-0.0378,0.2984
400,1089,886,34.393,33.641,0.0086,0.0217,9.7696,0.4777,-0.5353,0.0197
405,1077,884,34.349,33.69,0.0846,-0.0239,9.7667,0.9048,-1.0753,0.5108
410,1075,879,34.327,33.701,-0.0196,0.0076,9.7259,0.6299,-0.2049,-0.762
415,1070,878,34.28,33.674,-0.057,0.0543,9.7421,0.6156,0.4683,0.8269
420,1076,877,34.342,33.687,-0.0186,0.0422,9.7842,-0.4552,0.5781,-0.1118
425,1070,875,34.402,33.67,0.0149,0.0663,9.7893,-0.1091,-1.7737,-0.2534
430,1064,878,34.289,33.659,0.0232,-0.0113,9.7331,0.1337,0.2182,0.2519
435,1067,877,34.326,33.648,0.0629,0.0534,9.7872,-0.2882,0.1273,0.0475
440,1064,872,34.343,33.632,0.0333,0.0891,9.7734,-0.2129,-0.403,-0.1085
445,1057,874,34.38,33.616,0.0084,-0.0129,9.791,-0.4773,0.4105,0.3953
450,1054,871,34.341,33.564,-0.0379,0.0263,9.7372,0.0793,0.2438,-0.3869
455,1052,871,34.299,33.635,0.0593,-0.0035,9.803,0.8113,-0.2268,0.1612
460,1060,867,34.362,33.791,0.0784,0.0034,9.723,0.1584,-0.3267,-0.9421
465,1040,862,34.374,33.588,-0.0186,0.0146,9.7293,0.5014,0.1601,0.4191
470,1046,865,34.328,33.656,-0.0029,0.0348,9.7246,0.0257,0.1742,-0.1783
475,1051,865,34.272,33.629,0.0299,-0.0142,9.8656,0.169,0.2879,-0.09
480,1037,862,34.403,33.749,0.0129,-0.0471,9.7358,0.1086,0.1139,-0.821
485,1029,858,34.29,33.658,-0.0797,0.0438,9.7778,0.6898,-0.4071,-0.4583
490,1029,858,34.384,33.584,0.0011,0.0285,9.8506,-0.1978,0.2948,-0.051
495,1021,862,34.228,33.642,0.0206,0.0291,9.8173,0.0911,0.8664,0.4027
500,1016,855,34.258,33.602,0.004,0.0192,9.7552,0.0465,-0.0881,0.8352
505,1004,860,34.42,33.753,0.0164,0.0403,9.87,-0.6778,0.6114,-0.4093
510,1012,857,34.387,33.712,0.0119,0.0257,9.7056,-0.7322,-0.5155,0.5119
515,999,856,34.389,33.647,0.0341,-0.0817,9.9136,0.8371,-0.8537,-0.2687
520,982,853,34.421,33.659,0.0413,0.0296,9.7796,-0.9992,-0.5412,0.5946
525,995,853,34.255,33.662,-0.0487,-0.0205,9.8172,-0.4183,0.6828,0.384
530,985,851,34.341,33.78,0.1396,0.0404,9.7599,0.2092,-0.2113,-0.8653
535,975,852,34.384,33.69,0.0009,0.0469,9.8478,-0.4752,0.0934,0.3451
540,976,851,34.319,33.759,-0.0124,0.0145,9.8496,-0.703,-0.214,0.9092
545,960,847,34.288,33.71,0.0127,-0.0173,9.7883,-0.6229,0.0134,-0.5958
550,957,844,34.262,33.6,-0.0436,-0.0078,9.8363,-0.0394,0.0383,-0.5937
555,947,838,34.303,33.666,0.0791,0.0051,9.8248,-0.0638,-0.055,0.1875
560,941,852,34.31,33.723,0.0997,-0.023,9.9031,-0.6132,-0.4698,-0.8353
565,937,844,34.388,33.616,0.0199,0.1201,9.794,-0.2062,-0.4595,-0.3413
570,921,839,34.413,33.631,-0.0072,0.0119,9.7654,0.3742,-0.7933,-0.1045
575,916,839,34.288,33.659,0.0077,-0.1152,9.7834,-0.7292,-0.713,0.1619
580,919,834,34.354,33.766,-0.0389,-0.0449,9.8332,-0.6967,-0.0877,-0.2433
585,909,835,34.243,33.594,-0.0579,-0.0072,9.847,0.2687,-1.0691,-0.1223
590,895,838,34.386,33.624,-0.0372,0.031,9.7417,-0.6225,0.8575,-0.4274
595,888,832,34.278,33.72,-0.0186,-0.0249,9.7986,-0.338,-0.906,-0.0608
600,882,831,34.32,33.732,-0.1018,0.0145,9.7576,0.4244,-0.3551,0.1178
605,884,825,34.28,33.704,-0.0044,-0.0339,9.8285,-0.2535,-0.0564,0.1237
610,873,824,34.363,33.702,0.0232,-0.0098,9.7594,-0.5043,-0.3681,0.1996
615,870,818,34.329,33.753,-0.015,0.0275,9.8098,0.2425,-0.4418,0.5137
620,852,825,34.351,33.618,0.0231,0.0779,9.8468,0.3982,0.1606,0.6035
625,847,819,34.316,33.718,-0.0937,-0.0365,9.8816,0.1331,0.549,0.886
630,848,810,34.325,33.75,0.0092,-0.0026,9.8591,1.064,0.6146,-0.5268
635,822,811,34.336,33.704,-0.0707,0.0562,9.6948,0.4073,0.1077,-0.4702
640,825,810,34.333,33.62,0.0047,0.042,9.8588,0.7508,-0.378,-0.5508
645,817,809,34.312,33.625,0.0576,0.0509,9.9143,0.727,-1.0352,0.1289
650,811,811,34.395,33.759,-0.0067,0.0127,9.8514,-0.1644,0.3707,0.1622
655,808,799,34.291,33.78,0.0425,0.0521,9.8283,-1.3466,-0.3683,0.0621
660,789,797,34.34,33.707,-0.1194,0.0576,9.8335,-0.1928,0.2533,0.7572
665,793,796,34.332,33.68,-0.0484,0.024,9.9212,0.1723,-0.3728,0.1779
670,793,790,34.301,33.686,-0.103,0.0253,9.7253,-0.5445,0.4524,-0.403
675,789,788,34.375,33.623,0.0121,0.0687,9.83,0.0173,-1.0997,-0.037
680,781,777,34.386,33.637,0.0377,0.0067,9.8416,0.1623,0.588,0.6923
685,774,772,34.298,33.647,-0.0483,-0.0251,9.7972,-0.4299,-0.2122,-0.4624
690,769,771,34.274,33.62,-0.0069,0.1136,9.7118,-0.7373,0.2795,0.0645
695,767,765,34.332,33.652,-0.0468,0.0451,9.7693,0.3616,-0.3808,-0.7533
700,763,761,34.344,33.556,0.0342,0.0391,9.7559,0.4357,0.2775,-0.8774
705,751,759,34.299,33.66,0.0762,0.0803,9.6909,0.8953,-0.2371,-0.2002
710,753,763,34.331,33.684,-0.0279,-0.0395,9.8433,-0.7361,0.0889,0.0335
715,750,748,34.348,33.691,-0.0505,0.0217,9.7996,0.5792,-0.831,-0.3747
720,757,747,34.286,33.647,-0.0374,-0.0687,9.858,-0.1505,0.0672,-0.5268
725,757,741,34.388,33.632,0.0476,0.0948,9.7929,0.0438,-0.2168,0.2807
730,752,736,34.361,33.653,0.0429,-0.0032,9.8178,1.1288,-0.3509,0.0423
735,752,731,34.322,33.728,0.0723,-0.0966,9.7387,-0.449,-1.4215,0.3922
740,750,730,34.292,33.714,0.0115,-0.0885,9.7448,-0.3265,-0.1169,0.7703
745,747,726,34.38,33.682,-0.0342,-0.0079,9.8107,0.1085,0.1878,-0.3129
750,746,713,34.269,33.689,-0.0,0.0041,9.8005,0.0947,-1.1013,0.6113
755,754,710,34.308,33.696,-0.039,-0.0129,9.849,-0.1577,-1.1988,-0.2383
760,755,710,34.344,33.663,0.0331,0.039,9.8408,-0.1475,-0.1746,-0.4447
765,759,698,34.333,33.582,0.0365,-0.0758,9.7878,0.4422,-0.4406,0.6939
770,749,693,34.245,33.767,-0.0374,-0.0547,9.7908,-0.4773,0.8708,-0.2795
775,753,695,34.315,33.724,-0.022,0.0561,9.9042,-0.6871,0.1,0.9051
780,750,697,34.329,33.698,0.0073,-0.0272,9.7045,-0.0873,-0.3042,0.2884
785,763,688,34.309,33.634,-0.0248,0.1254,9.8352,0.4944,0.5651,-0.5015
790,787,684,34.361,33.687,0.0273,-0.0559,9.8141,0.3534,-0.3824,0.2227
795,781,678,34.303,33.701,0.0622,-0.0464,9.8011,0.0637,-0.6396,-1.0439
800,782,676,34.308,33.705,0.0035,-0.0471,9.7886,0.6108,0.3558,-0.3092
805,789,679,34.353,33.754,-0.0192,0.004,9.8266,0.1548,0.0674,-0.0284
810,793,670,34.388,33.658,-0.0817,-0.0702,9.7602,-0.26,-0.5651,-0.3121
815,805,665,34.29,33.682,0.0038,0.0178,9.8036,-0.0213,0.1851,-0.1146
820,815,664,34.319,33.566,0.0213,0.0196,9.8003,-0.033,-0.0925,0.2224
825,826,660,34.313,33.668,0.0316,-0.036,9.8713,1.0531,0.3747,0.3392
830,827,663,34.437,33.729,0.0012,-0.0431,9.8008,0.5478,0.1666,-0.9509
835,834,651,34.381,33.585,-0.0016,-0.0242,9.8611,0.1668,0.0916,-0.7224
840,850,655,34.346,33.692,0.017,0.0217,9.7736,-0.3152,0.2105,-0.4811
845,849,651,34.302,33.768,0.051,-0.0235,9.7921,0.1713,-0.2509,0.7016
850,865,646,34.434,33.618,-0.025,-0.0155,9.8422,-0.5064,0.2824,-0.4049
855,868,652,34.394,33.677,-0.0916,-0.0537,9.8158,-0.0164,-0.6205,-1.7305
860,873,653,34.309,33.702,0.0412,0.0474,9.8819,0.3646,-0.4609,-0.4288
865,894,651,34.281,33.671,-0.0999,0.0636,9.756,-0.7937,-0.4345,0.2742
870,900,651,34.486,33.628,-0.0912,-0.0043,9.8574,0.624,0.3261,0.3325
875,907,653,34.414,33.612,0.0794,0.0632,9.8621,-0.4415,-0.0696,-0.8406
880,917,650,34.264,33.725,-0.0166,-0.0229,9.7987,-0.5863,-0.0657,0.3689
885,930,648,34.424,33.638,0.0679,0.0711,9.8486,-0.0619,-0.3035,-0.1513
890,945,648,34.27,33.651,-0.0326,-0.0521,9.8167,0.5171,-0.8897,-0.9168
895,949,646,34.304,33.637,-0.054,-0.0449,9.8372,-0.4138,0.2994,-0.2536
900,955,657,34.378,33.695,-0.0641,-0.0244,9.848,-0.7539,-0.0752,-0.02
905,979,652,34.281,33.64,-0.0073,-0.03,9.811,-0.1483,0.6072,0.036
910,985,658,34.319,33.727,0.0029,-0.0403,9.8473,0.7371,-0.1557,0.6456
915,988,661,34.375,33.721,-0.0363,-0.0318,9.8611,0.7628,1.4124,0.2204
920,989,656,34.322,33.695,-0.0543,0.0674,9.9043,-0.2352,-0.7745,0.1284
925,1006,661,34.39,33.637,-0.0445,-0.0067,9.7638,-0.2503,-0.5679,0.4456
930,1011,667,34.373,33.657,-0.0341,-0.0324,9.7758,-0.7022,-0.442,0.3199
935,1032,672,34.373,33.69,-0.0029,-0.0524,9.841,-0.0586,1.0586,0.461
940,1042,666,34.273,33.597,0.0363,-0.0892,9.8245,0.4599,-0.1506,0.7297
945,1047,677,34.398,33.731,0.043,0.0882,9.8937,-0.2394,0.1973,0.3446
950,1055,674,34.403,33.642,-0.0439,-0.0617,9.7853,-0.5362,0.0959,0.5685
955,1064,681,34.373,33.763,0.0038,-0.0424,9.8203,-0.7601,0.4326,-0.1066
960,1070,682,34.293,33.693,-0.0378,0.0184,9.7011,0.0296,0.6978,-0.9267
965,1084,690,34.281,33.578,-0.006,-0.0216,9.7552,-1.0937,-0.5552,0.082
970,1093,697,34.336,33.689,-0.0687,-0.0031,9.7319,0.5094,1.1389,-0.2977
975,1096,701,34.301,33.615,-0.0236,-0.0208,9.7128,-0.2288,-0.1888,-0.2421
980,1098,707,34.336,33.654,-0.071,0.0565,9.7936,-1.0446,-0.2135,-0.8409
985,1114,713,34.306,33.656,0.0556,0.0393,9.7788,-0.6101,1.2518,0.5727
990,1127,720,34.341,33.628,0.1075,-0.1047,9.7343,0.1165,-0.2792,-0.3748
995,1127,720,34.388,33.602,-0.0496,0.0266,9.8639,-0.4397,-1.5142,-0.0568
1000,1130,732,34.345,33.67,-0.1562,0.0517,9.7704,0.7043,-0.2213,0.2884
1004,1142,732,34.284,33.623,0.0262,-0.0073,9.7939,-0.0851,-0.1693,-0.0442
1010,1148,740,34.356,33.779,0.0128,0.0611,9.7664,-0.431,0.4933,0.2993
1014,1141,754,34.31,33.684,0.0086,-0.0175,9.8582,0.5726,0.1011,0.3903
1020,1157,749,34.29,33.679,0.0495,-0.0708,9.8201,0.3792,0.0018,-0.2547
1025,1164,754,34.315,33.634,-0.0818,0.048,9.8501,0.269,-0.0205,-1.1741
1030,1166,761,34.32,33.757,0.0271,0.0837,9.821,0.4797,0.3434,-0.0382
1035,1164,772,34.317,33.695,-0.0233,0.0283,9.7781,0.7582,0.8691,0.4003
1040,1173,776,34.354,33.668,0.0269,0.0515,9.8233,-0.7508,-0.4475,0.3713
1045,1179,785,34.353,33.665,0.104,-0.0237,9.7987,-0.2434,0.5548,-0.2915
1050,1168,785,34.346,33.705,0.0274,0.0213,9.8515,0.1171,-0.3479,-0.3894
1055,1184,798,34.423,33.762,0.0732,0.0194,9.8421,-0.5208,0.5605,-0.3717
1060,1184,800,34.345,33.671,-0.0411,-0.0298,9.7929,-0.4476,0.0129,-0.3506
1065,1189,804,34.333,33.656,-0.0546,-0.0343,9.7876,-0.15,0.1803,1.0801
1070,1186,816,34.332,33.575,0.0148,0.0275,9.8064,-0.3778,-0.035,-0.5199
1075,1182,823,34.195,33.59,-0.0763,0.1138,9.8675,0.4237,-0.0246,0.2374
1080,1184,825,34.408,33.663,-0.0262,0.0322,9.8265,0.2486,0.3327,-0.2103
1085,1189,832,34.318,33.663,0.0621,0.0316,9.8439,-0.1637,0.3055,0.1656
1090,1186,837,34.321,33.688,0.0291,-0.0273,9.7717,0.7371,-0.1539,-0.2181
1095,1192,843,34.394,33.701,-0.0267,-0.0006,9.87,-0.0829,0.0977,-0.2205
1100,1189,851,34.291,33.731,-0.0158,-0.054,9.8252,-1.0906,0.2619,0.7328
1105,1187,847,34.304,33.702,-0.0478,0.0279,9.7865,-0.4621,-0.3197,-0.1213
1110,1189,861,34.429,33.741,0.0912,0.0224,9.7943,0.3518,-0.2865,-0.0692
1115,1188,861,34.406,33.625,0.0333,-0.1577,9.8864,0.1779,-0.3548,0.1469
1120,1182,867,34.245,33.656,-0.018,0.0071,9.7852,-0.5516,-0.0037,-0.211
1125,1184,874,34.356,33.662,0.0096,0.0686,9.8016,-0.1062,-0.457,1.1088
1130,1190,877,34.291,33.776,-0.0318,0.026,9.7801,-0.3397,-1.2032,-0.1724
1135,1185,879,34.412,33.584,0.0739,-0.0341,9.8282,-0.0194,-0.1556,0.8327
1140,1182,882,34.398,33.768,-0.0552,0.0051,9.7984,0.0551,-0.6007,-0.1166
1145,1173,887,34.386,33.618,-0.0296,0.019,9.8028,0.1074,-0.6683,-0.0866
1150,1163,889,34.316,33.71,0.0117,-0.0617,9.7653,-0.1318,1.5997,0.8993
1155,1167,892,34.38,33.704,0.0409,0.0142,9.7803,-0.8887,0.5499,-0.6843
1160,1166,894,34.328,33.713,-0.0502,-0.0422,9.7275,-1.0574,0.6855,-0.6759
1165,1164,897,34.298,33.739,0.0366,-0.0691,9.8447,0.0182,-0.4846,0.1729
1170,1154,903,34.436,33.719,-0.0039,0.0468,9.7782,0.0249,-0.3307,0.4565
1175,1163,902,34.315,33.666,-0.0193,-0.0083,9.8519,-0.186,0.4166,-0.0071
1180,1152,907,34.27,33.682,-0.0581,-0.0561,9.7549,0.5547,0.0453,0.7375
1185,1148,903,34.268,33.639,0.0535,0.0441,9.7969,-0.7409,0.5183,-0.3534
1190,1147,912,34.404,33.66,-0.036,-0.0177,9.8387,-0.4766,0.2388,0.2221
1195,1146,909,34.25,33.646,-0.0687,0.0707,9.7924,0.472,-0.3163,0.2607
1200,1149,910,34.271,33.667,0.0176,0.0208,9.844,-1.0173,0.6164,-0.593
1205,1146,909,34.44,33.676,-0.0393,-0.0559,9.804,0.7331,-0.7868,-0.5935
1210,1140,912,34.334,33.592,-0.0161,-0.047,9.8391,0.4202,-0.7721,-0.2975
1215,1142,911,34.367,33.658,0.0928,0.036,9.8568,0.5021,-0.7949,-0.3259
1220,1132,912,34.355,33.687,0.0382,0.0111,9.8332,-0.6758,0.0953,0.2572
1225,1127,908,34.282,33.786,0.0401,-0.0712,9.7976,0.2035,-0.0706,-0.0281
1230,1134,905,34.279,33.674,-0.067,-0.0493,9.8089,-0.1651,-0.2008,0.0554
1235,1125,918,34.358,33.669,-0.038,0.0413,9.7906,0.0213,0.3987,-0.0683
1240,1132,918,34.299,33.722,-0.0057,0.1292,9.8157,0.1396,-0.1827,0.3183
1245,1119,910,34.352,33.692,-0.0677,-0.0456,9.8604,0.5932,-0.257,-0.6872
1250,1125,913,34.331,33.657,-0.0917,0.0494,9.7459,0.4196,0.3068,-0.2939
1255,1115,910,34.389,33.726,0.0161,0.0065,9.8488,-1.0423,0.5029,-0.0128
1260,1108,914,34.278,33.688,-0.0096,-0.0119,9.7736,0.4038,-0.1695,0.1037
1265,1116,917,34.382,33.656,-0.0502,-0.0183,9.8782,0.1907,-0.5725,0.2517
1270,1108,912,34.293,33.65,0.1155,0.0843,9.7807,0.1946,-0.8641,-0.2981
1275,1109,904,34.329,33.572,0.0968,0.0359,9.7692,0.3149,0.2245,0.0984
1280,1104,910,34.242,33.718,-0.0605,-0.0457,9.7832,0.1613,-0.5803,0.0293
1285,1110,904,34.363,33.807,0.0278,0.004,9.8937,-0.8458,-1.0066,-0.0826
1290,1106,898,34.334,33.66,0.0566,0.0,9.8404,0.3928,-0.4351,-0.7965
1295,1097,903,34.354,33.728,-0.0063,0.054,9.8436,-0.1408,-0.1238,-0.6774
1300,1096,897,34.252,33.636,0.0974,0.0004,9.8555,-0.3491,-0.0082,-0.4834
1305,1097,894,34.412,33.691,0.0139,-0.0764,9.7838,0.1085,-0.4241,0.0153
1310,1089,895,34.321,33.721,0.0179,-0.1138,9.7398,0.0273,-0.0747,0.1898
1315,1098,895,34.378,33.621,0.0108,-0.0575,9.7129,0.1881,-0.8386,-0.1173
1320,1093,892,34.456,33.696,-0.1254,0.019,9.8349,0.4642,-0.6036,-0.6971
1325,1087,892,34.333,33.692,0.0128,-0.0242,9.8561,0.6262,-0.3625,-1.461
1330,1089,889,34.4,33.766,0.0249,0.0123,9.7536,-0.0447,-0.1058,0.7256
1335,1085,888,34.261,33.796,0.0032,-0.0796,9.7011,0.6009,-0.2513,-0.5166
1340,1079,886,34.342,33.712,-0.0107,0.0156,9.7245,0.5242,0.3415,0.5164
1345,1082,883,34.345,33.606,-0.0663,-0.0122,9.8638,0.1262,0.4102,-0.3698
1350,1077,878,34.361,33.767,-0.0106,0.0884,9.6832,-0.4258,0.2732,-0.8259
1355,1073,881,34.301,33.675,-0.0069,0.0527,9.7242,-0.2836,0.0827,-0.4341
1360,1075,875,34.349,33.587,-0.0695,-0.0875,9.9283,-0.06,0.0835,-0.7162
1365,1069,879,34.25,33.685,0.0039,0.0174,9.8091,0.2306,0.4244,0.2938
1370,1069,874,34.392,33.701,0.0483,0.0767,9.8856,0.4481,0.442,-0.7973
1375,1072,878,34.271,33.623,-0.0092,0.0383,9.8434,-0.0628,0.924,-0.8848
1380,1061,871,34.315,33.708,0.0081,0.0033,9.8662,0.2484,0.4033,-0.2907
1385,1060,875,34.315,33.613,-0.0776,-0.0019,9.761,0.4431,-0.4907,-0.264
1390,1061,872,34.384,33.66,0.0003,-0.0635,9.741,0.1825,-0.0359,-0.9332
1395,1055,870,34.344,33.702,-0.0341,0.0014,9.8549,0.0986,-0.6933,-0.128
1400,1054,869,34.331,33.684,0.0165,-0.0588,9.7886,0.5892,-0.4389,0.636
1405,1058,869,34.345,33.619,0.078,0.055,9.8211,-0.314,0.349,-0.1518
1410,1041,866,34.369,33.688,-0.0011,0.0657,9.9075,-0.2536,0.6077,-0.4679
1415,1046,861,34.335,33.622,-0.031,0.0289,9.8129,0.5052,0.0514,0.0997
1420,1032,864,34.311,33.583,-0.025,-0.1212,9.8074,-0.7514,0.9212,-0.1393
1425,1038,862,34.372,33.555,0.0017,0.0582,9.8706,-0.8593,0.4036,0.3403
1430,1025,859,34.419,33.661,-0.1187,-0.0602,9.751,0.6674,-0.1223,0.2517
1435,1018,861,34.327,33.727,0.0877,0.0745,9.7869,-0.0443,0.8069,-0.0305
1440,1020,859,34.282,33.606,-0.0139,0.0355,9.8002,0.2955,0.0448,0.4009
1445,1021,857,34.37,33.735,0.0305,0.0591,9.8489,-0.1851,-0.0205,-0.7876
1450,1006,860,34.308,33.791,0.075,-0.0269,9.8125,-0.0496,0.0869,0.0657
1455,1006,854,34.321,33.655,0.0349,-0.0141,9.7865,-0.4288,0.5943,-0.2387
1460,1005,858,34.332,33.682,0.002,-0.0289,9.9316,0.3619,0.976,0.4174
1465,997,857,34.271,33.642,-0.0281,-0.0096,9.7127,-0.229,0.6264,0.776
1470,988,848,34.304,33.628,-0.0634,0.0042,9.7863,-0.7158,-0.098,0.6685
1475,979,852,34.272,33.688,-0.0226,0.0851,9.7661,0.5008,-0.0844,-0.0647
1480,971,849,34.404,33.757,-0.0308,-0.0207,9.8541,0.635,0.809,0.3036
1485,962,845,34.416,33.731,0.0494,-0.0229,9.8911,0.3741,-0.7323,-0.045
1490,951,853,34.363,33.705,-0.1034,0.1074,9.7448,0.0885,-0.2423,0.0242
1495,961,844,34.281,33.707,-0.0605,0.0389,9.7577,-0.0886,-0.4529,-0.0353
1500,952,842,34.265,33.691,-0.0163,-0.0196,9.7806,0.4985,0.8498,0.0079
1505,939,843,34.377,33.594,0.0415,-0.0646,9.7269,0.5552,0.9968,0.1392
1510,934,842,34.339,33.725,-0.0354,0.0389,9.8634,-1.4373,-0.6696,-0.5808
1515,927,840,34.328,33.726,-0.0451,0.0047,9.7898,-0.6677,-0.2308,-0.5317
1520,911,834,34.318,33.605,-0.0234,-0.0801,9.8091,0.0814,-0.101,-0.5951
1525,917,841,34.373,33.651,-0.0144,-0.0608,9.7663,0.3036,0.4603,-0.4016
1530,894,834,34.348,33.722,-0.0392,0.021,9.8263,-0.4188,0.2761,-0.9863
1535,893,831,34.393,33.652,0.0218,0.0022,9.839,-0.439,0.6378,-0.9248
1540,896,830,34.317,33.717,-0.0154,0.0363,9.7474,-0.7522,-0.5588,-0.0664
1545,879,829,34.31,33.715,0.0234,-0.0799,9.8309,0.2689,-0.3645,0.2503
1550,875,827,34.347,33.691,0.0485,0.0562,9.8347,-0.4478,0.4279,-0.9038
1555,867,825,34.284,33.725,-0.0429,-0.0114,9.6979,0.9193,0.3376,-0.1528
1560,864,820,34.354,33.711,-0.0352,0.0372,9.8776,0.1585,-0.5461,-0.372
1565,855,821,34.435,33.668,-0.0177,-0.0546,9.7183,0.026,-0.811,-0.4775
1570,844,817,34.358,33.728,-0.0027,-0.0197,9.7674,-0.5751,0.4068,0.8167
1575,829,810,34.364,33.646,0.0484,-0.0251,9.7209,0.3978,1.1343,0.6828
1580,829,813,34.315,33.658,-0.0469,-0.0014,9.7937,-0.007,-0.0947,-0.6261
1585,822,808,34.407,33.739,0.0062,0.019,9.8078,0.2453,0.8371,0.0548
1590,817,804,34.323,33.688,0.027,0.0759,9.7523,-0.0348,-0.1795,0.4288
1595,815,803,34.375,33.751,0.0773,0.0007,9.8281,-0.0381,-0.4914,0.5777
1600,811,803,34.402,33.662,-0.0519,-0.0322,9.7941,-0.6879,0.114,-0.2728
1605,791,794,34.377,33.735,-0.065,-0.0366,9.9203,0.9825,-0.6692,0.8585
1610,797,795,34.314,33.652,0.0174,-0.0464,9.897,-0.2712,0.2951,0.1831
1615,785,786,34.385,33.691,0.0045,-0.0076,9.7783,-0.5326,0.3104,0.0478
1620,775,779,34.324,33.663,-0.0402,0.0531,9.8072,-1.3009,0.2395,0.1309
1625,780,777,34.331,33.731,0.0134,-0.0273,9.8411,-0.2941,-0.0374,0.452
1630,766,774,34.368,33.596,-0.0082,0.0101,9.7659,-0.5697,0.2364,0.3726
1635,769,772,34.304,33.724,0.01,0.0088,9.8906,0.4848,0.6761,0.4701
1640,764,768,34.35,33.713,-0.1006,-0.0446,9.8452,-0.2894,-0.4095,0.9409
1645,761,761,34.329,33.716,-0.0316,0.0459,9.8834,-0.3894,0.2714,0.3455
1650,758,760,34.307,33.644,-0.0741,-0.0571,9.8301,-0.1,0.2999,-0.5318
1655,751,753,34.331,33.667,0.029,-0.0194,9.8634,0.1106,-0.2373,0.2478
1660,762,748,34.338,33.623,-0.0264,0.0335,9.7571,0.2957,0.4474,0.1705
1665,754,740,34.455,33.725,0.0248,-0.0121,9.8649,0.3489,-0.3407,-0.4968
1670,753,741,34.206,33.682,-0.0425,-0.074,9.8016,0.878,0.4281,0.3345
1675,746,737,34.375,33.67,0.0931,-0.0083,9.8191,0.1115,0.4152,0.6612
1680,751,732,34.275,33.622,0.0604,0.026,9.8354,-0.5002,0.1314,0.0076
1685,752,726,34.296,33.643,-0.0509,0.0088,9.8441,1.0702,0.3379,0.0939
1690,745,721,34.338,33.684,0.0359,-0.0254,9.8761,-0.6963,0.1202,0.6899
1695,753,711,34.352,33.628,0.0131,-0.1141,9.748,-0.4923,0.0328,0.1871
1700,759,710,34.419,33.653,-0.0083,-0.1134,9.8209,0.5439,-0.9166,0.62
1705,758,707,34.315,33.76,-0.055,-0.0258,9.888,-0.0102,-1.4665,-0.2399
1710,756,701,34.401,33.719,-0.0046,0.0197,9.8507,0.3454,0.2455,-0.2018
1715,760,696,34.345,33.634,0.0584,0.0108,9.7997,0.132,-0.6029,-0.6849
1720,764,692,34.305,33.625,0.0856,0.0046,9.8483,0.0387,0.299,0.8446
1725,766,691,34.368,33.712,0.0914,0.016,9.859,0.3582,0.7444,0.3813
1730,765,687,34.358,33.706,-0.0112,-0.0665,9.8837,0.429,-0.02,0.3556
1735,771,682,34.392,33.621,-0.0955,0.0841,9.8309,-1.2465,0.9147,0.1599
1740,775,681,34.361,33.605,-0.0816,0.0221,9.7522,-0.4068,-0.0935,-0.3765
1745,778,675,34.371,33.754,0.0907,-0.105,9.8231,-1.1413,-0.129,-0.2882
1750,798,672,34.255,33.689,-0.0156,-0.0015,9.815,-0.4809,0.1432,0.0232
1755,799,676,34.463,33.692,0.0218,-0.0273,9.7902,-0.1148,-1.4434,-0.0576
1760,803,669,34.407,33.72,-0.005,-0.009,9.8328,-0.245,0.1781,0.2323
1765,819,663,34.23,33.658,-0.0174,-0.0627,9.7688,0.7808,-0.3195,-0.5447
1770,822,659,34.458,33.674,-0.0529,0.0763,9.7869,0.1498,0.285,0.6676
1775,828,659,34.245,33.733,-0.0149,-0.079,9.8358,-0.5384,0.6899,0.0353
1780,831,656,34.346,33.715,0.0077,0.0192,9.8159,0.1975,0.0089,-0.2213
1785,838,652,34.344,33.712,0.0024,0.0255,9.793,0.4581,0.1071,-0.702
1790,852,651,34.364,33.683,-0.0444,-0.0763,9.7535,-0.4113,-0.7178,0.4399
1795,854,652,34.321,33.648,-0.0439,-0.0398,9.7239,0.1618,-0.0004,-0.0605
1800,866,649,34.398,33.666,-0.0281,-0.0188,9.9058,0.5419,0.1696,0.3957
1805,885,649,34.378,33.674,-0.0902,0.0708,9.7863,-0.3577,0.4874,-0.1042
1810,894,647,34.298,33.619,0.0893,-0.0319,9.7378,-0.5703,0.8623,0.2538
1815,894,644,34.382,33.722,-0.081,-0.0925,9.8443,-0.1723,0.909,1.0118
1820,910,646,34.36,33.704,0.0002,-0.0197,9.7747,0.2067,-0.3875,-0.0465
1825,916,646,34.36,33.693,0.0611,-0.0338,9.8135,-0.1952,-1.1298,-0.1307
1830,929,650,34.322,33.774,-0.0082,0.013,9.7758,0.1313,0.6095,-0.0661
1835,946,649,34.271,33.742,0.0127,0.092,9.8061,0.1167,0.3188,0.576
1840,954,649,34.298,33.619,-0.0072,0.0126,9.9119,-0.2947,-0.6715,-0.5063
1845,966,650,34.269,33.629,0.046,0.0046,9.8452,-0.4231,1.2962,-0.2844
1850,972,650,34.299,33.679,-0.0478,-0.0311,9.8433,-0.0588,0.0013,0.1585
1855,987,656,34.26,33.713,-0.0384,-0.0673,9.8072,-0.3267,1.2251,0.0703
1860,996,654,34.319,33.707,0.0202,0.0063,9.8178,-0.4942,-0.155,0.6428
1865,998,659,34.254,33.68,-0.0283,0.0356,9.8404,0.4608,0.3713,-0.9147
1870,1022,661,34.404,33.643,-0.0089,-0.0271,9.7421,-1.1356,-0.3148,-0.2938
1875,1023,665,34.364,33.718,0.0751,-0.0843,9.7721,-0.1086,-0.9474,-0.1075
1880,1032,665,34.45,33.579,0.0588,-0.0413,9.7528,-1.1485,-0.5821,-0.3206
1885,1042,671,34.304,33.657,-0.0853,0.0392,9.8395,0.078,-0.2462,0.1607
1890,1053,678,34.372,33.721,0.037,0.0791,9.834,-0.2532,-1.0798,-0.1993
1895,1065,677,34.37,33.73,0.044,0.044,9.8285,0.4209,-0.3144,1.1984
1900,1071,683,34.41,33.663,0.0117,-0.0187,9.8639,-1.254,0.3619,-0.3501
1905,1082,686,34.444,33.705,0.027,0.0335,9.722,0.1317,-0.6889,-0.3289
1910,1084,697,34.296,33.678,0.0246,-0.07,9.8082,-0.3117,-1.45,-0.9416
1915,1086,696,34.367,33.721,0.0078,0.0135,9.7896,0.6526,-0.4015,0.433
1920,1094,700,34.363,33.643,-0.0431,-0.0223,9.8183,0.2746,0.9421,-0.7451
1925,1112,708,34.357,33.671,-0.0568,-0.0111,9.814,1.1189,0.2696,0.0539
1930,1119,714,34.331,33.656,-0.0334,-0.0928,9.6731,0.3176,-0.0475,-0.9841
1935,1127,718,34.189,33.593,0.005,0.0034,9.7569,0.2787,-0.5249,0.0882
1940,1129,725,34.316,33.62,0.1063,0.1137,9.8599,-0.292,0.1756,-0.181
1945,1145,728,34.356,33.711,-0.009,-0.0547,9.797,0.3499,-0.4284,0.8416
1950,1143,736,34.373,33.736,-0.0227,-0.0443,9.7833,-0.2655,0.3216,0.7145
1955,1151,737,34.301,33.698,0.0733,-0.0187,9.7459,-0.2919,0.5013,0.01
1960,1153,746,34.373,33.627,0.0556,-0.0334,9.752,0.796,0.818,-0.0787
1965,1157,749,34.322,33.652,-0.0692,-0.0391,9.7315,0.485,1.0625,0.1213
1970,1161,760,34.238,33.706,-0.0324,0.0008,9.8664,0.5912,-0.2157,1.1576
1975,1161,764,34.406,33.614,-0.0226,0.0929,9.8491,-0.1296,0.0284,0.081
1980,1168,775,34.372,33.653,0.0625,-0.0262,9.7837,-0.3145,0.756,0.8481
1985,1171,778,34.299,33.722,0.0215,-0.0446,9.81,-0.1994,-0.0032,0.5998
1990,1183,784,34.366,33.653,-0.028,0.0036,9.8948,0.5598,-0.0038,-1.4759
1995,1184,791,34.33,33.739,0.0214,-0.0422,9.8935,0.0512,-0.9548,-0.3341
2000,1174,795,34.336,33.686,-0.0511,-0.06,9.7671,0.3203,0.0681,-0.4468
2005,1184,798,34.397,33.614,0.0393,0.0925,9.729,-0.0464,-0.3874,0.2004
2009,1184,807,34.309,33.663,-0.0362,0.1063,9.7976,0.2324,-0.0725,-0.6456
2015,1173,811,34.368,33.636,0.0122,-0.0441,9.8258,0.2409,0.0061,-0.0878
2020,1188,822,34.364,33.689,0.0286,-0.0435,9.739,1.2077,-0.1157,-0.1437
2025,1194,828,34.334,33.69,0.0095,0.0127,9.7308,0.3472,-0.0782,-0.697
2029,1188,832,34.293,33.67,-0.0257,-0.0312,9.7908,-0.5401,-0.1975,-0.0748
2035,1189,841,34.421,33.75,0.051,0.0121,9.7768,0.065,0.3923,0.0141
2040,1186,841,34.303,33.584,0.0594,-0.0244,9.7712,-0.3389,0.1603,-0.4438
2045,1187,847,34.415,33.747,-0.0297,-0.0774,9.7946,0.2416,-0.2579,0.1302
2050,1184,855,34.367,33.705,-0.0118,0.0168,9.8514,-0.3602,-0.2688,0.2338
2055,1176,856,34.419,33.638,-0.0256,0.0216,9.886,-0.0368,0.8433,-0.8644
2060,1181,858,34.327,33.648,0.0199,-0.0045,9.7758,-0.6347,0.3094,0.2708
2065,1179,867,34.379,33.592,-0.0124,0.0435,9.749,-0.6413,-0.2547,-0.3644
2070,1174,875,34.281,33.586,0.0557,0.0506,9.7746,-0.7295,0.4426,0.7821
2075,1185,873,34.345,33.622,0.0205,-0.0126,9.7945,0.282,0.3986,0.6199
2080,1186,872,34.285,33.705,-0.0033,0.0114,9.7748,-0.049,-0.4579,-0.5642
2085,1180,884,34.318,33.661,0.0512,0.0009,9.8778,-1.2169,-0.0383,1.0954
2090,1169,893,34.252,33.641,-0.055,-0.0029,9.8342,-0.6575,0.7063,0.1049
2095,1172,894,34.284,33.654,0.0186,0.0681,9.804,1.0991,-0.1362,0.3271
2100,1173,898,34.35,33.678,0.0012,-0.0422,9.7596,-0.1764,0.0159,0.3986
2105,1160,900,34.325,33.655,0.0066,0.0259,9.8481,0.5485,-0.2273,-0.4579
2110,1164,904,34.398,33.676,-0.1075,-0.0007,9.8285,-0.4322,-1.5031,-0.5537
2115,1163,903,34.339,33.695,-0.0586,-0.0957,9.7687,-0.0237,-0.0364,-0.4295
2120,1159,904,34.403,33.682,0.0599,0.1276,9.8088,-0.052,0.5022,0.4504
2125,1156,906,34.427,33.835,0.0117,0.0411,9.8646,-0.1264,0.3874,0.2602
2130,1150,906,34.31,33.736,-0.1022,-0.0349,9.7165,-0.315,-0.126,0.4653
2135,1154,905,34.406,33.594,-0.0343,0.049,9.8168,-0.6279,-0.4841,0.5752
2140,1151,916,34.314,33.683,-0.0263,-0.0613,9.8459,0.3993,-0.343,0.2372
2145,1139,911,34.385,33.713,0.0585,-0.0535,9.8574,-0.0866,-0.2278,-0.1965
2150,1141,912,34.384,33.696,-0.0111,-0.0582,9.8719,-0.9407,-0.1275,0.0148
2155,1140,912,34.348,33.572,0.0306,-0.0264,9.8141,0.0207,-0.5729,0.2478
2160,1141,912,34.328,33.69,-0.0025,0.0177,9.8311,-0.2906,-0.0504,0.1112
2165,1133,915,34.331,33.628,-0.0319,0.0436,9.9129,0.1396,0.6329,-0.0719
2170,1129,909,34.402,33.691,0.0148,-0.0857,9.8768,0.4807,-0.5335,-0.212
2175,1129,907,34.384,33.625,-0.0392,-0.0891,9.8261,0.0746,0.2589,-1.0816
2180,1120,916,34.301,33.681,-0.0383,0.0232,9.7622,-0.1644,0.4387,0.9259
2185,1119,914,34.358,33.704,0.0524,0.0119,9.7633,-0.0158,1.0225,0.2029
2190,1129,912,34.338,33.68,-0.0576,0.0384,9.7855,0.2103,0.8415,-0.3419
2195,1122,911,34.395,33.677,-0.0025,0.0466,9.8813,0.5313,0.2098,0.0741
2200,1111,906,34.376,33.633,-0.0023,0.0286,9.827,-0.54,-0.5307,0.6532
2205,1113,910,34.268,33.76,-0.0699,0.0181,9.7766,0.2134,-0.2253,0.7881
2210,1117,913,34.35,33.717,0.0588,0.0512,9.8055,-0.3822,0.4242,0.756
2215,1116,907,34.366,33.773,-0.0521,-0.0202,9.7405,0.7253,0.275,-0.2313
2220,1105,905,34.354,33.645,0.0686,0.0739,9.7483,0.2908,0.2196,0.523
2225,1105,911,34.311,33.61,-0.0144,0.0077,9.7946,0.5102,-0.5003,-0.4674
2230,1108,905,34.35,33.758,0.0528,0.0737,9.7943,-0.6113,0.4734,-0.5629
2235,1098,904,34.356,33.67,-0.0352,-0.0306,9.8078,-0.5226,0.4216,0.1445
2240,1102,906,34.432,33.766,0.0407,0.0153,9.8318,-0.3511,0.3213,1.0687
2245,1089,905,34.349,33.723,0.033,0.1443,9.8426,0.554,-0.0734,-0.4678
2250,1093,889,34.318,33.661,0.0373,-0.0228,9.8583,0.2206,1.256,-0.8387
2255,1093,892,34.357,33.75,0.0535,0.023,9.8277,0.2999,-0.0531,-0.3623
2260,1094,891,34.298,33.76,-0.0421,0.092,9.8234,0.1557,-0.5223,-0.982
2265,1082,890,34.323,33.742,0.0336,0.0005,9.8516,0.2421,-0.0059,0.3415
2270,1095,889,34.29,33.63,-0.0062,0.0069,9.8132,1.1745,-0.3919,0.8027
2275,1081,892,34.349,33.645,-0.0227,-0.0306,9.7372,0.3156,-0.7596,-0.5618
2280,1084,891,34.445,33.647,0.0083,0.0628,9.8866,0.4694,0.6156,-0.5647
2285,1081,882,34.323,33.625,-0.0115,0.0746,9.7742,-0.1204,-0.1628,-0.6208
2290,1073,887,34.297,33.722,-0.0634,0.0036,9.8203,0.5852,-0.8754,0.4898
2295,1086,881,34.357,33.725,-0.0567,-0.0541,9.8325,-0.3395,-0.4524,0.1546
2300,1074,881,34.352,33.661,-0.1048,-0.0012,9.7822,-0.0889,-0.8579,-0.3074
2305,1082,885,34.431,33.774,0.0859,0.0217,9.8529,0.2791,-0.2684,0.6052
2310,1076,877,34.36,33.644,-0.0951,0.0212,9.8029,-0.4655,0.1156,-0.0641
2315,1077,877,34.382,33.702,-0.0405,-0.0187,9.8449,0.6324,0.8732,-0.5215
2320,1068,875,34.323,33.638,-0.0427,0.0007,9.8528,-0.5484,-0.0262,-0.4488
2325,1058,868,34.369,33.649,0.0255,0.021,9.7509,-0.1148,-0.061,-0.2291
2330,1062,868,34.33,33.697,0.0092,-0.0292,9.8149,-0.6778,0.5783,0.316
2335,1055,868,34.328,33.595,0.0541,-0.0032,9.8941,-0.2279,-0.0842,0.4634
2340,1058,868,34.379,33.704,-0.0279,0.0391,9.913,0.2188,0.4761,0.4282
2345,1054,869,34.341,33.649,0.0043,-0.0352,9.8308,0.3641,0.6047,-0.0124
2350,1047,861,34.416,33.696,0.0276,0.0333,9.8483,0.6834,-0.0558,-0.4724
2355,1047,865,34.347,33.707,-0.0433,-0.0178,9.8625,-0.5602,-0.2314,-0.0925
2360,1041,864,34.307,33.622,0.0174,-0.0717,9.7615,-0.3745,0.4754,-0.3798
2365,1034,862,34.31,33.749,0.0024,0.0087,9.7458,0.2056,0.7589,-0.1035
2370,1037,861,34.259,33.649,0.0192,0.0599,9.8137,0.0745,0.4344,0.4555
2375,1035,864,34.39,33.743,0.0058,-0.0475,9.8282,-0.3995,0.9926,-0.3021
2380,1012,859,34.316,33.722,-0.0285,-0.0448,9.7805,-0.3753,-0.6742,0.0738
2385,1019,858,34.251,33.73,0.0112,-0.0175,9.7595,-0.0888,0.6205,-0.1429
2390,1010,862,34.374,33.813,0.0291,-0.029,9.7936,-0.0382,0.0587,-0.2528
2395,1009,852,34.349,33.792,-0.0111,0.0214,9.884,0.5756,0.7851,0.6776
2400,1000,854,34.383,33.684,-0.1081,0.0341,9.7877,-0.9383,0.9574,0.0704
2405,994,857,34.392,33.626,-0.0165,0.0908,9.7285,-0.5408,-0.3032,-0.0106
2410,985,857,34.303,33.723,-0.0045,0.0388,9.7987,0.4995,-0.3889,-0.8116
2415,991,852,34.321,33.658,-0.0279,-0.094,9.7536,-0.1372,0.1258,0.1537
2420,980,851,34.369,33.617,0.0066,-0.0013,9.7802,0.6996,0.5324,-0.0323
2425,965,854,34.322,33.697,0.007,0.023,9.9335,0.1659,0.0583,-0.0818
2430,973,853,34.336,33.753,-0.1145,-0.0093,9.8492,-0.4412,0.0837,0.612
2435,958,848,34.353,33.73,-0.0136,0.0218,9.8386,-0.6548,0.0684,-0.3996
2440,953,844,34.383,33.721,0.0422,-0.0023,9.7026,0.3065,-0.6134,0.2067
2445,940,848,34.417,33.725,-0.013,0.0345,9.859,-0.0075,-0.1577,0.5163
2450,935,844,34.362,33.686,-0.0308,-0.0523,9.7838,-0.1937,-1.0852,-0.8534
2455,929,840,34.368,33.702,0.1023,-0.0362,9.9038,0.4316,0.1292,0.3666
2460,926,844,34.348,33.685,-0.0524,-0.0153,9.7782,0.0498,-0.1606,-0.197
2465,916,836,34.346,33.69,-0.0074,-0.004,9.8054,0.3976,0.0417,1.015
2470,901,830,34.381,33.718,0.0584,-0.088,9.7547,-0.4772,0.3093,-0.1177
2475,906,837,34.254,33.76,0.0049,-0.0621,9.8126,-0.4695,-0.3544,-0.2834
2480,895,827,34.312,33.617,0.0644,-0.0282,9.7857,0.1243,-0.2027,-0.473
2485,892,832,34.275,33.641,-0.0124,0.1135,9.8255,0.0084,-0.6738,0.1622
2490,868,829,34.398,33.677,0.0249,0.0085,9.7821,-0.7575,0.0714,0.6813
2495,866,823,34.292,33.636,-0.0124,0.1167,9.7614,-0.0255,0.0291,-0.1419
2500,852,826,34.334,33.697,-0.1729,-0.0037,9.769,0.6041,-0.3162,-0.1251
2505,852,819,34.329,33.651,-0.07,0.0145,9.8104,-0.0924,-0.1839,-0.442
2510,840,821,34.32,33.637,-0.0125,-0.0529,9.8542,0.1605,-0.4807,-0.5007
2515,845,817,34.463,33.726,0.0103,-0.0488,9.7797,0.5513,0.1777,0.0297
2520,843,817,34.411,33.673,0.0954,-0.0074,9.8655,-1.0766,0.7628,0.3917
2525,828,814,34.348,33.573,0.0202,0.0292,9.8258,-0.6144,0.3168,-0.6003
2530,821,809,34.305,33.742,-0.0638,0.0406,9.8256,-0.6837,-0.2478,0.1428
2535,817,805,34.349,33.609,-0.0188,-0.0773,9.799,1.1482,0.1091,0.4253
2540,814,809,34.328,33.676,0.0335,0.122,9.8051,0.0822,-0.1731,0.1415
2545,802,799,34.343,33.68,0.0218,-0.0056,9.786,0.1767,1.2055,-0.0503
2550,797,798,34.361,33.675,-0.1022,-0.0445,9.754,0.1845,-0.7428,-0.6406
2555,790,787,34.379,33.604,0.0219,-0.0398,9.8231,-0.408,-1.0786,-0.0758
2560,787,785,34.312,33.633,0.092,-0.0114,9.8245,-0.1915,-0.1888,-0.2723
2565,774,779,34.429,33.683,0.0001,-0.0166,9.7935,-0.3411,0.1156,0.2403
2570,779,772,34.33,33.807,-0.0536,0.0084,9.7931,-0.1171,-0.5516,-0.2245
2575,776,775,34.301,33.68,0.0081,0.059,9.7842,-0.206,0.4727,-0.046
2580,758,770,34.248,33.666,0.0475,-0.016,9.8782,0.1854,0.5042,-0.1382
2585,763,764,34.419,33.716,0.0082,-0.0207,9.8936,0.5925,0.422,-0.6905
2590,759,759,34.349,33.66,0.0031,-0.0104,9.7357,-0.694,-0.2143,-0.1675
2595,758,758,34.429,33.686,0.0018,-0.0497,9.9235,-0.1761,-0.4324,-0.0514
2600,753,750,34.394,33.706,-0.0473,-0.0229,9.8034,-0.9084,-0.318,0.0778
2605,749,744,34.331,33.702,-0.013,0.0604,9.8754,-0.483,-0.6035,0.4861
2610,761,741,34.419,33.634,-0.0291,-0.0501,9.9446,0.376,-0.3673,-0.1021
2615,746,737,34.29,33.77,-0.0539,0.0046,9.7929,-0.3227,-1.0745,0.0611
2620,746,742,34.293,33.795,-0.0576,-0.0473,9.8614,-0.1961,-0.3065,-0.2526
2625,743,732,34.344,33.676,-0.0347,-0.0054,9.7903,-0.4029,-0.6419,-0.0993
2630,747,724,34.323,33.677,0.0479,-0.0098,9.8487,0.1235,0.5993,-0.138
2635,749,718,34.391,33.663,-0.0589,0.0532,9.7969,0.5336,0.0529,-0.7998
2640,751,720,34.358,33.733,0.0309,-0.1036,9.881,0.5532,0.0795,-0.8596
2645,748,714,34.306,33.716,-0.0155,-0.0499,9.7956,1.1977,0.8792,-0.0942
2650,752,705,34.335,33.78,-0.0101,0.068,9.7852,0.1865,-0.0077,-0.5233
2655,757,702,34.414,33.725,-0.037,0.0304,9.7897,-0.6343,-0.4747,-0.5489
2660,770,698,34.38,33.646,0.1083,0.0093,9.7753,0.1414,0.5082,0.1466
2665,760,687,34.253,33.7,0.1003,0.03,9.7707,-0.0628,-0.2065,1.3493
2670,771,692,34.411,33.638,0.0166,-0.0208,9.8796,-0.572,-0.2654,0.27
2675,769,684,34.367,33.646,0.0604,-0.0291,9.8748,0.2571,-0.0768,-0.1577
2680,785,682,34.355,33.681,-0.0022,0.0479,9.8278,-0.389,0.6721,0.528
2685,786,673,34.328,33.776,0.0023,0.0568,9.8369,0.6312,-0.4837,-0.2935
2690,791,679,34.342,33.656,0.0014,0.0982,9.8215,0.2304,0.1404,-0.0926
2695,798,672,34.328,33.707,-0.0353,-0.0243,9.8145,-0.2161,-0.2867,0.0045
2700,801,666,34.368,33.73,-0.0532,0.0009,9.7913,0.0151,0.2712,-0.3869
2705,815,667,34.232,33.748,0.0128,0.0072,9.8449,-0.3083,0.171,0.0951
2710,815,663,34.372,33.695,0.0739,0.0295,9.8571,0.4009,0.896,-0.5067
2715,818,658,34.293,33.623,0.1074,-0.0124,9.824,-0.2604,0.0272,-0.0667
2720,837,658,34.294,33.688,0.0449,0.0311,9.913,0.195,0.3559,0.2241
2725,850,656,34.321,33.762,0.0671,0.0161,9.7797,-0.485,-0.5,-0.0172
2730,847,653,34.401,33.717,0.0029,0.075,9.8019,-0.2243,0.0127,0.1622
2735,852,653,34.315,33.707,-0.0037,0.0636,9.8718,0.0049,0.4049,0.0883
2740,863,649,34.306,33.731,0.0693,0.0509,9.8606,-0.2844,-0.0787,-1.0139
2745,878,648,34.435,33.679,0.0717,-0.0407,9.8061,0.1557,0.3148,0.214
2750,885,651,34.352,33.646,-0.0477,0.068,9.7658,0.3347,0.0553,-0.3283
2755,898,647,34.343,33.629,-0.0297,-0.0125,9.7649,0.2426,0.8267,-0.1562
2760,907,651,34.395,33.685,0.0349,0.1059,9.8607,-0.8342,0.7163,0.3996
2765,906,647,34.41,33.661,-0.018,0.0097,9.8119,0.6061,0.0755,0.2019
2770,927,650,34.358,33.672,-0.0226,-0.0694,9.7383,-0.4921,-0.1222,-0.0324
2775,932,650,34.441,33.697,0.0137,0.0241,9.7225,0.897,-0.0287,-0.0188
2780,953,648,34.331,33.695,0.0762,0.0426,9.8128,-0.6206,-0.155,0.2417
2785,954,650,34.375,33.648,-0.0123,-0.0038,9.835,-0.0941,-0.6091,0.5101
2790,970,650,34.296,33.676,-0.0367,0.0102,9.9107,-0.2164,0.543,-0.1835
2795,969,653,34.366,33.642,-0.0716,0.0553,9.9118,-0.2998,0.5647,-0.1059
2800,990,655,34.31,33.727,-0.0788,0.0124,9.7743,0.5818,-1.0274,0.6382
2805,993,661,34.344,33.712,-0.0818,-0.0944,9.8005,0.2105,0.7127,0.5162
2810,1006,661,34.327,33.719,-0.029,0.0039,9.8947,-0.4642,0.0649,0.066
2815,1008,663,34.381,33.744,0.039,-0.1022,9.8154,-0.247,-0.1731,-0.1845
2820,1020,664,34.381,33.708,-0.0861,-0.08,9.8429,-0.2495,0.1095,0.5841
2825,1029,669,34.317,33.715,-0.0107,-0.0207,9.8222,0.6532,-0.0234,-0.9784
2830,1054,671,34.277,33.723,0.0312,0.0497,9.8395,-0.0038,0.1619,0.466
2835,1053,673,34.343,33.61,0.0179,0.0683,9.8288,0.0568,0.455,0.4554
2840,1064,677,34.288,33.704,-0.0101,-0.0101,9.8151,-0.4186,-0.6449,-0.0625
2845,1066,689,34.353,33.669,-0.0288,0.0315,9.8853,-0.114,-0.2732,0.0435
2850,1084,686,34.436,33.683,0.1295,-0.0168,9.7618,0.1514,-0.6429,-0.2299
2855,1091,691,34.342,33.713,0.0191,0.0404,9.8332,-0.5767,0.3538,-0.4934
2860,1096,698,34.356,33.631,0.1363,0.0042,9.8584,0.0244,0.355,-0.1817
2865,1103,700,34.374,33.67,-0.0653,0.0897,9.8407,0.13,-0.009,-0.2534
2870,1113,714,34.334,33.739,-0.0637,-0.0298,9.7109,0.1559,0.5804,-0.2973
2875,1122,713,34.35,33.729,-0.0114,0.0073,9.7486,0.2179,-0.116,-0.3943
2880,1124,717,34.343,33.721,0.021,-0.0078,9.7853,0.0263,-0.5121,0.2094
2885,1139,725,34.366,33.693,0.0319,0.1242,9.7755,-0.4136,0.006,-0.6129
2890,1130,736,34.379,33.733,-0.0334,0.0469,9.7457,-0.1225,0.2662,-0.4793
2895,1139,739,34.328,33.654,-0.0046,0.0332,9.8008,0.0285,-0.1521,0.2169
2900,1148,743,34.384,33.779,-0.0664,0.0215,9.7771,-0.3141,-0.5964,-1.0862
2905,1151,752,34.391,33.735,-0.0322,0.0263,9.7144,-0.2477,-0.5754,-0.2312
2910,1152,757,34.35,33.684,0.0494,-0.0271,9.778,0.0303,-0.3322,-0.8852
2915,1160,761,34.415,33.624,0.0034,0.0433,9.8703,-0.1907,0.4518,-0.0735
2920,1165,764,34.326,33.702,0.0053,0.006,9.9252,0.291,0.7107,0.0424
2925,1174,773,34.286,33.701,0.0917,-0.0074,9.8139,0.6497,-0.0731,0.5975
2930,1176,786,34.345,33.752,-0.074,0.0761,9.6718,-1.426,0.3051,-0.0322
2935,1182,783,34.346,33.701,-0.0209,0.0171,9.8304,-0.0567,-0.2176,-0.1135
2940,1177,792,34.283,33.771,-0.0256,0.0265,9.7175,0.8555,-0.2746,-0.4511
2945,1176,806,34.267,33.611,0.0142,0.015,9.8254,0.4466,0.2448,-0.3729
2950,1182,809,34.356,33.81,-0.0438,0.0984,9.8428,0.3792,-0.2151,-0.1134
2955,1187,813,34.37,33.691,-0.0248,-0.0391,9.8079,-0.3395,0.7494,-0.2921
2960,1184,818,34.355,33.695,-0.0634,0.0664,9.8628,-0.0346,0.769,-0.1153
2965,1194,822,34.333,33.687,0.0282,-0.0743,9.7892,-0.1311,0.1506,-0.2103
2970,1181,826,34.358,33.654,-0.0444,-0.0407,9.8247,0.2071,0.8009,-0.0953
2975,1191,834,34.334,33.657,0.0065,-0.0176,9.6956,0.2275,0.4803,-0.3477
2980,1187,841,34.339,33.637,-0.0537,0.0454,9.8314,0.4854,-0.1709,0.1745
2985,1190,845,34.347,33.629,0.0443,0.002,9.8246,-0.5071,0.8719,0.6011
2990,1190,847,34.287,33.718,-0.0067,0.0113,9.7864,0.4104,0.6418,-0.2634
2995,1198,857,34.457,33.666,-0.0566,-0.116,9.8195,-0.8805,0.6482,-0.0487
3000,1184,864,34.364,33.643,0.0367,-0.0159,9.7541,0.0403,0.6156,0.3601
3005,1183,862,34.354,33.711,0.0766,0.0616,9.8319,0.0341,-0.4597,-0.4097
3010,1181,875,34.339,33.728,-0.0481,0.0374,9.8288,-0.0205,-0.2958,0.4659
3015,1178,869,34.293,33.736,-0.0433,0.0818,9.7826,0.8698,-0.9724,0.3236
3020,1177,874,34.419,33.641,-0.003,0.0398,9.7472,-0.6505,0.8976,-0.195
3025,1177,878,34.321,33.781,0.015,0.0056,9.7839,0.155,0.1032,0.2304
3030,1168,881,34.286,33.729,0.0654,0.077,9.7723,0.117,0.9393,0.4639
3035,1171,890,34.344,33.67,-0.0403,0.0396,9.8537,0.0778,-0.0581,0.463
3040,1169,888,34.335,33.742,0.0341,0.0289,9.8796,0.2278,-0.3327,-0.2284
3045,1166,894,34.286,33.619,0.0341,0.0401,9.7582,0.7532,0.1747,0.5889
3050,1166,899,34.345,33.739,0.0112,0.0922,9.7459,-0.719,-0.4036,1.2921
3055,1160,900,34.416,33.687,0.0354,-0.0046,9.778,-0.3809,-0.0551,0.3101
3060,1154,900,34.302,33.65,-0.0158,-0.0064,9.8271,-0.1435,0.0815,-0.9431
3065,1157,899,34.347,33.642,-0.0396,0.0074,9.9437,-0.3742,0.3779,1.1159
3070,1155,908,34.347,33.729,0.0158,0.0237,9.8534,0.3945,0.0902,0.5479
3075,1149,905,34.332,33.738,-0.0237,-0.1026,9.7302,-0.99,0.4591,-0.2225
3080,1147,908,34.31,33.749,0.0758,0.0443,9.8298,-0.3249,0.3282,0.6293
3085,1148,913,34.343,33.7,-0.0732,0.0091,9.8557,-0.0357,-0.8826,0.5367
3090,1154,913,34.304,33.729,-0.063,-0.0332,9.8194,-0.2336,-0.3679,-0.5284
3095,1147,907,34.399,33.679,0.0191,-0.0578,9.8567,-0.1063,0.3305,-0.1597
3100,1145,910,34.339,33.721,-0.0375,-0.0614,9.8089,-0.3809,-1.0872,-0.2467
3105,1128,908,34.459,33.751,0.0188,-0.003,9.8315,-0.4152,0.412,-0.0378
3110,1135,915,34.279,33.773,0.0486,-0.0007,9.7698,-0.2242,-0.2154,-0.0852
3115,1138,915,34.276,33.68,-0.0441,-0.0515,9.8311,0.058,0.0443,0.4625
3120,1130,916,34.329,33.73,0.1644,-0.0985,9.7472,-0.5627,0.4331,-0.1925
3125,1129,908,34.316,33.767,0.071,0.0405,9.858,0.3443,-0.524,-0.4485
3130,1120,905,34.336,33.705,0.0668,0.0573,9.7957,-0.391,-0.3887,-0.109
3135,1120,912,34.321,33.617,-0.1037,-0.0367,9.7684,0.0646,-0.6181,-0.1479
3140,1116,907,34.319,33.676,-0.0493,-0.078,9.8505,-0.6601,1.1398,-0.301
3145,1118,910,34.338,33.687,0.0618,-0.0188,9.8919,0.5819,0.4791,-1.0137
3150,1116,907,34.374,33.748,0.0324,-0.0484,9.7667,0.3616,0.2578,0.253
3155,1106,912,34.392,33.622,-0.0037,-0.0427,9.8324,-0.0167,0.9275,-0.2509
3160,1108,909,34.318,33.66,-0.0141,-0.1002,9.737,-0.7029,0.5191,-0.1112
3165,1109,908,34.376,33.635,0.0818,-0.0798,9.7764,-0.0629,0.4076,-1.1739
3170,1107,903,34.425,33.694,0.0084,-0.0213,9.9057,0.5036,-0.2242,0.2795
3175,1090,901,34.319,33.607,0.0062,0.0659,9.7466,0.1658,0.8241,-0.5439
3180,1097,902,34.371,33.744,-0.0022,0.059,9.8519,-0.1132,0.6351,0.6045
3185,1103,900,34.377,33.72,0.016,0.0625,9.809,0.6161,0.2092,-0.1702
3190,1088,895,34.281,33.672,-0.0534,0.1085,9.8118,0.4355,-0.4982,-0.0272
3195,1098,903,34.378,33.799,0.0178,-0.017,9.8522,-0.2788,0.7616,-0.1038
3200,1091,895,34.377,33.687,0.0115,-0.064,9.792,0.4033,0.0387,0.2866
3205,1099,897,34.39,33.673,0.0984,0.0244,9.7231,-0.175,0.5448,0.035
3210,1090,896,34.431,33.751,0.0304,0.1094,9.8093,-0.0226,0.8066,0.2652
3215,1086,889,34.372,33.647,0.0301,-0.012,9.8638,-0.3985,-0.324,-0.0964
3220,1079,885,34.331,33.69,0.0069,0.0082,9.777,0.4964,-0.922,-0.0951
3225,1086,887,34.3,33.748,-0.0163,0.0497,9.8566,-0.1522,-0.1362,0.0864
3230,1076,889,34.434,33.716,0.0833,0.0171,9.8511,0.1052,-0.7215,0.1874
3235,1087,878,34.41,33.779,0.0665,0.0108,9.7079,-0.3253,0.0378,0.53
3240,1082,891,34.372,33.616,-0.0072,0.0847,9.8609,0.5878,0.6005,-0.3803
3245,1088,883,34.345,33.695,-0.0149,0.0025,9.8198,0.0114,0.4066,0.0013
3250,1074,876,34.378,33.661,0.0329,-0.0485,9.7783,1.1341,-0.3968,0.6325
3255,1072,879,34.369,33.669,-0.0346,-0.0168,9.8657,0.6335,-0.021,0.5327
3260,1071,873,34.381,33.699,0.0559,-0.0025,9.7937,0.5892,0.6089,-0.2158
3265,1068,871,34.282,33.662,0.0195,-0.0409,9.765,0.5076,-0.1825,0.4383
3270,1067,876,34.365,33.731,-0.0404,0.0114,9.7991,0.2517,0.541,-0.4277
3275,1050,872,34.293,33.718,-0.0432,-0.0213,9.8268,0.0057,0.0522,0.5519
3280,1059,868,34.364,33.655,-0.0108,0.0535,9.7911,1.3361,0.0433,0.4385
3285,1051,873,34.404,33.705,0.0283,0.0415,9.8267,0.4452,0.1,0.1665
3290,1049,867,34.387,33.695,0.0833,-0.0293,9.8591,-0.156,-0.0772,-0.639
3295,1053,867,34.354,33.68,0.0321,0.0654,9.708,0.1288,-0.7654,-0.2226
3300,1046,864,34.353,33.679,0.0362,0.0266,9.8524,0.3937,0.9479,-0.2429
3305,1031,864,34.369,33.676,-0.043,0.0308,9.8576,-0.1366,0.2636,0.0036
3310,1036,860,34.36,33.684,-0.0974,0.0688,9.7681,0.2209,0.0447,0.6446
3315,1031,865,34.316,33.719,0.1182,-0.0476,9.713,-0.0862,0.1142,-0.2729
3320,1034,857,34.3,33.604,0.0895,-0.0351,9.7964,-0.1746,0.2628,0.096
3325,1025,859,34.383,33.686,0.0514,-0.0283,9.7348,0.4099,-0.1742,0.1443
3330,1010,854,34.41,33.722,-0.0109,-0.0131,9.7418,-0.661,0.6908,-0.7154
3335,1010,856,34.296,33.695,0.0072,-0.1296,9.8747,-0.3587,0.0293,-0.1985
3340,1005,855,34.3,33.769,0.0731,-0.0584,9.8343,-0.1997,0.1205,-0.9953
3345,1009,855,34.37,33.646,-0.1071,0.0119,9.7939,-0.0514,-0.0045,0.2283
3350,1001,853,34.358,33.652,0.0157,-0.0048,9.9107,-0.8621,-0.5769,-0.189
3355,985,851,34.331,33.75,-0.0167,-0.0013,9.7433,-0.2105,0.2029,0.6003
3360,982,856,34.305,33.582,0.0126,-0.0173,9.7535,0.2985,-0.2823,-0.2976
3365,977,846,34.296,33.704,0.0274,-0.122,9.7809,-0.3155,0.6484,-0.61
3370,969,849,34.391,33.74,0.0874,0.0495,9.8993,0.0252,-0.7616,0.4712
3375,968,846,34.406,33.699,0.0209,0.0249,9.7246,-0.5635,0.2819,-0.1675
3380,962,850,34.368,33.655,0.0278,0.0123,9.8,-0.0024,-0.1525,-0.8196
3385,957,850,34.389,33.649,-0.0254,0.1063,9.8448,-0.0134,0.4707,0.8366
3390,934,846,34.374,33.717,0.0345,0.0263,9.7912,-0.2587,0.7065,-0.3165
3395,930,839,34.308,33.703,0.0037,0.0324,9.8005,-0.1675,0.2542,0.4395
3400,922,839,34.218,33.749,0.0291,-0.0579,9.7474,-0.7118,-0.3952,-0.2425
3405,920,839,34.332,33.759,0.0331,-0.0606,9.7715,-0.2764,0.238,-0.5211
3410,911,841,34.361,33.675,-0.0912,0.184,9.7868,0.5744,-0.1622,0.7049
3415,895,840,34.298,33.731,0.044,-0.1149,9.9293,-0.2861,-0.7739,-0.5259
3420,891,835,34.378,33.729,0.0216,0.0102,9.8558,0.9779,-0.4737,0.2381
3425,891,837,34.35,33.664,0.0053,-0.0079,9.798,-0.1581,-0.2633,-0.5714
3430,876,832,34.376,33.63,-0.0276,-0.1505,9.785,-0.1056,-0.6792,0.0242
3435,875,827,34.343,33.657,0.0428,0.0035,9.8093,-0.4956,-0.5752,-0.2696
3440,866,827,34.341,33.767,-0.0492,0.0411,9.8402,0.3617,-0.6163,-0.9856
3445,858,826,34.4,33.701,0.0467,-0.0343,9.7444,-0.6728,0.2926,0.5868
3450,848,819,34.327,33.68,-0.024,0.0653,9.8913,-0.2106,0.7583,-0.6032
3455,846,818,34.288,33.734,0.0672,0.0295,9.8945,0.203,0.4055,0.1406
3460,843,811,34.407,33.694,-0.0262,0.0045,9.7398,0.1761,-0.4414,-0.1576
3465,824,814,34.374,33.718,0.0132,-0.0175,9.7509,-0.0482,0.1362,-0.8989
3470,824,805,34.387,33.721,0.0604,0.034,9.7944,-0.1361,-0.4818,0.2345
3475,808,805,34.385,33.698,0.0299,0.0593,9.7731,-0.2818,-0.7394,-1.0318
3480,822,801,34.349,33.71,0.0823,-0.0002,9.8482,0.8087,-0.0707,0.5679
3485,800,796,34.277,33.706,-0.0338,-0.0159,9.7775,1.0694,-0.731,-0.3315
3490,798,792,34.357,33.776,-0.0597,0.0583,9.7967,-0.6993,-0.3344,-0.1276
3495,791,788,34.373,33.651,-0.0492,0.002,9.9007,0.1701,0.491,0.1674
3500,794,786,34.451,33.74,0.1442,-0.0192,9.7375,-0.1721,-0.9038,1.1039
3505,788,790,34.357,33.769,0.0233,0.021,9.8493,0.6024,0.1902,0.3963
3510,777,780,34.416,33.73,-0.016,-0.0432,9.7942,-0.4679,0.8066,-0.9606
3515,773,777,34.37,33.739,0.0883,0.067,9.8453,-1.2052,0.3251,-0.1164
3520,758,768,34.297,33.818,-0.065,0.0163,9.837,0.3169,0.4193,-0.4872
3525,766,768,34.347,33.774,-0.0194,0.0107,9.7777,0.0257,0.2623,-0.3218
3530,769,761,34.366,33.657,-0.013,-0.0093,9.9076,0.3505,-0.6295,-0.4736
3535,755,759,34.326,33.732,-0.019,-0.0212,9.8596,0.4197,0.3022,-0.2642
3540,747,755,34.377,33.7,0.0115,0.0419,9.8396,-0.0804,0.1922,-0.7669
3545,746,751,34.356,33.622,0.0178,-0.0235,9.7695,0.2933,-0.3881,0.3498
3550,756,747,34.357,33.734,0.0763,0.0039,9.8341,0.2303,0.1513,-0.961
3555,753,739,34.298,33.799,0.0286,0.0596,9.812,0.403,-1.0513,-0.5359
3560,742,735,34.444,33.699,-0.037,0.0261,9.8452,0.2161,0.0529,0.1521
3565,751,732,34.397,33.748,0.057,-0.0244,9.855,0.3607,0.5483,0.2024
3570,752,730,34.363,33.674,0.0266,0.0794,9.8174,-0.0374,-0.2722,0.6157
3575,748,724,34.38,33.72,-0.0205,-0.0192,9.8038,0.1962,-0.9234,0.016
3580,750,719,34.357,33.678,-0.0162,0.045,9.6938,0.1402,-0.0394,-0.4211
3585,752,711,34.324,33.682,0.0278,0.0458,9.8096,-0.2874,0.7797,-0.1625
3590,760,710,34.372,33.692,-0.0282,-0.0044,9.8976,-1.0129,-0.1217,-0.0063
3595,754,704,34.408,33.77,0.0048,0.0202,9.7267,1.1707,-0.911,-0.2969
3600,767,698,34.439,33.69,0.0224,0.0186,9.8685,-0.4348,0.067,-0.1047
3605,767,698,34.368,33.847,-0.0047,-0.0292,9.8256,0.0464,0.0651,-0.3895
3610,769,692,34.342,33.743,0.1374,-0.0082,9.8081,-0.3955,0.5981,-0.3729
3615,779,688,34.375,33.759,0.1134,0.0471,9.8006,0.7383,0.6257,-0.0219
3620,768,679,34.284,33.732,0.015,0.0132,9.8203,-0.3134,1.0176,0.2558
3625,787,679,34.322,33.612,0.0523,0.0032,9.7711,-0.6937,0.4645,-0.1388
3630,785,676,34.381,33.706,-0.0356,0.0029,9.8535,0.0289,1.0022,-0.9708
3635,793,673,34.345,33.726,-0.0142,-0.0536,9.7865,-0.6993,-0.0989,0.5473
3640,798,673,34.355,33.688,-0.025,0.0815,9.7479,-0.1127,-0.2285,-0.2319
3645,797,664,34.398,33.71,0.0105,0.0379,9.8238,-0.3717,-0.0306,-0.5108
3650,814,667,34.455,33.652,-0.024,-0.0684,9.8617,0.0992,-0.1045,-0.75
3655,816,660,34.342,33.769,-0.0656,0.01,9.7604,0.8577,-0.248,-0.2117
3660,822,656,34.308,33.716,0.1205,0.0532,9.7916,0.0976,-0.5043,0.3092
3665,839,658,34.334,33.669,-0.0519,0.1028,9.8312,0.4133,-0.225,0.0709
3670,836,657,34.366,33.704,-0.0138,0.0213,9.8855,-0.063,-0.0481,-0.2761
3675,851,654,34.395,33.697,-0.0186,-0.0085,9.775,-1.0662,0.5838,-0.0448
3680,864,651,34.334,33.721,0.1164,-0.0394,9.8207,0.2426,-0.8204,-0.093
3685,874,652,34.389,33.686,-0.0734,-0.0784,9.8176,-0.8539,0.1066,-0.2156
3690,876,650,34.374,33.637,-0.0375,0.028,9.8366,0.1446,0.0391,0.0448
3695,897,651,34.31,33.589,-0.158,0.1576,9.8027,0.2118,0.6254,-0.8751
3700,898,645,34.402,33.744,0.017,0.0021,9.8045,0.5144,-0.2493,0.108
3705,904,646,34.397,33.712,0.0362,-0.0022,9.7891,-0.1094,-0.2887,-0.0045
3710,910,646,34.392,33.799,-0.0069,-0.038,9.8586,-0.1869,0.4219,0.0017
3715,931,643,34.397,33.739,-0.0537,0.0879,9.7794,0.5928,0.3521,0.5086
3720,942,648,34.393,33.693,0.0049,0.0295,9.8393,-0.4376,-0.0289,0.8478
3725,960,652,34.293,33.634,0.0404,-0.0033,9.7472,1.2294,0.4331,0.3887
3730,961,649,34.431,33.601,0.0164,-0.0948,9.7159,-0.653,-0.035,-0.1936
3735,967,645,34.353,33.751,0.0161,0.0065,9.7818,0.1359,0.4308,-0.0271
3740,972,649,34.357,33.757,0.0481,0.0279,9.7794,-0.4541,-0.0274,0.1097
3745,986,655,34.32,33.771,-0.0076,0.1154,9.8438,-0.1069,0.7642,0.4523
3750,1001,654,34.322,33.698,-0.0283,-0.122,9.7725,1.2886,-0.1955,0.5536
3755,1011,655,34.349,33.768,-0.0602,0.0121,9.8615,0.1388,-0.3491,-0.4577
3760,1012,668,34.434,33.717,0.0431,0.0156,9.6979,-0.9264,-0.6048,0.0731
3765,1042,666,34.362,33.64,-0.0171,0.0362,9.7577,0.5691,1.059,0.4047
3770,1039,670,34.259,33.691,0.0515,0.017,9.7804,-0.4582,-0.5772,-0.416
3775,1045,675,34.272,33.668,0.0507,0.046,9.8374,0.3875,-0.2684,0.0366
3780,1069,682,34.468,33.663,-0.0068,0.0278,9.6966,-0.5309,-0.2007,-0.0413
3785,1064,678,34.388,33.82,-0.0233,-0.0733,9.8559,-0.7659,1.0571,1.0153
3790,1076,683,34.358,33.705,0.0482,0.0186,9.8202,0.7125,0.0755,-0.3514
3795,1086,688,34.38,33.78,-0.0398,0.0401,9.7628,0.259,-0.4133,0.1786
3800,1094,698,34.337,33.7,0.0861,0.0415,9.7864,-0.2343,0.2705,-0.0037
3805,1098,701,34.334,33.708,0.0042,-0.0709,9.7968,-0.3768,0.4544,0.3262
3810,1107,705,34.336,33.629,-0.0388,-0.0418,9.852,0.243,1.0881,0.0613
3815,1112,715,34.371,33.694,-0.0627,0.0125,9.8908,-0.7389,0.0845,-0.4614
3820,1124,714,34.401,33.73,0.0244,-0.0532,9.7626,-0.1109,0.3263,0.1295
3825,1132,723,34.492,33.711,-0.0014,-0.005,9.7923,-0.3174,-0.1327,-0.0291
3830,1133,725,34.428,33.746,0.053,-0.0836,9.8521,-0.4077,-0.0217,-0.0031
3835,1142,733,34.395,33.673,-0.0443,0.062,9.7591,-0.5079,0.0338,0.126
3840,1134,741,34.441,33.746,-0.1204,0.0105,9.7664,0.3317,0.503,1.3715
3845,1148,745,34.352,33.766,-0.0481,-0.1192,9.8158,-0.2345,-0.0189,0.436
3850,1145,752,34.374,33.741,-0.0058,-0.028,9.7882,0.1516,0.0165,-0.4459
3855,1152,760,34.35,33.681,-0.0607,0.0095,9.817,-0.0266,-0.1698,0.6449
3860,1169,760,34.374,33.757,-0.0845,-0.0064,9.8139,0.3488,-0.6452,-0.2751
3865,1168,774,34.385,33.671,0.0352,0.007,9.7555,0.5093,-0.6159,-0.5843
3870,1172,775,34.402,33.671,0.0069,0.1601,9.7768,0.3099,0.3415,-0.2399
3875,1176,784,34.281,33.694,0.0141,-0.0274,9.821,0.0765,0.6208,0.3046
3880,1172,794,34.407,33.665,-0.0119,-0.0428,9.8344,-0.1338,-0.3292,-0.6558
3885,1174,795,34.292,33.755,0.0115,-0.0493,9.8071,0.0416,-0.0562,0.6663
3890,1175,800,34.327,33.731,0.011,0.0247,9.7842,-0.4111,0.2661,0.6069
3895,1188,806,34.432,33.752,-0.0659,-0.0081,9.8252,-0.7068,-0.3868,0.07
3900,1195,810,34.409,33.674,-0.0711,-0.0339,9.8504,-0.3101,0.173,0.0907
3905,1188,821,34.4,33.754,0.0778,0.0143,9.7797,-0.2033,-0.7158,0.5957
3910,1188,826,34.351,33.688,0.0442,0.0171,9.7457,0.2937,0.2875,-0.9257
3915,1185,833,34.355,33.608,-0.0439,0.0266,9.7964,0.3558,1.3828,0.46
3920,1181,836,34.451,33.779,0.0855,-0.0045,9.8436,0.8446,-0.0237,-0.4738
3925,1186,842,34.347,33.76,-0.0254,-0.0604,9.8443,-0.048,-0.3954,-0.0593
3930,1186,855,34.386,33.768,0.0047,0.0324,9.8015,-0.2751,-0.3076,-0.4293
3935,1192,849,34.392,33.749,0.0023,0.0291,9.8227,-0.0385,0.139,1.3477
3940,1187,860,34.335,33.787,0.086,-0.0308,9.8122,-0.2023,0.4504,-0.8539
3945,1185,861,34.394,33.7,0.1113,-0.0901,9.807,-0.2378,-0.0414,0.2317
3950,1183,866,34.386,33.691,0.0659,0.0012,9.8124,-0.2472,-0.9863,0.1028
3955,1180,870,34.314,33.711,-0.0205,-0.0378,9.8833,0.8139,0.1337,0.5956
3960,1185,869,34.392,33.699,0.0411,0.0317,9.6711,0.7644,-0.6425,0.6827
3965,1188,877,34.444,33.695,0.0276,0.0247,9.7346,0.4004,0.0467,-0.7166
3970,1177,883,34.337,33.661,0.0895,0.0488,9.7942,0.3789,0.0632,0.5922
3975,1180,889,34.285,33.601,0.1294,0.0226,9.7916,-0.736,0.069,1.262
3980,1169,889,34.4,33.732,-0.0465,-0.0233,9.8653,0.5654,-0.7998,-0.9249
3985,1165,894,34.35,33.572,-0.0403,-0.0105,9.8089,-0.4158,-0.4959,0.1553
3990,1166,896,34.388,33.63,0.0616,0.052,9.7376,0.202,0.1807,-0.8372
3995,1166,897,34.267,33.754,-0.0304,0.0342,9.7369,-0.5981,0.0171,-0.0908
4000,1157,900,34.353,33.638,0.0528,-0.0132,9.7972,-0.2356,-0.2878,1.1519
4005,1159,902,34.381,33.762,0.0231,-0.0609,9.8204,-0.4827,-0.0587,1.155
4010,1158,901,34.487,33.673,-0.0408,-0.0267,9.8365,-0.1819,-0.0498,-0.0389
4014,1155,907,34.299,33.748,0.0816,-0.0292,9.8218,0.2472,0.0714,-0.2121
4019,1146,909,34.29,33.688,-0.0307,0.1014,9.8075,0.5374,-0.0273,0.0593
4025,1152,904,34.409,33.693,-0.0115,0.1252,9.8228,0.4093,-0.0733,-0.5129
4030,1152,912,34.496,33.695,-0.0983,-0.0134,9.825,-1.044,-0.0099,-0.8032
4035,1144,912,34.401,33.751,-0.0359,-0.0093,9.7715,0.3071,-0.6595,-0.4509
4040,1129,915,34.472,33.775,0.0694,0.076,9.8007,-0.3619,-0.2053,0.3163
4045,1136,912,34.289,33.697,0.0673,0.0241,9.8346,0.6048,0.1657,0.4583
4050,1129,916,34.387,33.72,-0.0192,-0.016,9.7829,-0.5086,0.5191,-0.4725
4054,1125,916,34.474,33.667,-0.0043,-0.101,9.7324,0.2026,0.1295,0.7701
4059,1131,916,34.307,33.801,0.0784,-0.0413,9.7844,-0.1094,-1.3019,-0.297
4065,1130,918,34.457,33.737,0.0433,-0.0265,9.8383,0.5766,-0.4737,0.324
4070,1124,911,34.361,33.743,-0.0198,-0.0145,9.8898,0.8812,-0.3298,0.3942
4075,1119,910,34.409,33.663,0.0574,0.0169,9.759,-0.0414,0.2134,0.5121
4080,1115,915,34.351,33.718,-0.0554,0.0421,9.842,-0.5326,0.0466,-0.9672
4085,1121,911,34.471,33.692,0.0109,-0.0119,9.8151,0.2856,-0.4467,0.5258
4090,1111,911,34.386,33.711,-0.0134,-0.0396,9.7427,0.0056,-0.2391,-0.3011
4094,1100,912,34.33,33.682,-0.0411,0.0113,9.738,0.7491,0.4328,-0.4327
4100,1103,909,34.382,33.812,-0.0099,0.0312,9.7669,0.1655,0.2595,-0.1037
4105,1109,904,34.334,33.646,0.0015,-0.0049,9.8132,0.0351,0.3118,-0.0448
4110,1102,908,34.392,33.678,0.0321,-0.0024,9.7973,0.3978,-0.4294,-0.6522
4115,1103,903,34.403,33.593,-0.0607,-0.0016,9.8062,0.4632,-0.4075,0.584
4120,1092,899,34.357,33.865,-0.0034,-0.12,9.8097,-0.669,-0.6232,-0.1893
4125,1100,899,34.357,33.811,-0.041,0.0752,9.8327,0.0326,0.6162,-0.045
4130,1102,900,34.368,33.711,-0.0091,-0.0102,9.8197,-0.7019,0.0045,-0.1077
4135,1093,899,34.351,33.797,0.0331,-0.0392,9.8301,-0.6942,-0.361,0.6131
4140,1085,897,34.354,33.693,-0.0179,0.0044,9.7813,-0.4559,-0.1866,0.1634
4145,1090,898,34.31,33.692,0.0176,-0.0179,9.809,-0.0269,-0.5154,-0.0731
4150,1091,895,34.187,33.649,-0.0662,-0.1013,9.933,-0.7992,-0.8093,-0.2721
4155,1091,888,34.415,33.662,0.0107,0.0068,9.7906,0.3302,0.5972,-0.7464
4160,1084,889,34.333,33.747,-0.051,-0.1188,9.7973,0.5292,0.792,0.3477
4165,1084,887,34.329,33.695,0.0177,-0.0218,9.7911,0.0392,-0.9432,0.2077
4170,1080,885,34.498,33.664,0.0116,-0.0515,9.7259,-0.6422,0.2318,0.1124
4175,1075,883,34.317,33.692,-0.0589,0.0345,9.8102,-0.2535,-0.3898,0.6695
4180,1088,884,34.274,33.789,0.04,0.073,9.8154,1.3905,0.4034,0.4298
4185,1080,887,34.42,33.67,-0.0282,0.0227,9.8534,-0.287,-0.8464,0.2316
4190,1072,878,34.488,33.738,0.0164,-0.1158,9.7424,-0.1788,0.5196,0.7059
4195,1070,882,34.398,33.694,-0.1068,0.0122,9.7999,0.0576,0.2567,0.2414
4200,1080,879,34.355,33.748,0.0168,0.1138,9.8047,0.1468,-0.1316,-0.7437
4205,1063,877,34.425,33.702,-0.0961,-0.0403,9.8403,0.336,-0.0629,0.5594
4210,1064,870,34.318,33.71,-0.0011,0.0583,9.8708,-0.1546,0.8958,0.628
4215,1067,870,34.276,33.742,0.0139,0.1647,9.7715,0.1194,0.4376,0.4852
4220,1060,877,34.417,33.706,-0.0025,-0.0363,9.8077,-0.3684,-0.3043,-0.3181
4225,1047,869,34.362,33.658,-0.0411,-0.0058,9.7734,0.0382,-0.5052,0.0387
4230,1057,870,34.329,33.718,0.0305,0.0161,9.8453,0.3999,0.9128,-0.3373
4235,1048,863,34.438,33.679,-0.0481,0.0074,9.8136,-0.4215,0.1634,-0.3867
4240,1046,865,34.371,33.662,-0.0255,-0.0282,9.7813,-0.2031,-0.463,0.1754
4245,1042,865,34.39,33.657,-0.0097,0.0023,9.8285,0.3859,0.3584,0.5362
4250,1036,869,34.401,33.658,-0.1085,0.0478,9.7882,0.5089,0.8317,-0.8653
4255,1029,859,34.397,33.733,-0.0374,-0.039,9.7896,-0.6298,-0.063,0.8213
4260,1030,857,34.38,33.735,-0.0138,-0.0649,9.8565,-0.4853,-0.7682,0.6367
4265,1026,858,34.391,33.647,-0.0261,-0.0129,9.8802,-0.1247,-0.0681,-0.1697
4270,1015,859,34.385,33.691,0.0501,-0.0419,9.8252,0.7236,-0.0477,-0.2102
4275,1011,858,34.327,33.776,0.011,-0.0525,9.8157,0.5957,0.225,0.1815
4280,997,857,34.362,33.707,-0.0797,-0.0796,9.8783,0.088,-0.1982,-0.37
4285,997,855,34.422,33.779,0.0739,0.0284,9.7345,0.3096,-0.5843,0.5967
4290,1002,852,34.307,33.7,0.039,0.0575,9.8435,0.3341,-0.4873,-0.2079
4295,992,855,34.336,33.671,0.0865,0.1218,9.7913,0.3834,-0.5787,-0.062
4300,992,855,34.363,33.659,-0.0499,0.0935,9.8404,-1.0537,-0.5074,0.4817
4305,972,854,34.291,33.587,-0.058,0.0298,9.8203,0.6204,0.2308,-0.0093
4310,974,850,34.424,33.682,0.0165,0.053,9.8067,0.353,-0.739,0.1286
4315,964,844,34.377,33.697,0.0408,0.0468,9.8967,-0.1275,0.1552,-0.3511
4320,961,846,34.461,33.762,-0.0141,0.0461,9.8013,-1.1882,0.5881,-0.1591
4325,960,846,34.345,33.65,-0.031,-0.0245,9.791,0.1568,-0.3227,0.4043
4330,960,844,34.304,33.712,0.036,0.0182,9.8294,-0.7902,-0.0304,-0.546
4335,939,840,34.392,33.699,-0.0729,-0.0326,9.7028,0.3053,-0.8451,0.4068
4340,941,840,34.299,33.676,-0.0473,-0.1078,9.817,0.0887,0.2281,0.5169
4345,923,836,34.326,33.673,0.0035,0.0102,9.752,-0.1969,-0.5176,-0.0279
4350,920,843,34.396,33.608,0.0232,-0.0824,9.8357,0.8761,-0.2351,-0.1779
4355,913,840,34.413,33.633,-0.0775,0.0218,9.764,-0.1267,0.4577,0.1172
4360,896,830,34.396,33.606,-0.0901,0.0568,9.8246,0.288,-1.2548,0.2863
4365,889,833,34.301,33.644,-0.0388,0.031,9.8227,0.3732,-0.7049,-0.2141
4370,885,829,34.426,33.761,0.0465,-0.0232,9.8832,-0.2695,-0.97,-1.6237
4375,883,832,34.41,33.734,-0.0165,0.0608,9.8508,-0.1873,0.6442,-0.6926
4380,878,826,34.32,33.716,0.0042,-0.1169,9.7782,0.0106,-0.086,-0.3041
4385,863,822,34.416,33.696,-0.0148,-0.0158,9.7385,0.7602,-0.2044,-0.1812
4390,850,824,34.342,33.713,-0.0244,-0.0369,9.7496,-0.473,0.0746,-0.2285
4395,853,818,34.335,33.655,-0.0561,-0.0105,9.7911,-0.6487,0.7343,-0.0212
4400,832,813,34.399,33.647,-0.0794,-0.0218,9.7917,-0.3069,-0.6638,0.2257
4405,833,815,34.297,33.733,0.0977,0.0202,9.8954,-0.0001,-0.0879,0.8207
4410,825,806,34.416,33.653,0.0072,0.0119,9.9018,-0.8333,0.0524,-0.4615
4415,821,806,34.308,33.765,-0.0207,0.0252,9.8248,0.1625,0.0311,0.0807
4420,808,802,34.392,33.627,0.092,0.0467,9.8292,0.3651,-0.3083,-0.3502
4425,800,807,34.345,33.746,-0.0058,0.0715,9.7243,-0.5378,-1.0766,0.3703
4430,804,802,34.423,33.626,-0.0768,0.0796,9.7807,-1.0622,-0.9671,-0.0444
4435,806,789,34.387,33.715,0.0463,-0.0439,9.6947,-0.1514,0.248,0.008
4440,807,787,34.322,33.648,-0.1275,-0.0634,9.859,0.673,0.6193,0.5522
4445,792,788,34.352,33.644,0.0638,-0.0106,9.881,-0.1609,-0.4507,-0.1404
4450,780,779,34.4,33.737,-0.0528,-0.0446,9.7689,-0.3823,-0.1888,0.218
4455,766,774,34.425,33.735,-0.0274,-0.0105,9.9692,-0.4977,0.094,-0.3269
4460,770,776,34.325,33.767,-0.0065,0.0402,9.8648,0.4086,-0.0657,0.3746
4465,775,768,34.358,33.712,0.0078,-0.0828,9.8927,0.1375,-0.8394,-0.2732
4470,761,762,34.393,33.665,0.0111,0.0224,9.8307,-0.6742,0.522,-0.2481
4475,770,766,34.329,33.675,0.0017,0.033,9.7295,0.0112,-0.0041,0.1579
4480,753,758,34.252,33.591,0.0277,-0.0285,9.8105,0.1862,0.3818,0.4409
4485,752,754,34.293,33.767,0.0138,0.0105,9.7414,0.0352,0.5124,0.1465
4490,742,746,34.375,33.768,0.0373,-0.0927,9.7905,0.4385,-0.1212,0.4337
4495,763,746,34.338,33.673,-0.0068,0.0024,9.8675,0.6557,0.1123,0.2061
4500,748,732,34.388,33.68,-0.0513,0.0287,9.8327,0.0606,1.0558,-0.2064
4505,743,739,34.358,33.797,-0.0187,0.0483,9.7714,0.0309,0.6191,-0.5145
4510,753,730,34.426,33.68,-0.0441,-0.0089,9.9218,0.5437,-0.5039,0.9633
4515,749,721,34.364,33.708,-0.0042,0.0554,9.8571,-0.5049,0.1385,-0.1728
4520,743,719,34.326,33.75,-0.019,0.0027,9.8178,-0.0568,-0.2028,0.1562
4525,746,715,34.383,33.67,-0.009,-0.1083,9.8774,0.548,0.2122,0.9438
4530,752,712,34.37,33.676,0.0424,0.021,9.8629,0.0157,0.4039,-0.7241
4535,759,704,34.36,33.722,0.0024,0.0375,9.7514,-0.4282,-0.2378,-0.0645
4540,751,704,34.373,33.647,-0.0421,-0.0065,9.8063,0.4981,0.1958,0.7315
4545,756,697,34.403,33.801,-0.0153,0.0295,9.7924,0.3557,-0.3978,-0.0214
4550,767,693,34.252,33.718,-0.0891,0.009,9.7935,-0.1499,0.3708,0.7958
4555,760,693,34.362,33.728,-0.0805,-0.0602,9.7612,1.0045,0.2864,0.4109
4560,770,687,34.31,33.672,-0.0802,0.0155,9.8426,-0.5191,0.4135,-0.5156
4565,778,684,34.455,33.63,-0.0035,-0.0383,9.8254,-0.0483,-0.3956,-0.538
4570,780,678,34.4,33.626,0.0375,0.0063,9.7875,-0.0647,-0.7923,-0.0555
4575,791,679,34.424,33.676,-0.0466,-0.0678,9.8355,-0.4157,-1.3208,0.4366
4580,788,675,34.352,33.607,-0.0691,0.0024,9.7807,0.7734,-0.3199,-0.1474
4585,801,671,34.484,33.669,0.0165,-0.0608,9.8634,1.2296,-0.0607,0.9817
4590,811,662,34.331,33.66,0.0237,-0.0383,9.7659,-0.4086,-0.1669,0.4413
4595,803,664,34.348,33.7,0.0597,-0.0057,9.8316,0.2071,-1.0953,-0.1951
4600,829,657,34.327,33.733,0.0024,0.0271,9.8113,-0.2679,-0.95,0.277
4605,841,656,34.382,33.636,-0.0161,0.0404,9.7416,-0.2345,-0.6006,-0.874
4610,826,657,34.444,33.679,-0.0877,-0.0474,9.76,0.3827,-0.2923,0.2088
4615,851,649,34.27,33.837,0.1135,-0.1027,9.8243,-0.5831,0.2912,-0.0112
4620,851,647,34.395,33.604,0.0197,-0.0577,9.8402,0.0812,0.1478,-0.3191
4625,860,642,34.288,33.674,-0.0765,0.0262,9.8999,-0.1003,0.2927,0.1993
4630,877,648,34.3,33.686,0.0692,-0.0058,9.7588,0.4851,0.1203,0.06
4635,889,643,34.384,33.76,0.0181,0.0386,9.8384,-1.0119,-0.6432,-0.4456
4640,894,643,34.29,33.673,-0.0667,0.0076,9.8186,-0.5579,0.4067,-0.3921
4645,907,643,34.336,33.693,0.0052,-0.0258,9.6556,-0.2717,-0.5194,-0.9656
4650,908,643,34.503,33.758,0.0041,-0.0045,9.7759,-0.4393,0.137,-0.811
4655,920,646,34.32,33.688,-0.0412,0.0152,9.7672,0.0856,0.1601,0.5078
4660,937,648,34.32,33.673,-0.0359,0.0079,9.8594,-0.3538,-0.1089,-0.2213
4665,952,649,34.347,33.716,-0.0132,-0.0183,9.7937,0.0058,0.2541,-0.3803
4670,954,656,34.392,33.78,0.0408,0.0238,9.7977,-0.9308,-0.4847,0.2769
4675,962,647,34.344,33.798,-0.0694,-0.0455,9.7766,-0.7621,0.0719,-0.9962
4680,973,654,34.306,33.691,0.0675,-0.0759,9.8034,-1.1914,-0.3543,0.1022
4685,981,659,34.372,33.814,-0.0197,-0.0375,9.7728,0.4221,0.16,-0.0401
4690,995,658,34.301,33.702,-0.0551,0.0362,9.6988,-0.8105,-0.3023,-0.2529
4695,1004,661,34.407,33.673,0.0543,-0.0011,9.9055,0.2934,-0.1931,-0.4441
4700,1013,658,34.428,33.707,0.084,0.0122,9.8308,0.7037,0.7419,-0.6145
4705,1023,666,34.298,33.759,-0.0127,-0.0411,9.7454,-0.0534,-0.7337,-0.9946
4710,1031,672,34.294,33.753,-0.0556,-0.0532,9.7645,-0.3288,-0.0834,-0.5785
4715,1041,672,34.356,33.694,0.0637,0.0609,9.7838,0.0601,-0.6062,-0.3762
4720,1056,680,34.361,33.703,0.0235,0.0716,9.7827,0.3326,0.1462,-0.2115
4725,1064,687,34.325,33.766,0.0707,-0.014,9.8581,0.3144,1.1107,-0.4929
4730,1074,683,34.294,33.735,-0.0134,0.0863,9.8613,-0.1471,0.0209,-0.2914
4735,1078,685,34.345,33.693,0.0191,-0.1059,9.7804,-0.2623,0.2764,-0.0616
4740,1087,689,34.506,33.632,0.106,-0.0174,9.8099,-0.1086,-0.6987,0.4482
4745,1090,694,34.383,33.639,-0.037,0.0139,9.7861,-1.1329,0.1423,-0.0464
4750,1103,705,34.361,33.703,0.0835,-0.0415,9.8514,0.088,-0.6535,-0.9465
4755,1109,708,34.305,33.695,-0.0167,0.0983,9.9204,0.2704,0.2087,-0.413
4760,1112,718,34.41,33.702,-0.102,0.0174,9.8657,-0.1557,-0.0835,-0.2904
4765,1120,717,34.441,33.717,-0.0313,-0.0296,9.8339,0.3657,-0.1104,0.232
4770,1142,724,34.402,33.707,0.012,-0.025,9.7865,-1.1139,-0.3505,0.364
4775,1142,730,34.323,33.748,0.0303,-0.0088,9.7667,0.3016,-0.3147,0.2245
4780,1151,735,34.408,33.664,0.0788,-0.0035,9.8664,0.157,0.0921,-0.4719
4785,1152,743,34.378,33.582,0.0059,-0.0503,9.7871,1.1201,0.8339,-0.7854
4790,1154,749,34.426,33.724,-0.0136,0.011,9.8029,-0.3982,-0.0,-0.1977
4795,1161,755,34.344,33.714,0.021,-0.0244,9.7152,-0.0364,-0.6393,-0.4044
4800,1153,763,34.302,33.644,-0.0486,-0.0129,9.8165,-0.1623,0.5672,0.3588
4805,1162,764,34.431,33.751,-0.0248,0.0408,9.7918,0.2193,-0.417,-0.058
4810,1159,772,34.36,33.74,-0.0111,0.0482,9.9104,0.2286,0.4247,0.206
4815,1173,778,34.335,33.707,-0.032,0.0664,9.8194,0.0053,-0.6114,-0.9388
4820,1184,791,34.347,33.739,0.0787,0.0203,9.8648,1.0341,-0.1173,0.23
4825,1184,790,34.389,33.739,-0.0561,-0.0831,9.8274,-0.3796,-0.3438,-0.0217
4830,1181,800,34.398,33.667,0.0304,0.0062,9.8538,-0.4682,-0.0828,-0.5106
4835,1180,801,34.415,33.627,0.0307,-0.0006,9.7915,-0.0106,-0.3283,-0.1882
4840,1174,808,34.42,33.689,0.0073,-0.039,9.7731,0.1165,0.1567,0.0322
4845,1188,813,34.387,33.621,0.0138,0.0479,9.7787,-0.0976,0.1739,-0.8333
4850,1181,824,34.396,33.714,0.0349,-0.046,9.7195,-0.2149,0.282,0.1056
4855,1179,828,34.39,33.707,0.0034,0.0664,9.8358,0.2776,-0.6219,0.6246
4860,1192,837,34.285,33.692,-0.039,-0.0419,9.7252,-0.7085,-0.4039,0.0042
4865,1186,840,34.294,33.681,-0.0127,-0.0392,9.8614,-0.0165,-1.0931,-0.8364
4870,1195,843,34.343,33.621,0.0792,0.0457,9.755,1.2008,0.0648,-0.0469
4875,1185,851,34.372,33.635,-0.1067,-0.0141,9.7662,-0.0783,-0.1151,0.3612
4880,1181,850,34.35,33.727,-0.0573,0.0126,9.7592,-0.5799,-0.3589,0.2085
4885,1184,859,34.401,33.725,-0.0331,0.0273,9.8366,-0.1357,-0.4064,0.6433
4890,1189,874,34.412,33.722,0.0211,0.0414,9.7641,-0.8521,-0.1087,1.073
4895,1185,874,34.348,33.74,-0.0167,-0.0108,9.8394,-0.8379,-0.0542,-1.13
4900,1171,873,34.401,33.62,0.13,-0.0352,9.799,-1.4355,0.2599,-0.0587
4905,1182,877,34.376,33.722,0.0343,-0.0454,9.7721,-0.4267,-0.0535,-0.287
4910,1178,881,34.42,33.641,-0.0648,-0.0352,9.8697,0.1671,0.0226,-0.1386
4915,1174,885,34.356,33.624,0.0195,0.0226,9.8683,0.2619,0.5436,0.2543
4920,1180,886,34.327,33.752,0.0151,0.0116,9.8162,0.775,-0.8187,-0.55
4925,1168,895,34.306,33.743,-0.0062,-0.0112,9.778,-0.0145,0.6217,-0.4659
4930,1164,891,34.345,33.828,-0.0569,0.0146,9.7836,0.7054,-0.0881,0.2083
4935,1158,894,34.338,33.761,-0.0136,0.0252,9.8165,1.3094,0.6114,0.6707
4940,1160,905,34.369,33.698,-0.056,0.0143,9.7452,0.5595,0.2846,-0.3402
4945,1165,898,34.411,33.653,0.0328,-0.0991,9.8163,-1.312,0.2787,0.3853
4950,1152,902,34.34,33.704,-0.0176,0.0307,9.8653,0.3914,-0.5564,0.5725
4955,1154,906,34.393,33.63,0.0239,-0.0358,9.8379,0.4293,0.0965,-0.259
4960,1153,911,34.339,33.836,0.0168,-0.0261,9.7915,0.7827,0.6237,0.5879
4965,1139,909,34.425,33.74,0.0419,-0.0637,9.7131,-0.5387,0.5167,-0.1136
4970,1150,911,34.353,33.716,-0.0479,0.0893,9.8888,-0.5239,-0.016,0.1191
4975,1147,913,34.368,33.734,0.0025,0.0407,9.747,-0.0753,-0.2229,-0.6947
4980,1146,913,34.384,33.712,0.0293,-0.0332,9.8352,0.3336,0.4216,-0.059
4985,1136,909,34.377,33.741,-0.034,-0.0455,9.7927,0.3658,0.1351,-0.8185
4990,1139,911,34.317,33.755,0.1192,0.0069,9.8584,-0.8498,0.5859,0.021
4995,1132,915,34.379,33.719,0.0274,0.0643,9.7894,-0.3339,0.3058,1.0454
5000,1131,916,34.412,33.683,0.0113,0.0314,9.8267,0.4063,-0.0951,-0.4375
5005,1127,914,34.396,33.786,0.005,0.0349,9.7659,0.1079,-0.3205,-1.3919
5010,1136,916,34.358,33.776,0.0186,-0.0664,9.8683,0.327,-0.4374,-0.6938
5015,1109,911,34.371,33.771,0.0129,-0.0409,9.7778,1.2689,-0.4774,0.1968
5020,1117,916,34.347,33.733,-0.0589,0.0769,9.7575,-0.3216,0.558,0.4425
5025,1120,914,34.345,33.726,0.0149,0.0046,9.8266,0.0465,0.5902,1.3051
5030,1118,906,34.386,33.706,0.0339,0.0294,9.8441,-0.5031,0.3188,0.125
5035,1122,911,34.384,33.685,-0.0384,-0.0081,9.8632,-0.6759,0.3561,-0.3692
5040,1112,909,34.33,33.613,-0.005,-0.0395,9.8205,-0.4114,-0.3319,-0.1088
5045,1106,908,34.393,33.645,0.0156,-0.0532,9.8179,0.577,0.3872,0.1735
5050,1107,906,34.446,33.798,-0.0419,0.0152,9.7293,-0.2486,-0.2866,-0.0731
5055,1107,899,34.363,33.679,0.0105,0.0581,9.7674,-0.4439,0.3946,0.2044
5060,1108,904,34.422,33.74,-0.0591,0.0297,9.8108,0.092,-0.224,-0.2741
5065,1104,906,34.396,33.645,-0.0464,0.0727,9.7768,-1.2329,0.2048,0.0764
5070,1094,899,34.316,33.715,0.0746,0.0414,9.7831,0.1514,-0.6855,-0.0957
5075,1103,895,34.338,33.678,-0.0876,-0.0159,9.8416,-0.6914,0.1229,-1.1011
5080,1093,894,34.39,33.79,-0.0979,0.0337,9.824,-0.0982,1.0427,-0.6663
5085,1098,894,34.346,33.701,-0.1195,-0.0077,9.8169,-0.2128,1.0449,0.0863
5090,1085,887,34.289,33.688,0.022,0.0202,9.8301,1.0632,0.2716,-0.4738
5095,1093,897,34.483,33.785,0.023,0.1019,9.6753,-0.0086,-0.7197,-0.3266
5100,1089,897,34.471,33.663,-0.0369,-0.0313,9.7393,-0.1655,0.5772,-0.2586
5105,1079,890,34.337,33.748,-0.0269,0.0381,9.8611,-0.8173,0.4864,0.1814
5110,1084,890,34.413,33.673,-0.0304,0.0805,9.8047,-0.0418,-0.8761,0.0373
5115,1076,886,34.377,33.729,-0.0045,0.0346,9.8092,0.1957,-0.2271,-0.4939
5120,1076,884,34.393,33.612,0.099,-0.011,9.8513,-0.7193,-0.6813,0.4771
5125,1077,887,34.362,33.756,0.0077,0.0071,9.8048,-0.0434,-0.4353,-0.397
5130,1070,882,34.301,33.724,-0.0062,-0.0112,9.815,-0.2927,0.2766,-0.3015
5135,1080,882,34.354,33.74,-0.0166,0.0312,9.8123,0.5655,-0.0937,0.6619
5140,1068,878,34.387,33.785,-0.0102,0.0115,9.7557,0.196,1.0937,-0.5226
5145,1062,880,34.436,33.705,-0.0001,0.0034,9.7432,0.0935,-0.2724,0.3568
5150,1067,876,34.358,33.761,-0.059,0.0548,9.8649,0.1936,-0.0941,-0.1219
5155,1061,866,34.36,33.748,0.0132,-0.0018,9.7677,0.9091,0.9626,-0.7198
5160,1062,867,34.359,33.718,0.0196,0.1034,9.7354,-0.4307,0.5662,-0.8574
5165,1059,867,34.372,33.682,-0.0416,-0.0833,9.8326,-0.5377,0.0859,0.5743
5170,1054,867,34.334,33.785,-0.1472,0.0432,9.7447,-0.3739,-0.1255,-0.5568
5175,1058,874,34.308,33.706,0.0708,0.0617,9.8457,0.0888,0.5947,0.1911
5180,1035,867,34.377,33.7,0.1097,0.0329,9.7093,-1.0154,0.4712,-0.097
5185,1040,861,34.329,33.761,0.0209,0.0575,9.7988,-0.1622,-0.5723,0.6235
5190,1038,865,34.337,33.757,-0.0154,-0.07,9.9045,-0.4257,0.5987,0.0326
5195,1028,864,34.51,33.682,-0.002,0.1117,9.817,0.2973,-0.1256,0.1013
5200,1035,862,34.383,33.698,0.0098,-0.0369,9.8655,-0.1825,-0.4757,0.0598
5205,1027,861,34.467,33.665,0.0226,-0.0114,9.9239,1.0038,0.0823,-0.1049
5210,1025,860,34.389,33.797,-0.0523,-0.1056,9.7866,0.7144,0.598,0.1489
5215,1020,864,34.281,33.823,0.0348,0.0902,9.8742,-0.0257,0.1536,-0.381
5220,1006,855,34.4,33.614,0.0298,0.0608,9.8752,-0.5017,-0.0276,0.9084
5225,1004,855,34.315,33.681,-0.0461,-0.0215,9.8042,0.1348,0.1875,0.1797
5230,1000,853,34.414,33.685,0.0004,0.0135,9.7261,-0.2986,1.0069,-0.9413
5235,998,851,34.39,33.763,-0.0796,0.0586,9.7281,-0.357,-0.0243,-0.9123
5240,984,854,34.294,33.806,0.0068,0.0228,9.7165,0.5461,1.0194,-0.0467
5245,992,856,34.491,33.683,-0.0267,0.001,9.8363,0.1628,0.2088,0.3247
5250,983,841,34.417,33.659,-0.0177,0.1208,9.8243,0.0726,0.7017,0.039
5255,973,850,34.434,33.728,-0.0773,0.0435,9.8505,-0.1542,0.0606,-0.0844
5260,965,847,34.442,33.663,0.0021,-0.0196,9.8126,-0.3713,0.0264,-0.4883
5265,953,840,34.356,33.722,0.068,0.0245,9.7647,-0.2555,0.747,-0.2012
5270,952,842,34.368,33.74,0.0557,-0.0176,9.8984,-0.9824,0.5017,0.6085
5275,948,845,34.494,33.688,0.0365,0.0392,9.7395,0.51,-0.5817,-0.2859
5280,929,843,34.324,33.715,0.0669,-0.0179,9.8273,-0.3831,1.0756,-0.1043
5285,925,837,34.41,33.711,0.0255,-0.0762,9.8196,-0.473,-0.008,0.2657
5290,920,839,34.319,33.75,0.0547,0.1422,9.7634,0.3638,-0.1729,-0.719
5295,918,833,34.269,33.703,0.0063,0.0117,9.8501,-0.7941,-0.4477,-0.2127
5300,904,837,34.428,33.732,-0.0932,-0.0252,9.8047,-0.3187,-0.4391,-1.3472
5305,903,832,34.372,33.697,-0.0648,0.03,9.8073,0.5545,0.0955,-0.4043
5310,880,836,34.353,33.771,0.0509,-0.1026,9.7391,0.1492,0.1204,-0.0546
5315,886,824,34.388,33.739,-0.018,-0.017,9.9134,-0.1329,-0.0399,-1.2274
5320,886,825,34.408,33.723,0.0447,0.072,9.8197,-0.3121,0.169,-0.2548
5325,865,826,34.444,33.71,-0.0612,0.0994,9.7861,0.3147,-0.2032,0.1497
5330,870,820,34.344,33.691,-0.0235,0.0026,9.7628,0.3246,0.9336,-0.3324
5335,851,825,34.347,33.701,-0.0806,-0.0667,9.7802,0.05,-0.4563,-0.3607
5340,844,825,34.265,33.687,0.0112,-0.0163,9.9236,-0.3283,0.0485,-0.1495
5345,839,815,34.349,33.8,0.0069,0.0586,9.8284,0.8507,-0.4026,0.2414
5350,832,811,34.271,33.727,0.0548,0.0536,9.7374,-0.3132,-0.9306,0.7573
5355,828,807,34.399,33.826,0.0133,0.0398,9.8837,0.3875,0.8049,0.1221
5360,810,810,34.358,33.78,-0.0005,0.0266,9.7484,-0.2806,0.3451,-0.037
5365,809,802,34.466,33.713,0.0327,0.0519,9.8046,0.1584,1.4967,-0.667
5370,808,800,34.322,33.79,0.0991,-0.0457,9.74,-0.9836,0.5304,0.1813
5375,800,795,34.343,33.728,0.0016,0.0821,9.8567,-0.0154,0.5295,0.2938
5380,798,795,34.233,33.701,-0.0122,0.152,9.7613,0.5565,0.4091,-0.6316
5385,803,785,34.395,33.709,-0.039,0.0353,9.8484,0.1401,0.319,0.5708
5390,779,786,34.338,33.693,0.0463,0.0071,9.8187,-0.1778,0.4904,0.436
5395,780,780,34.413,33.778,-0.0157,-0.0255,9.8402,0.5844,0.1287,-0.5407
5400,769,778,34.387,33.648,0.0172,0.0193,9.7742,-0.0497,-0.0199,-0.1184
5405,770,774,34.404,33.785,-0.052,0.0651,9.7752,0.8365,0.1183,0.3444
5410,767,766,34.413,33.607,-0.0417,0.0758,9.8033,0.1335,-0.3839,1.3875
5415,767,770,34.292,33.754,0.0184,-0.0568,9.8424,-0.0481,-0.2845,-1.2426
5420,754,756,34.314,33.761,0.0661,-0.016,9.7689,-0.4242,-1.0228,0.4025
5425,754,749,34.369,33.753,0.0198,0.0248,9.7768,-0.4595,0.008,-0.3583
5430,751,747,34.408,33.742,-0.0204,-0.0291,9.7473,-0.4799,-0.0551,-0.1205
5435,751,743,34.309,33.72,-0.0189,0.0743,9.8314,0.7488,-0.6977,-0.2776
5440,746,743,34.306,33.701,0.0093,0.011,9.8431,0.001,-0.5669,-0.0309
5445,745,736,34.275,33.741,-0.0538,0.063,9.8972,0.6724,-0.466,-0.8688
5450,746,729,34.36,33.639,0.0795,-0.0171,9.8713,0.329,-0.1348,0.4397
5455,756,733,34.348,33.743,0.0137,0.0845,9.7569,-0.1773,-0.2544,-0.4487
5460,755,725,34.366,33.706,-0.0465,0.0277,9.8436,0.6231,-0.5438,1.1424
5465,750,716,34.408,33.706,0.0496,0.0159,9.7716,0.0555,-0.0245,0.3653
5470,753,714,34.361,33.749,0.1049,0.0972,9.8698,-0.4755,0.5629,0.1892
5475,749,709,34.326,33.771,-0.0594,0.0238,9.8362,-0.0019,-0.142,0.6663
5480,748,709,34.431,33.753,0.0426,-0.0053,9.754,-0.4546,0.9622,-0.2743
5485,755,700,34.473,33.714,0.0359,0.0105,9.8621,0.3577,0.3079,1.1934
5490,767,695,34.409,33.729,0.0154,0.1011,9.8557,-0.2011,0.1337,0.1673
5495,755,694,34.386,33.743,0.0192,-0.1049,9.8356,0.4234,0.8848,0.207
5500,771,684,34.385,33.698,0.0408,-0.0057,9.8823,-0.2288,0.1933,0.9777
5505,775,691,34.451,33.74,0.0267,-0.0295,9.8106,0.1952,0.1963,-0.5363
5510,777,682,34.358,33.701,0.0587,0.0814,9.8068,-0.5495,-0.1685,-0.423
5515,781,675,34.305,33.737,0.1253,0.0116,9.9403,0.4745,0.6877,-0.9037
5520,792,678,34.413,33.754,-0.0554,0.0204,9.74,0.4859,0.0337,-0.9265
5525,798,669,34.33,33.821,0.0223,-0.0014,9.8505,-0.0458,0.1001,0.4824
5530,803,669,34.358,33.695,0.013,0.0729,9.8253,0.0832,-0.0612,0.5192
5535,809,672,34.529,33.779,-0.0608,-0.0382,9.7584,-0.0595,0.0126,0.2852
5540,814,655,34.421,33.709,-0.0164,-0.0033,9.7898,0.2151,-0.4302,-0.5408
5545,829,656,34.386,33.648,-0.0128,-0.1012,9.8186,0.611,-0.9883,0.5024
5550,831,654,34.457,33.621,0.066,0.0318,9.8702,-0.4173,0.4928,0.0191
5555,840,657,34.321,33.622,-0.0593,0.0371,9.7558,0.7497,-0.4863,-0.4631
5560,862,648,34.478,33.699,0.0916,0.0074,9.8128,0.142,0.3882,-0.8672
5565,855,648,34.472,33.687,0.0252,0.1155,9.7376,0.4702,-0.0837,-0.4627
5570,872,645,34.44,33.842,0.1256,-0.0182,9.7875,0.4146,0.4645,-0.4132
5575,882,645,34.364,33.684,0.0319,0.0142,9.849,-0.008,0.4826,-0.3584
5580,892,647,34.379,33.734,0.0051,0.0064,9.7987,0.1182,0.0509,-0.1445
5585,901,647,34.366,33.683,-0.0764,-0.0448,9.8898,-1.1672,0.375,-0.6771
5590,902,652,34.386,33.678,-0.0089,-0.0123,9.8297,-0.3974,-0.2287,0.5869
5595,921,652,34.409,33.686,0.0062,0.0116,9.8116,-0.1454,-0.9429,-0.3042
5600,931,651,34.422,33.721,-0.0084,0.0127,9.8881,0.284,-0.0848,-0.6385
5605,936,654,34.362,33.714,0.0334,-0.013,9.8881,0.3185,-0.0095,-0.547
5610,949,650,34.406,33.779,0.0085,0.0044,9.8533,-0.0986,-0.1021,0.0683
5615,962,649,34.41,33.563,-0.0105,-0.0699,9.7865,-0.465,-0.4643,0.6253
5620,968,652,34.278,33.718,0.0714,-0.0252,9.9208,-0.379,0.2494,0.3754
5625,984,659,34.338,33.672,-0.0914,-0.0076,9.8274,0.3568,-0.2658,-0.6167
5630,989,653,34.393,33.779,-0.014,0.0046,9.725,-0.1835,0.5853,0.4244
5635,1000,657,34.353,33.752,0.0697,0.009,9.8044,-0.5536,0.8254,-0.1178
5640,1005,665,34.387,33.716,-0.007,0.0512,9.7666,-0.6967,0.5293,-0.4834
5645,1030,667,34.326,33.671,-0.0429,-0.0129,9.8043,-0.4037,-0.4201,0.3212
5650,1028,666,34.355,33.727,0.0995,-0.0813,9.7653,0.1472,-0.2994,0.3234
5655,1039,666,34.405,33.649,-0.0515,0.0915,9.7952,0.4018,0.055,0.9812
5660,1048,666,34.377,33.651,0.024,0.0436,9.8047,0.4049,-0.2237,1.1332
5665,1057,676,34.457,33.743,0.1498,-0.0243,9.781,0.8078,-0.3365,-0.3607
5670,1062,687,34.342,33.699,0.1049,0.0704,9.8157,-0.7289,-0.3367,0.4323
5675,1074,685,34.409,33.74,0.0092,-0.0662,9.8922,0.2797,0.2637,0.4123
5680,1082,692,34.384,33.697,0.0032,0.0007,9.7032,-1.0379,-0.7652,-0.0734
5685,1100,694,34.392,33.755,0.0106,-0.0211,9.7978,-0.3345,0.3983,-0.493
5690,1106,695,34.451,33.672,-0.0364,0.0803,9.8137,-0.5877,0.8174,0.3818
5695,1105,709,34.387,33.804,0.0283,-0.0603,9.7352,-0.2224,-0.0564,0.4012
5700,1112,714,34.306,33.776,-0.0495,0.0377,9.8428,0.4398,-0.1033,-0.1994
5705,1118,719,34.341,33.781,0.0675,-0.0569,9.8544,-0.1413,0.3645,0.3089
5710,1129,721,34.42,33.745,0.1076,0.0508,9.8616,0.6588,0.6096,-0.7745
5715,1142,722,34.471,33.627,-0.0846,0.0432,9.8496,-0.4501,-0.0526,-0.8747
5720,1139,735,34.369,33.714,0.0357,0.0143,9.7891,-0.0091,0.5316,-0.2833
5725,1143,742,34.352,33.671,0.0069,0.0334,9.8533,-1.0295,-0.0762,0.363
5730,1149,739,34.301,33.695,-0.1173,0.1105,9.7179,-0.4073,0.9245,-0.6761
5735,1146,757,34.401,33.734,-0.0282,-0.0562,9.7729,-0.1629,-0.1217,0.5113
5740,1154,756,34.395,33.65,0.013,-0.008,9.8231,-0.3709,-0.3155,-0.1883
5745,1170,765,34.176,33.787,0.0438,-0.0832,9.8532,0.3428,-0.9351,0.2625
5750,1175,765,34.33,33.82,-0.0453,-0.0405,9.8414,0.7877,1.0284,-0.0724
5755,1174,773,34.413,33.782,0.0388,0.0382,9.7346,-0.2789,0.4855,-0.0063
5760,1178,784,34.465,33.698,0.0024,0.0329,9.806,-0.2506,-0.4379,1.054
5765,1180,791,34.356,33.657,0.0238,0.0129,9.8205,0.6908,-0.464,-0.5362
5770,1166,793,34.282,33.814,0.0835,-0.0312,9.8244,0.2685,-0.7076,0.1839
5775,1174,801,34.35,33.642,0.1132,-0.0888,9.7664,-0.485,0.0817,0.2937
5780,1183,807,34.312,33.693,0.002,-0.0392,9.8307,1.0395,-0.2061,-0.1534
5785,1186,813,34.341,33.713,-0.0216,0.014,9.7765,-0.6115,0.107,0.3577
5790,1183,822,34.387,33.789,-0.0289,0.1021,9.7455,0.521,0.4993,0.4259
5795,1186,827,34.349,33.726,-0.0427,0.0503,9.8083,-0.1485,-0.1044,-0.196
5800,1193,837,34.383,33.894,0.0503,0.0814,9.7999,-0.6977,-0.1849,0.768
5805,1193,836,34.333,33.738,-0.057,-0.05,9.8311,-0.1178,0.3098,0.0455
5810,1180,844,34.398,33.716,-0.0126,0.0293,9.7617,0.2847,-1.5894,-0.5108
5815,1190,849,34.419,33.709,-0.0163,0.0146,9.7186,-0.0224,-0.2211,0.3728
5820,1186,850,34.38,33.73,0.0143,-0.0774,9.7905,-0.6154,-0.3735,-0.1347
5825,1177,857,34.396,33.75,-0.028,0.0483,9.8103,-0.502,0.0251,-0.5427
5830,1187,860,34.391,33.775,-0.0458,0.0176,9.7537,0.7062,1.1617,0.6933
5835,1188,868,34.359,33.645,0.0175,-0.0963,9.8241,-0.0211,0.289,1.1588
5840,1182,873,34.47,33.716,0.0205,-0.0289,9.8072,-0.111,-0.1025,0.226
5845,1192,871,34.367,33.668,0.0305,-0.0209,9.7001,0.6641,0.3011,-0.1402
5850,1176,880,34.365,33.701,-0.0212,0.0036,9.796,-0.1932,0.1679,-0.5754
5855,1165,879,34.407,33.625,-0.0227,0.0433,9.7894,0.4644,0.5032,-0.4319
5860,1164,888,34.414,33.751,-0.0296,-0.0175,9.7612,0.2844,0.5841,-0.7832
5865,1175,890,34.385,33.718,0.0437,0.0191,9.7742,0.3637,0.3891,0.1629
5870,1168,897,34.353,33.76,0.0025,0.1167,9.8236,-0.3774,-0.1234,0.2518
5875,1170,894,34.415,33.747,-0.0279,0.048,9.8154,0.1684,-0.1025,-0.2668
5880,1159,904,34.342,33.658,0.0303,-0.0161,9.8416,-0.0673,0.416,0.0401
5885,1171,906,34.386,33.599,-0.054,0.0389,9.8542,0.1835,-0.3724,-0.2811
5890,1160,901,34.395,33.674,0.0247,-0.0361,9.8313,-0.2438,0.4247,0.3034
5895,1146,903,34.446,33.719,0.0586,-0.0309,9.8151,0.1383,-0.5686,0.0079
5900,1140,909,34.406,33.695,0.0967,0.0307,9.7333,0.3594,0.1899,-0.1976
5905,1145,908,34.467,33.784,-0.0221,0.1067,9.7467,-0.0537,0.533,-0.2008
5910,1150,916,34.274,33.733,-0.0333,0.089,9.8391,-0.5301,0.3689,0.1969
5915,1148,910,34.449,33.748,0.0159,-0.0235,9.8469,-0.0534,-0.4799,-1.1455
5920,1147,915,34.49,33.775,-0.0216,-0.0107,9.8189,-0.5508,0.1587,0.6596
5925,1134,907,34.352,33.74,-0.056,0.0209,9.8481,-0.2025,-0.3756,-0.5736
5930,1139,915,34.413,33.701,-0.0292,-0.0863,9.7196,-0.422,-0.7355,-0.523
5935,1130,921,34.364,33.707,0.0012,-0.0014,9.777,0.1893,0.6254,0.4291
5940,1142,911,34.374,33.646,0.0751,-0.1173,9.8244,-0.3412,0.3475,0.5495
5945,1123,915,34.395,33.631,-0.0067,0.0501,9.795,-0.9081,-0.4436,-0.1247
5950,1128,913,34.432,33.778,0.0182,0.0048,9.8341,0.9594,0.0335,-0.1382
5955,1132,911,34.314,33.654,0.0453,-0.0898,9.8154,-0.0171,0.1979,-0.4064
5960,1122,917,34.387,33.679,0.0628,0.0211,9.8091,-0.0306,0.7885,0.6583
5965,1131,910,34.354,33.634,-0.0153,0.0636,9.8515,0.0524,-0.9527,0.1485
5970,1114,908,34.338,33.846,-0.0402,-0.0197,9.8075,-0.888,0.0361,-0.3537
5975,1125,916,34.396,33.708,-0.0494,0.0061,9.7362,-0.6041,0.1818,0.2895
5980,1107,902,34.34,33.777,0.071,0.0248,9.9186,-0.3056,0.6017,-0.0565
5985,1106,907,34.328,33.745,-0.0121,0.0125,9.9112,-0.0922,-1.1915,-0.0973
5990,1112,907,34.361,33.71,0.0249,0.0077,9.7299,-0.2475,-0.4005,0.1332
5995,1106,908,34.428,33.745,0.0275,0.0334,9.7867,-0.3626,1.0801,0.3165
6000,1102,905,34.462,33.694,-0.1063,0.0143,9.7323,-0.4091,0.0058,0.0415
6005,1100,909,34.356,33.719,-0.0817,-0.0546,9.8181,-0.5112,0.2851,-0.1293
6010,1091,900,34.316,33.697,0.0384,0.0325,9.715,0.3102,-0.0469,0.5053
6015,1103,900,34.514,33.74,0.0052,0.0157,9.8204,0.9575,0.1809,0.2973
6020,1099,899,34.345,33.705,-0.0431,0.0657,9.776,-0.5921,-0.5338,-0.2471
6025,1099,895,34.399,33.739,-0.0384,0.0285,9.8848,0.5985,0.4965,-0.9026
6030,1089,892,34.329,33.807,-0.0445,0.0228,9.8168,-0.031,0.0971,-0.4863
6035,1096,888,34.458,33.732,0.0904,-0.0079,9.7894,0.0466,-0.1485,-0.7503
6040,1089,891,34.366,33.761,-0.078,-0.0745,9.806,-0.2337,0.5013,-0.1996
6045,1086,887,34.404,33.728,-0.0525,-0.0051,9.8409,-0.6305,-0.565,0.0931
6050,1084,886,34.314,33.73,0.0105,-0.0644,9.7421,0.8892,-0.0415,-0.1504
6055,1080,885,34.435,33.807,-0.0072,-0.0777,9.821,0.1721,0.2078,-0.8872
6060,1083,878,34.315,33.734,0.0026,0.0598,9.8,0.3873,0.0084,0.6852
6065,1082,882,34.447,33.728,-0.0219,-0.0469,9.9271,-0.1832,-0.4214,-0.3755
6070,1087,880,34.298,33.715,-0.0165,0.0289,9.8145,0.5066,1.2775,0.259
6075,1074,882,34.409,33.765,0.0122,-0.0353,9.7147,-0.0253,0.0672,0.1171
6080,1068,882,34.415,33.794,-0.0042,0.1306,9.7645,0.4096,-1.6374,0.0688
6085,1069,880,34.423,33.766,0.0074,0.0435,9.813,-0.6132,-0.3562,0.5641
6090,1063,874,34.247,33.714,0.0786,0.0502,9.8464,0.8678,-0.1987,0.6084
6095,1058,877,34.414,33.669,-0.0827,0.03,9.819,0.2072,-0.2704,-0.3998
6100,1065,868,34.382,33.7,-0.014,0.0549,9.7685,-0.7572,-0.8796,0.5612
6105,1054,874,34.372,33.698,-0.0567,0.0653,9.8573,0.6392,-0.1401,-0.3686
6110,1066,867,34.449,33.657,0.034,0.0081,9.9292,-0.0301,-1.1892,0.4928
6115,1050,869,34.485,33.667,0.0817,-0.0456,9.8097,0.3028,0.0196,-1.0642
6120,1050,869,34.352,33.779,0.0683,0.0733,9.7512,-0.4291,0.7265,0.0773
6125,1049,866,34.337,33.757,-0.0669,0.002,9.851,-0.1865,-0.4244,0.1848
6130,1047,863,34.376,33.741,0.0569,0.0028,9.7825,-0.7594,0.6945,-0.7655
6135,1038,866,34.371,33.789,-0.0661,0.0545,9.7662,-0.3521,-0.7834,0.2244
6140,1038,864,34.413,33.816,0.0158,0.0558,9.7404,-0.4993,0.1242,-0.5727
6145,1031,857,34.384,33.756,-0.0278,-0.0207,9.7967,0.1627,-1.1867,0.4594
6150,1022,862,34.336,33.76,-0.041,-0.0055,9.7599,-0.0029,0.5617,0.4057
6155,1022,855,34.408,33.773,-0.0206,0.0466,9.7913,0.5775,-0.2851,0.1764
6160,1010,851,34.404,33.653,0.0159,0.0474,9.7967,-1.0607,0.3429,-0.6268
6165,1013,857,34.388,33.718,-0.044,-0.0176,9.8665,0.0601,1.1441,-0.5728
6170,1005,854,34.473,33.69,-0.0081,0.0115,9.9128,-0.5411,1.5605,0.0222
6175,999,853,34.329,33.705,-0.0264,0.0165,9.8542,-1.6883,0.4116,-0.2777
6180,999,857,34.371,33.741,0.0463,-0.0176,9.7721,0.1829,-0.1531,0.0788
6185,980,850,34.44,33.705,-0.0209,0.0497,9.804,0.3008,-0.4565,0.7777
6190,982,853,34.433,33.757,0.0469,-0.0656,9.8404,-0.56,-0.4019,0.3053
6195,972,848,34.324,33.736,-0.0194,-0.0164,9.8071,-0.1878,-0.7166,0.273
6200,963,847,34.37,33.795,-0.0097,-0.0123,9.8575,0.2543,-0.0945,-0.2504
6205,956,846,34.385,33.712,0.0448,0.0335,9.7282,0.7762,0.0657,0.7888
6210,965,848,34.296,33.787,0.0235,0.0517,9.6985,-0.8441,-0.6684,-0.2928
6215,942,847,34.396,33.849,-0.0561,0.0026,9.799,0.4075,-0.2862,-0.1932
6220,939,842,34.371,33.77,-0.0105,0.0249,9.7898,0.6183,-0.2888,-0.1703
6225,923,839,34.375,33.761,0.1523,0.0848,9.8238,-0.079,-0.6929,0.3686
6230,927,837,34.46,33.738,0.0307,-0.0018,9.8045,0.7467,-0.5088,0.71
6235,914,838,34.455,33.729,-0.0315,-0.075,9.8099,-0.3,-0.0899,-0.0378
6240,907,839,34.291,33.714,-0.041,-0.1081,9.8208,-0.008,-1.1669,-0.2598
6245,894,834,34.363,33.689,-0.0104,0.0166,9.9043,0.6139,-0.2379,0.5073
6250,904,836,34.345,33.727,-0.0168,0.0065,9.7839,-0.1142,0.6312,-0.5754
6255,885,833,34.375,33.727,0.0129,0.0084,9.8421,0.814,-0.239,-0.5152
6260,881,833,34.46,33.66,0.0606,-0.0533,9.7545,0.2254,0.0736,-0.4655
6265,875,828,34.355,33.707,0.0246,0.039,9.7667,0.337,-0.0957,-0.0371
6270,868,825,34.39,33.695,0.0609,-0.091,9.7836,0.2172,-0.2847,-0.298
6275,851,818,34.329,33.665,0.0128,0.027,9.8733,0.4331,0.02,0.1468
6280,850,819,34.446,33.765,-0.0392,0.0342,9.8435,0.3659,-0.5637,0.033
6285,842,819,34.329,33.727,0.0767,-0.0397,9.7506,-0.5912,-0.3556,0.5315
6290,823,815,34.352,33.662,0.035,0.0502,9.787,1.0139,-0.6403,0.4199
6295,822,815,34.482,33.757,-0.0047,0.0343,9.8141,-0.8421,0.3346,-1.4603
6300,819,804,34.37,33.743,-0.0318,0.0118,9.8005,0.3148,-0.506,-0.2133
6305,816,805,34.275,33.626,0.0244,-0.0306,9.8832,-0.2698,-0.0248,-0.5453
6310,813,806,34.328,33.76,-0.0425,-0.0069,9.7367,-0.5557,0.6078,-0.2
6315,806,796,34.365,33.69,0.0142,-0.0131,9.8806,-0.2644,-0.2816,0.0822
6320,803,792,34.413,33.73,-0.0111,0.0101,9.7638,0.8388,-0.3263,0.0234
6325,788,789,34.38,33.669,-0.0135,-0.0147,9.7648,0.1562,-0.1301,0.1243
6330,782,787,34.379,33.787,0.0518,0.0606,9.7574,0.3576,0.1458,0.0165
6335,773,782,34.336,33.749,0.104,-0.0957,9.8976,-0.1814,0.7075,0.0524
6340,766,780,34.457,33.702,-0.0014,0.1003,9.7546,0.1387,-0.5585,-0.2475
6345,762,771,34.331,33.651,0.0268,-0.0191,9.8257,-0.0399,-0.1806,0.3753
6350,765,769,34.371,33.708,-0.0528,0.0404,9.7709,0.5135,0.099,-0.7175
6355,762,764,34.46,33.722,0.0487,-0.0578,9.7983,-1.1964,0.5572,0.0127
6360,766,767,34.313,33.692,-0.026,-0.0015,9.8525,-0.0065,0.6255,0.0405
6365,760,755,34.414,33.753,0.0731,0.0284,9.7546,0.5453,-0.1463,0.6451
6370,758,748,34.397,33.819,-0.026,-0.0583,9.809,-0.2053,-0.5507,-0.5564
6375,750,748,34.36,33.822,-0.0694,0.0568,9.8691,-0.1783,0.3428,-0.1706
6380,748,746,34.399,33.655,-0.0378,0.0111,9.7637,0.8783,0.4324,-0.0143
6385,748,744,34.337,33.735,-0.0681,0.072,9.8305,0.2544,0.2909,0.1821
6390,748,734,34.331,33.787,-0.0506,0.0519,9.8698,1.465,-0.0885,-0.5197
6395,739,722,34.455,33.733,-0.0281,0.0441,9.8359,0.6103,0.0511,-0.0549
6400,750,729,34.386,33.761,-0.0253,-0.0618,9.7463,-0.4979,0.4935,0.0637
6405,754,719,34.389,33.748,0.0309,-0.0196,9.8962,-0.5332,-0.4742,-0.0018
6410,744,715,34.399,33.754,-0.0921,0.0235,9.7796,0.1249,-0.7597,-0.3979
6415,756,711,34.39,33.746,-0.0737,-0.133,9.6968,-0.2066,0.2375,-0.4283
6420,752,710,34.449,33.713,0.0182,0.0142,9.7608,-0.1846,-0.1362,-0.7486
6425,763,706,34.381,33.649,0.0104,0.0557,9.864,-0.7079,-0.4634,-0.3471
6430,758,697,34.435,33.714,0.0129,-0.0377,9.7554,-0.9347,-0.361,-0.2408
6435,762,696,34.343,33.692,-0.0008,0.1112,9.7756,0.0027,0.1414,0.0563
6440,768,687,34.373,33.752,-0.028,-0.0058,9.8464,0.8796,-0.333,0.9371
6445,777,690,34.443,33.739,0.1209,0.0076,9.8057,0.0711,0.076,0.2442
6450,775,678,34.33,33.765,0.0097,-0.0218,9.7423,0.0734,0.9932,-0.2069
6455,778,676,34.359,33.643,-0.0241,0.0439,9.8154,-0.8838,-0.3973,-0.4008
6460,779,678,34.334,33.743,0.0063,0.0511,9.7019,0.1055,0.3067,0.2658
6465,794,677,34.48,33.768,0.0429,-0.0201,9.8181,0.5801,0.1378,-0.6517
6470,807,670,34.42,33.813,0.0197,-0.0417,9.7369,-0.6102,0.0635,0.0783
6475,794,669,34.386,33.691,-0.1016,0.0212,9.8147,0.0603,0.0565,0.5592
6480,817,662,34.369,33.765,0.0128,-0.0052,9.832,0.4507,0.3145,-0.0659
6485,825,667,34.441,33.8,-0.0567,0.021,9.8417,0.945,0.7457,-0.5176
6490,816,655,34.367,33.733,-0.0006,0.0568,9.7888,0.3171,0.1773,0.2544
6495,838,650,34.447,33.692,-0.0503,0.0469,9.864,0.2266,-0.6266,0.4467
6500,847,656,34.434,33.663,0.0001,-0.0126,9.8305,-0.3222,0.5854,-0.4489
6505,850,650,34.476,33.709,-0.0226,0.007,9.8093,-0.0078,0.0492,-0.9003
6510,873,655,34.374,33.726,0.049,0.0309,9.8151,-0.508,-0.5166,0.1665
6515,876,650,34.458,33.677,-0.0084,-0.0209,9.9315,0.5306,-0.8728,0.8995
6520,878,651,34.435,33.731,-0.1253,0.0514,9.8083,0.4367,-0.5972,-0.7544
6525,891,651,34.42,33.753,0.105,-0.0593,9.8066,0.0127,0.0519,-0.7481
6530,897,648,34.351,33.71,0.019,0.0788,9.84,0.5687,0.3203,1.1397
6535,908,650,34.393,33.762,-0.0178,0.0781,9.7727,0.3517,0.4479,-0.1163
6540,923,652,34.462,33.751,0.0751,-0.088,9.8459,-0.49,1.1105,0.1667
6545,936,645,34.376,33.774,0.038,-0.0112,9.7754,0.3247,0.4818,1.0008
6550,947,649,34.562,33.622,0.0105,0.0686,9.7431,0.1606,0.1343,-0.9243
6555,948,649,34.377,33.786,-0.0671,0.076,9.8503,0.2446,0.015,-0.7875
6560,965,650,34.345,33.715,-0.0016,0.0163,9.7842,-0.7644,0.1723,-0.3887
6565,972,656,34.379,33.743,0.0052,-0.0451,9.7611,-0.3705,-0.4469,-0.6907
6570,980,658,34.395,33.755,-0.039,0.0148,9.7064,-0.7352,0.3502,0.1735
6575,989,651,34.409,33.77,-0.0414,0.0159,9.7367,-0.5207,-0.0421,-0.0792
6580,1010,663,34.382,33.696,-0.0257,0.0792,9.9357,-0.1264,-0.2608,0.0407
6585,1019,660,34.335,33.741,0.0402,-0.0162,9.8807,-0.0427,0.234,-0.8937
6590,1025,669,34.353,33.79,0.0241,0.0175,9.8849,-0.5857,-0.232,0.4135
6595,1037,664,34.406,33.893,0.0118,0.132,9.8555,0.1695,0.9988,1.5919
6600,1040,670,34.46,33.808,-0.0304,-0.0363,9.8245,0.4824,0.3804,0.4121
6605,1053,671,34.307,33.763,0.0667,-0.071,9.7315,-0.3511,0.716,0.2035
6610,1061,678,34.398,33.775,0.0315,-0.0668,9.8909,-0.417,0.5391,-0.7196
6615,1066,679,34.321,33.699,-0.0483,-0.0229,9.7584,-0.2868,0.1261,0.4452
6620,1078,685,34.332,33.709,0.0332,-0.069,9.7904,0.4858,0.5018,-0.1379
6625,1078,691,34.406,33.688,-0.0274,0.0261,9.7248,0.575,-0.1086,-0.0007
6630,1098,696,34.441,33.659,-0.0213,-0.0204,9.8669,-0.0575,-0.4097,0.0962
6635,1105,703,34.404,33.751,0.0483,0.0476,9.781,-0.5467,-0.1948,-0.2627
6640,1111,705,34.352,33.717,0.0873,0.0452,9.8765,-0.9616,-0.4906,-0.0655
6645,1119,715,34.426,33.74,-0.0068,-0.0639,9.9019,0.4065,-0.2868,0.285
6650,1120,719,34.386,33.764,0.0194,0.0274,9.775,-0.3825,-0.2394,-0.2428
6655,1137,728,34.387,33.824,0.0308,-0.1041,9.7762,0.4494,0.5951,0.395
6660,1139,726,34.389,33.709,0.0744,-0.0477,9.724,0.3753,-0.7654,-0.8401
6665,1144,741,34.297,33.672,0.0582,0.033,9.8547,0.2831,0.039,-0.0981
6670,1149,742,34.419,33.723,0.1255,-0.0912,9.7772,-0.0253,-0.0446,-0.2134
6675,1157,745,34.408,33.738,0.0518,0.0671,9.8002,-0.1987,-0.1765,0.4291
6680,1152,752,34.516,33.751,0.0399,0.0178,9.7502,-0.4113,0.0962,0.5636
6685,1159,759,34.424,33.74,0.0326,-0.0264,9.6831,-0.9842,-0.0394,-0.3917
6690,1166,770,34.296,33.731,0.022,-0.0844,9.8396,0.0435,0.4463,-0.1944
6695,1165,772,34.299,33.793,0.0041,-0.0473,9.7693,-0.4148,0.7466,-0.5878
6700,1173,774,34.441,33.74,0.1161,-0.0309,9.9147,0.1629,-0.0378,-0.5899
6705,1182,780,34.322,33.672,-0.0403,0.0888,9.7139,0.2642,-0.4168,-0.4805
6710,1177,789,34.415,33.723,0.0097,0.0963,9.8402,0.4283,1.082,0.793
6715,1189,798,34.345,33.751,-0.0266,0.0472,9.88,0.3868,0.7093,-0.7832
6720,1181,799,34.259,33.635,-0.0605,-0.0393,9.8276,0.1426,0.0131,0.3474
6725,1184,805,34.366,33.71,0.0486,0.0319,9.7728,-0.2284,-0.6528,0.0272
6730,1194,814,34.351,33.794,-0.0238,0.0129,9.8261,0.0539,1.0782,-0.8723
6735,1189,820,34.417,33.664,0.0838,-0.0148,9.859,-0.5961,0.1053,-0.0953
6740,1192,828,34.406,33.704,0.0038,-0.0403,9.8428,-0.1877,0.6835,-0.2957
6745,1196,833,34.34,33.734,-0.0456,-0.0473,9.8181,-0.3794,0.0123,-0.2546
6750,1189,839,34.366,33.742,-0.0607,0.0339,9.8579,-0.0475,0.6626,0.7545
6755,1190,850,34.297,33.721,-0.0125,-0.0299,9.8903,0.1269,0.6942,-0.1514
6760,1190,852,34.424,33.679,0.0413,-0.0534,9.8691,-1.066,0.0779,-0.5693
6765,1186,861,34.36,33.721,0.0026,0.0173,9.8081,0.4326,0.0002,-0.8716
6770,1185,856,34.365,33.662,-0.0621,-0.051,9.7595,0.4879,0.1793,-0.5017
6775,1182,857,34.461,33.787,0.0401,0.0434,9.7865,0.4826,-0.1774,-1.2847
6780,1181,870,34.458,33.675,0.0301,0.0322,9.8016,0.148,-0.7308,0.3612
6785,1184,868,34.409,33.677,-0.0675,-0.0282,9.7616,-0.5861,-0.0098,-0.8435
6790,1180,879,34.315,33.683,0.0342,0.0135,9.8686,-0.6368,0.4362,0.8042
6795,1177,881,34.464,33.639,0.049,-0.048,9.8664,0.3828,0.1973,-0.0612
6800,1174,884,34.413,33.724,-0.0435,0.0354,9.7822,0.3598,0.0371,0.1454
6805,1175,887,34.305,33.773,0.0016,-0.0781,9.8289,1.1461,-0.2236,-0.4418
6810,1168,888,34.364,33.754,-0.0292,0.0184,9.8965,-0.4888,0.2893,-1.0801
6815,1163,892,34.417,33.691,-0.1165,0.0052,9.8213,-0.032,-0.4197,-0.1683
6820,1170,892,34.45,33.759,0.0913,0.0033,9.7737,-0.062,0.2812,-0.4507
6825,1160,902,34.327,33.755,-0.0805,-0.05,9.7484,-0.335,-0.5158,0.5323
6830,1156,897,34.427,33.742,-0.0336,0.0385,9.8998,0.3732,0.4438,-0.1304
6835,1156,907,34.378,33.817,-0.0101,-0.0434,9.8228,-0.8356,0.2177,0.5266
6840,1161,906,34.41,33.773,-0.0326,-0.0419,9.8892,-0.346,-0.1091,0.6204
6845,1149,913,34.38,33.755,0.0281,-0.0066,9.8462,0.7319,0.5031,-1.1918
6850,1154,911,34.325,33.802,-0.0037,0.1226,9.8481,-0.0491,-0.4469,0.4926
6855,1158,910,34.366,33.729,0.0019,0.0576,9.8356,0.9608,0.3163,-0.2816
6860,1140,914,34.298,33.73,0.0087,-0.0119,9.7734,0.1634,0.2736,-0.9162
6865,1141,909,34.399,33.745,-0.0456,-0.0315,9.9011,-0.3492,0.4339,0.5856
6870,1134,918,34.441,33.778,0.0509,-0.026,9.8359,-0.0918,0.9569,0.0373
6875,1134,915,34.52,33.724,0.0121,0.0554,9.8003,0.2976,-0.0326,-0.23
6880,1124,915,34.371,33.737,0.0029,0.0184,9.8116,0.7417,-0.3381,0.2521
6885,1129,914,34.45,33.733,-0.0352,0.0601,9.7789,-0.2248,0.5888,1.5287
6890,1133,914,34.362,33.743,-0.0005,0.0265,9.8104,-0.3721,0.6233,0.9685
6895,1114,913,34.439,33.646,-0.0876,0.0449,9.7651,-1.1444,0.2519,0.5655
6900,1120,911,34.382,33.758,0.0222,-0.0406,9.7955,-0.6057,-0.7227,0.0829
6905,1116,913,34.433,33.772,0.0616,-0.0755,9.8658,-0.1667,-0.345,-0.4529
6910,1120,905,34.316,33.68,-0.0494,0.053,9.7736,1.0845,0.2787,-0.1845
6915,1117,912,34.358,33.866,0.0985,0.0323,9.8261,1.2755,0.1458,0.1354
6920,1119,914,34.366,33.711,0.0366,0.0219,9.8814,0.6453,0.2806,-0.8102
6925,1109,910,34.36,33.693,-0.067,-0.0349,9.8448,-0.4905,-0.5087,0.1903
6930,1115,910,34.476,33.697,0.035,-0.0729,9.8058,-0.0542,-0.6722,-0.0665
6935,1107,902,34.515,33.718,0.0272,-0.0137,9.791,-0.5868,-0.6014,0.4251
6940,1098,903,34.325,33.774,-0.042,-0.0248,9.8268,0.5612,1.2141,-0.1232
6945,1104,903,34.319,33.737,0.1415,0.0605,9.8726,-1.1696,-0.0463,-0.9761
6950,1105,901,34.449,33.832,-0.027,-0.1107,9.8156,-0.1162,-0.0881,0.0212
6955,1110,899,34.426,33.696,-0.0283,0.0114,9.7782,0.558,0.4255,0.3538
6960,1092,904,34.498,33.758,0.1045,0.0399,9.7921,0.1138,-0.6988,-0.4169
6965,1093,897,34.441,33.711,-0.0278,0.0478,9.7547,0.4395,-0.7359,-0.16
6970,1092,896,34.366,33.711,-0.0215,0.0284,9.812,0.3258,0.8795,0.2336
6975,1101,894,34.429,33.737,-0.0094,0.0051,9.7678,-0.1507,0.2159,0.0624
6980,1084,895,34.355,33.675,0.002,-0.0773,9.825,0.6303,0.255,0.2304
6985,1088,889,34.318,33.745,-0.067,0.0016,9.8505,1.0261,0.2156,0.0668
6990,1088,892,34.35,33.804,0.0212,0.0283,9.8235,1.0601,1.4185,0.4909
6995,1083,887,34.492,33.634,0.0421,-0.0658,9.7283,0.1161,0.048,0.3641
7000,1082,884,34.335,33.817,0.0136,-0.0989,9.8267,-0.2223,-0.1947,0.212
7005,1080,885,34.371,33.74,-0.0134,-0.0103,9.8273,-0.4684,0.3386,0.1473
7010,1086,885,34.488,33.782,-0.038,0.1061,9.8056,0.1937,-0.7319,0.6197
7015,1076,881,34.368,33.737,-0.0297,-0.0937,9.7858,0.1352,-0.5196,0.6145
7020,1072,879,34.432,33.637,-0.0286,0.0125,9.83,0.0172,0.7173,0.4629
7025,1072,878,34.392,33.708,0.0156,0.0196,9.7752,-0.0299,0.5456,-0.5393
7030,1069,869,34.36,33.635,-0.0125,0.0305,9.8254,1.4476,0.1578,-0.9696
7035,1055,872,34.389,33.882,0.0109,-0.022,9.835,0.3711,0.2191,0.8228
7040,1062,875,34.422,33.626,0.0107,0.0177,9.7567,-0.2216,0.0624,0.8578
7045,1062,871,34.404,33.754,0.0258,-0.1026,9.7597,-0.1781,-0.2054,0.8834
7050,1058,865,34.445,33.73,0.0275,-0.0398,9.8534,-0.2319,0.5377,0.4861
7055,1052,865,34.353,33.795,-0.0268,0.0092,9.8631,-0.1209,-0.5946,0.5401
7060,1055,865,34.507,33.702,-0.0338,-0.0199,9.8151,-0.3652,0.0222,0.4768
7065,1041,862,34.362,33.806,0.0213,-0.0711,9.8224,0.1727,-0.694,-0.5642
7070,1045,865,34.392,33.78,0.0697,0.0716,9.8674,0.129,-0.1438,-0.7535
7075,1044,865,34.446,33.828,-0.0142,0.0592,9.8419,0.7877,0.1185,0.2288
7080,1048,865,34.347,33.724,-0.0438,0.033,9.7637,-0.0268,-0.0917,-0.6843
7085,1034,863,34.409,33.708,0.0279,-0.0069,9.8292,0.5156,0.8439,0.1978
7090,1024,862,34.423,33.799,-0.0146,-0.0959,9.7672,0.6128,-0.8075,0.4124
7095,1024,862,34.372,33.712,-0.0101,0.093,9.8389,-1.1539,-1.1753,0.2371
7100,1015,860,34.46,33.756,0.0317,-0.004,9.8406,0.6941,0.693,-0.2348
7105,1022,855,34.391,33.775,0.0426,0.0268,9.7818,0.5114,0.5382,0.3425
7110,1006,858,34.454,33.653,0.0606,0.0398,9.8356,0.6216,-0.0751,0.3713
7115,1003,858,34.407,33.747,0.0344,0.0027,9.7947,0.4346,0.1218,0.4582
7120,1001,852,34.353,33.763,-0.0329,0.0294,9.763,0.277,0.4118,0.5445
7125,990,851,34.41,33.725,0.0696,-0.0717,9.7741,-0.7045,0.3146,0.2064
7130,984,855,34.365,33.777,0.0546,-0.0055,9.8148,0.1431,-0.3077,0.0296
7135,981,852,34.415,33.748,-0.042,0.0353,9.7887,-0.1396,-0.417,-0.021
7140,974,854,34.385,33.741,-0.0444,0.0205,9.7658,-0.0632,-0.74,-0.3275
7145,960,850,34.511,33.839,-0.0436,-0.0072,9.8933,0.3442,0.0316,-0.1969
7150,953,847,34.407,33.842,0.0527,-0.0414,9.7893,0.1233,0.4556,-0.19
7155,957,849,34.393,33.698,0.1039,0.0411,9.8531,-0.6349,0.5365,-0.3883
7160,944,844,34.457,33.706,-0.0179,0.0492,9.7533,-0.0421,0.4161,0.0108
7165,940,842,34.409,33.721,0.0517,-0.0666,9.824,0.1416,-0.1136,0.0923
7170,932,838,34.441,33.659,0.0831,0.0025,9.7937,0.3748,0.2173,-0.5849
7175,933,837,34.371,33.795,0.0468,-0.0095,9.7182,0.1726,-0.1172,-1.3506
7180,915,838,34.501,33.749,0.0472,-0.0132,9.7754,-0.382,-0.6552,-0.4269
7185,915,833,34.349,33.768,-0.0158,-0.0316,9.8469,-0.6403,-0.0796,0.0398
7190,901,830,34.329,33.747,0.0013,0.0189,9.7896,0.4974,0.0384,-0.972
7195,887,827,34.382,33.702,-0.0563,-0.0505,9.7462,0.3013,-0.2255,0.0184
7200,886,828,34.457,33.729,0.0434,0.0382,9.8086,0.8945,0.5219,0.4021
7205,882,827,34.377,33.738,0.0308,0.0173,9.8594,-0.8155,0.3841,-0.6235
7210,871,828,34.403,33.743,0.0651,0.0516,9.798,0.4025,0.6783,-0.4466
7215,875,820,34.417,33.701,-0.035,0.0979,9.8611,-0.1483,-0.9528,0.1032
7220,846,825,34.497,33.722,0.0799,0.0264,9.7318,0.2425,-0.2099,-0.5325
7225,854,822,34.455,33.828,0.0321,-0.0194,9.7083,-1.1189,-0.5697,-0.0733
7230,841,813,34.416,33.725,0.0476,0.0286,9.7739,-0.3747,-0.1318,-0.4796
7235,837,810,34.428,33.845,-0.0035,0.0304,9.8345,0.049,0.4339,-0.4949
7240,821,806,34.379,33.799,-0.006,-0.0464,9.8059,0.0222,-0.21,-0.1273
7245,819,812,34.411,33.742,0.0303,0.0393,9.7234,-0.4886,1.0778,0.3661
7250,816,806,34.322,33.789,0.0226,-0.0029,9.7254,0.6115,0.294,0.1642
7255,807,801,34.377,33.738,-0.0282,0.0153,9.7934,-0.7144,0.2638,-0.1147
7260,802,799,34.504,33.746,0.0593,-0.0194,9.8629,-0.2492,0.8013,-0.0659
7265,790,788,34.375,33.755,0.0341,-0.0002,9.814,-0.435,-0.2421,1.2222
7270,786,790,34.377,33.692,-0.0122,0.001,9.9068,0.7666,-0.0189,0.1064
7275,784,784,34.48,33.772,-0.0586,-0.1033,9.8402,0.146,-0.2005,-0.3941
7280,777,787,34.355,33.807,0.0043,-0.0417,9.8309,0.2436,0.2781,0.1314
7285,776,774,34.433,33.617,-0.1117,-0.0727,9.8228,-0.6464,-0.4487,0.1448
7290,764,774,34.375,33.72,0.0394,0.0215,9.7856,0.8313,0.1256,-0.2349
7295,764,769,34.39,33.741,0.1222,0.0265,9.8631,-0.695,-0.0086,0.1673
7300,769,769,34.36,33.758,-0.0326,-0.0047,9.8133,0.6403,-0.3033,0.9247
7305,765,762,34.443,33.717,-0.0399,0.0166,9.7964,0.2854,0.4243,-1.1647
7310,748,757,34.41,33.648,-0.0003,0.0655,9.8248,0.2546,0.3496,-0.1483
7315,750,753,34.366,33.791,-0.0316,-0.0181,9.7999,-0.1386,-0.1056,-1.232
7320,739,752,34.368,33.832,-0.0148,-0.0016,9.7606,0.6444,-0.2985,-0.1148
7325,755,748,34.383,33.717,-0.0508,0.0284,9.8615,0.0526,-0.2009,-0.8835
7330,747,734,34.452,33.768,0.0666,0.0592,9.8289,0.0166,0.1827,-0.6152
7335,755,732,34.377,33.704,-0.0032,-0.0461,9.8363,0.4808,0.0801,0.3022
7340,734,727,34.496,33.682,0.0016,-0.0498,9.7542,-0.4531,0.1924,-0.0643
7345,747,719,34.438,33.76,-0.0897,0.0532,9.8483,0.6548,-0.2956,0.7928
7350,744,722,34.374,33.659,-0.0494,-0.1274,9.8297,-0.4844,0.6035,0.5278
7355,741,713,34.332,33.683,-0.0013,-0.0102,9.8913,-0.8083,0.925,1.2475
7360,748,709,34.403,33.683,-0.046,-0.0469,9.7862,-0.6365,-0.1539,-0.5589
7365,758,707,34.363,33.676,-0.0459,0.0152,9.7983,0.2089,-0.1516,0.7941
7370,760,700,34.365,33.731,0.0314,0.0334,9.8104,-0.0439,0.3556,-0.0913
7375,757,703,34.409,33.829,-0.0452,-0.0204,9.8622,-0.5998,-0.4475,-0.3626
7380,758,700,34.437,33.702,0.0143,0.0951,9.8128,-0.2919,0.6416,-1.1913
7385,772,690,34.458,33.806,0.0599,-0.0592,9.7809,-0.0304,0.4158,1.0597
7390,776,684,34.437,33.713,-0.0582,-0.0004,9.8498,-0.468,0.0402,-0.5282
7395,781,683,34.431,33.706,0.0575,0.0521,9.8867,0.5006,0.2816,-0.3136
7400,784,677,34.377,33.682,-0.0356,-0.0756,9.7886,-0.427,-0.2148,-0.1342
7405,795,681,34.337,33.821,-0.0146,-0.0129,9.7958,-0.2932,0.5396,-0.4368
7410,795,673,34.402,33.698,-0.0861,0.1623,9.8116,-0.8539,-0.2452,0.0244
7415,795,665,34.256,33.779,0.0327,0.0246,9.7814,-0.3128,-0.2095,-0.1312
7420,806,667,34.507,33.754,-0.0196,-0.0103,9.8052,0.6493,-0.6129,-0.2246
7425,826,660,34.366,33.848,0.0084,-0.0576,9.8483,-0.251,0.2108,-0.465
7430,828,659,34.457,33.77,0.0625,0.0242,9.7345,-0.6324,-0.6012,0.0682
7435,829,666,34.465,33.782,-0.1027,0.0169,9.8179,-0.047,-0.1397,0.3638
7440,844,657,34.484,33.744,-0.0039,0.0942,9.8571,0.0525,-0.451,0.8018
7445,851,652,34.349,33.748,0.0366,-0.0557,9.8989,-0.2465,-0.27,-0.0919
7450,847,652,34.365,33.715,0.0204,-0.0258,9.8122,0.626,-0.1757,-0.4674
7455,858,650,34.367,33.746,-0.064,0.0635,9.8575,0.4183,-0.0365,0.9858
7460,881,646,34.443,33.788,0.0575,-0.0466,9.8494,-0.6756,-0.5976,-1.0242
7465,883,646,34.366,33.727,-0.0014,0.0042,9.7151,-0.2803,0.5537,-0.1374
7470,894,642,34.344,33.674,-0.0146,0.0608,9.7441,-0.7637,-0.2945,-0.0091
7475,906,645,34.481,33.864,0.0609,-0.0169,9.8271,-0.073,0.3052,0.1635
7480,920,651,34.418,33.762,0.0033,-0.0191,9.8227,-0.7547,-0.0501,0.4068
7485,929,646,34.401,33.663,-0.0248,-0.1362,9.8164,0.3552,0.1177,-0.6516
7490,933,645,34.362,33.758,0.0382,-0.0089,9.7373,-0.1503,-0.1316,0.3263
7495,946,651,34.398,33.689,-0.1048,-0.0205,9.7923,0.2339,-0.1324,-0.6555
7500,957,650,34.433,33.656,0.0175,0.0322,9.8496,0.9463,0.5452,-0.1694
7505,965,651,34.446,33.754,-0.0005,0.0304,9.7617,-0.0732,0.9035,-0.2406
7510,975,647,34.4,33.734,0.0607,-0.0296,9.835,0.3377,0.0209,-0.0433
7515,989,659,34.337,33.712,-0.1145,0.0584,9.8829,-0.3188,-0.4938,-0.5195
7520,995,663,34.399,33.74,0.0471,-0.0373,9.8704,-1.3529,1.8663,0.2727
7525,1008,657,34.352,33.755,-0.0397,-0.0039,9.8581,0.4672,-0.5645,-0.429
7530,1018,662,34.407,33.713,-0.0176,-0.0587,9.7244,0.1346,-0.0237,-0.0749
7535,1022,667,34.461,33.744,-0.0493,-0.0285,9.8669,0.2975,-0.3936,0.8083
7540,1037,669,34.487,33.701,0.0251,-0.0087,9.8175,0.1581,-0.0473,-0.4553
7545,1044,679,34.355,33.7,-0.0225,0.068,9.7753,-0.4776,0.3372,0.8051
7550,1053,673,34.383,33.825,0.0059,0.0199,9.7552,-0.3826,-0.73,-0.3797
7555,1070,687,34.309,33.754,-0.075,0.0631,9.8415,-1.1898,-0.4474,0.8448
7560,1072,688,34.333,33.664,-0.0796,-0.0376,9.9058,-0.4511,0.5302,-0.2515
7565,1078,692,34.384,33.809,0.026,-0.0118,9.7708,0.1004,-0.2268,-0.0454
7570,1093,694,34.346,33.709,-0.0223,0.0027,9.8113,0.0771,0.7276,-0.4442
7575,1102,693,34.4,33.751,-0.0447,0.0588,9.8255,-0.6477,-0.6448,0.6801
7580,1103,699,34.389,33.742,-0.0313,-0.0145,9.8317,0.3078,0.3857,-0.1012
7585,1117,715,34.386,33.753,-0.1081,-0.0657,9.7602,0.7045,-0.1754,0.4796
7590,1121,716,34.425,33.756,0.0724,-0.0419,9.7325,-0.3602,0.246,-0.0607
7595,1126,722,34.447,33.664,-0.1503,0.0506,9.8784,-0.1697,0.3471,-0.0122
7600,1137,726,34.496,33.71,-0.0175,0.0243,9.8617,-0.0613,-0.1526,0.6382
7605,1136,736,34.416,33.689,0.1099,-0.037,9.7599,0.2308,-0.244,0.4091
7610,1137,746,34.394,33.732,0.0282,0.0673,9.9125,-0.404,-0.1171,0.2974
7615,1140,737,34.357,33.735,0.0022,0.0149,9.7465,-1.1288,0.6577,0.2083
7620,1160,747,34.431,33.692,-0.0028,-0.1133,9.8263,0.8316,-0.0332,-0.2693
7625,1157,761,34.319,33.713,0.0171,0.0034,9.716,-0.3394,0.7997,0.1867
7630,1167,760,34.382,33.709,0.0586,0.0074,9.8453,-0.5768,0.1054,0.5451
7635,1157,769,34.491,33.8,0.0111,0.0486,9.6921,-0.8652,0.3672,-0.2101
7640,1176,770,34.403,33.664,-0.0133,-0.0483,9.8178,0.4558,-0.2286,-0.986
7645,1178,784,34.42,33.726,0.0243,-0.0552,9.8011,-0.3232,-0.4378,0.732
7650,1171,791,34.45,33.792,-0.0304,0.0451,9.8244,0.2987,0.0345,-0.1956
7655,1176,795,34.458,33.758,0.0346,0.0104,9.7947,0.0322,-0.1475,0.7944
7660,1184,795,34.374,33.714,0.0252,-0.0269,9.8027,0.4708,-0.4055,0.6832
7665,1181,804,34.411,33.736,0.0014,0.0376,9.7852,0.4858,0.7317,-0.6473
7670,1187,812,34.387,33.678,-0.049,0.0436,9.745,0.4222,-0.9131,0.0919
7675,1187,816,34.436,33.796,0.0962,0.0451,9.8847,0.4676,0.8377,0.3779
7680,1185,826,34.446,33.794,-0.0348,-0.03,9.8479,0.7634,0.2319,0.6156
7685,1186,829,34.379,33.769,-0.024,0.0428,9.7691,-0.5667,0.5455,-0.3003
7690,1188,833,34.347,33.687,-0.0118,-0.0255,9.7675,0.5839,0.2343,0.1226
7695,1184,836,34.35,33.737,0.0869,-0.0087,9.8464,-0.6512,-0.4154,0.6447
7700,1187,846,34.428,33.624,-0.0303,0.0906,9.8871,-0.884,-0.6603,-0.0879
7705,1186,848,34.447,33.703,0.0671,0.0859,9.8054,-0.1498,-0.423,-0.0483
7710,1176,854,34.437,33.744,-0.0558,-0.0558,9.8095,0.5229,-0.357,-0.8292
7715,1186,858,34.362,33.695,0.033,0.0685,9.8294,0.2279,-0.2441,0.2364
7720,1181,866,34.31,33.83,0.051,0.0097,9.7674,-0.1224,0.5353,-0.1161
7725,1175,872,34.405,33.683,-0.006,0.02,9.8005,-0.3011,0.592,-0.01
7730,1184,881,34.451,33.741,0.059,0.0088,9.7586,0.5544,-0.7785,0.0542
7735,1174,873,34.387,33.812,-0.0184,-0.0559,9.8017,0.7822,-0.1452,0.3162
7740,1180,885,34.464,33.787,0.0493,-0.0326,9.8085,-0.003,-0.4415,0.5776
7745,1170,886,34.369,33.785,0.0232,-0.1002,9.8207,0.1461,-0.2223,0.4996
7750,1175,889,34.347,33.657,-0.0445,-0.0934,9.7558,0.5264,-1.0663,0.865
7755,1170,891,34.304,33.739,-0.0205,-0.0422,9.8657,0.8666,-0.3947,-0.2169
7760,1161,891,34.491,33.747,-0.1139,0.035,9.8917,-0.6888,-0.1565,-0.3986
7765,1171,896,34.314,33.747,0.0607,-0.056,9.9283,-0.2829,0.1073,-0.7462
7770,1147,897,34.368,33.784,-0.0486,-0.0271,9.8739,0.4404,-0.2385,-0.0641
7775,1154,904,34.407,33.705,-0.1267,0.0091,9.8243,0.2993,-0.831,-0.1023
7780,1152,904,34.344,33.779,0.0007,-0.0039,9.8102,0.3301,-0.6476,-0.2744
7785,1149,899,34.428,33.689,0.0617,-0.0129,9.7822,0.0537,-0.5684,0.7325
7790,1142,904,34.427,33.66,0.0276,0.0086,9.7659,-0.1469,0.456,0.1119
7795,1145,906,34.465,33.742,-0.0437,0.0571,9.7671,-0.0978,0.0146,-0.1214
7800,1143,908,34.409,33.745,-0.0059,0.0189,9.8232,-0.9407,0.1162,-0.5173
7805,1137,907,34.465,33.684,-0.0429,0.0673,9.8463,-0.4152,-0.6155,-0.3329
7810,1138,909,34.305,33.837,0.0147,0.0011,9.8012,-0.6492,0.4374,-0.7187
7815,1139,912,34.388,33.794,-0.088,-0.0136,9.8202,0.006,0.3866,0.7948
7820,1136,915,34.404,33.761,0.0232,-0.0544,9.6683,-0.5569,-0.3174,0.0494
7825,1126,912,34.333,33.745,0.026,-0.015,9.7609,0.1815,-0.0096,-0.1807
7830,1131,917,34.406,33.772,0.0247,-0.0831,9.7158,-0.6604,0.4092,0.0971
7835,1115,917,34.493,33.67,-0.0325,-0.1065,9.8073,0.1155,0.5586,0.1416
7840,1124,913,34.342,33.721,-0.0615,0.0755,9.8247,-0.9855,0.1989,-0.1551
7845,1110,915,34.319,33.672,0.0302,-0.0858,9.7931,0.2526,-0.0152,-0.0016
7850,1124,911,34.401,33.778,0.0077,-0.0528,9.8237,-0.1288,0.4525,0.1378
7855,1117,911,34.405,33.776,0.0677,-0.0414,9.9085,0.1133,-0.1076,-0.2816
7860,1113,911,34.44,33.74,0.0182,-0.0908,9.7847,-0.1783,-0.2377,-0.3558
7865,1107,913,34.419,33.746,-0.0127,0.0098,9.8338,0.4885,0.0525,0.2064
7870,1109,907,34.402,33.696,0.0545,0.0266,9.8501,-0.185,-0.2763,0.2028
7875,1109,904,34.395,33.693,0.0087,-0.0503,9.8277,0.176,0.1245,-0.8458
7880,1105,908,34.341,33.703,-0.066,-0.0817,9.7959,-1.1311,0.2596,-0.2838
7885,1108,907,34.477,33.75,-0.0284,-0.0501,9.796,0.4023,0.3209,0.0114
7890,1098,897,34.418,33.81,-0.0334,-0.0247,9.7876,-0.2801,0.2787,1.1078
7895,1098,899,34.477,33.684,0.034,0.0705,9.8881,0.7484,0.3923,0.676
7900,1105,899,34.487,33.75,0.0083,0.0579,9.8088,-0.4881,-0.0767,-0.1642
7905,1085,900,34.433,33.793,-0.0262,-0.0044,9.8742,0.0457,-1.2421,0.6651
7910,1091,900,34.424,33.705,-0.0531,0.0279,9.8072,-0.5187,0.8266,-0.0291
7915,1092,896,34.381,33.788,0.0172,0.0084,9.765,0.9622,0.4362,0.2426
7920,1100,891,34.38,33.722,-0.0249,-0.034,9.7732,0.6155,-0.3681,0.6724
7925,1086,894,34.389,33.834,-0.0665,0.0011,9.8713,-0.1919,1.033,-0.9587
7930,1086,891,34.464,33.705,-0.0049,0.0684,9.8588,-0.2656,-0.3834,0.688
7935,1097,887,34.373,33.774,0.0141,0.0758,9.8054,-0.5634,-0.1001,-0.1322
7940,1082,890,34.548,33.78,-0.0074,-0.0017,9.7438,0.5129,-0.3868,-0.0836
7945,1086,882,34.354,33.779,-0.0255,-0.0311,9.7878,1.0497,-0.3011,0.4621
7950,1071,881,34.517,33.799,0.0386,-0.0058,9.8298,-0.6705,-0.0293,0.1521
7955,1089,884,34.39,33.796,0.0545,0.0419,9.7904,0.3201,-0.6743,0.1627
7960,1063,883,34.544,33.705,-0.0474,-0.035,9.8198,0.0382,0.6643,-0.1321
7965,1066,881,34.399,33.727,0.0148,-0.0364,9.706,-0.1179,-0.272,0.6604
7970,1069,874,34.378,33.703,-0.1061,0.0592,9.776,0.3502,0.6217,0.3827
7975,1066,875,34.385,33.817,0.0171,0.082,9.8321,0.0488,-0.2933,0.3856
7980,1056,876,34.418,33.785,-0.0628,-0.0206,9.8519,0.4569,-0.2648,-0.542
7985,1065,873,34.389,33.709,-0.0162,0.0128,9.7419,0.427,-0.2573,1.0823
7990,1061,873,34.338,33.71,-0.0266,0.0475,9.8172,-0.3022,0.063,-0.1657
7995,1058,873,34.474,33.716,0.0647,-0.0651,9.8279,-0.3762,-0.5722,-0.0982
8000,1049,871,34.42,33.728,0.0467,-0.0169,9.7644,-0.2531,-0.6468,0.6058
8005,1056,866,34.414,33.825,0.0811,-0.0701,9.773,-0.1853,-0.0453,-0.3462
8010,1042,864,34.308,33.743,-0.0053,-0.0217,9.807,0.5597,0.5857,0.0583
8015,1039,864,34.38,33.721,-0.0462,0.0257,9.7313,-0.3275,-0.2034,-0.0827
8020,1042,867,34.435,33.733,0.0728,0.0902,9.81,-0.3432,-0.2193,-0.6229
8025,1035,862,34.44,33.708,-0.018,-0.0346,9.7907,0.141,0.5992,0.3178
8029,1031,862,34.348,33.684,-0.0628,-0.0211,9.8119,0.0065,0.0512,-1.0828
8035,1021,863,34.441,33.761,-0.0514,-0.0704,9.7822,0.0715,0.1382,-0.2949
8039,1018,859,34.442,33.82,0.1033,-0.0106,9.7887,0.8837,1.2099,0.2372
8045,1012,858,34.429,33.71,-0.0023,0.0246,9.7017,0.5761,-0.01,0.0034
8050,1009,858,34.473,33.758,-0.0133,-0.0336,9.8531,-0.1887,0.4694,0.8682
8055,998,860,34.382,33.743,0.0662,0.0803,9.8267,0.7295,-0.1342,0.0901
8060,988,851,34.35,33.73,0.0352,-0.0212,9.707,0.0561,-1.4402,-0.1722
8064,1001,850,34.45,33.648,-0.0297,-0.0623,9.8034,0.6574,-0.553,0.0448
8070,982,850,34.365,33.717,0.1114,0.0224,9.8761,-0.2356,-0.0667,0.032
8074,982,853,34.385,33.758,-0.0458,-0.0385,9.8283,0.3016,0.8352,-0.0571
8080,984,851,34.321,33.738,0.0447,-0.0264,9.8134,0.5358,-0.0274,0.5717
8085,966,848,34.369,33.729,0.025,-0.0799,9.8714,0.2753,0.0428,0.5643
8090,963,846,34.478,33.702,-0.0243,0.0274,9.8582,0.5095,1.1176,0.3176
8095,957,844,34.404,33.823,0.0868,-0.0225,9.7789,0.6499,-0.6161,0.5039
8100,940,846,34.417,33.782,0.0087,-0.0061,9.8726,-0.7869,-0.2029,-0.4942
8105,942,847,34.342,33.825,0.0159,0.0131,9.8138,-0.1218,-0.2579,-0.6381
8109,935,845,34.452,33.851,0.0067,0.1265,9.8652,-0.6212,-0.6467,0.0886
8115,923,837,34.388,33.74,0.0254,0.041,9.7462,0.3754,-1.0804,0.5313
8119,923,837,34.388,33.721,-0.0355,-0.0477,9.7814,-0.1179,-0.3695,-0.8194
8125,903,839,34.384,33.691,-0.0251,-0.0306,9.7436,-0.2032,0.1591,0.1976
8130,913,834,34.4,33.732,-0.0042,0.0685,9.7903,0.4545,-0.4138,0.3275
8135,898,830,34.492,33.681,-0.0228,-0.0751,9.8254,0.2022,-0.0892,-0.2319
8140,885,834,34.337,33.727,0.048,0.0681,9.7433,0.4487,-0.2478,0.5859
8145,877,829,34.357,33.69,0.0075,0.0022,9.8102,-0.4998,-0.7214,0.1044
8150,874,831,34.317,33.758,0.0611,-0.0886,9.8696,0.5016,0.3079,0.1993
8154,854,822,34.404,33.774,-0.0134,0.0302,9.7731,0.3516,0.2518,0.4999
8160,854,823,34.449,33.706,-0.0501,0.0385,9.7959,0.3202,0.8983,0.0362
8164,846,817,34.342,33.69,-0.158,-0.036,9.8259,0.6178,-0.4632,-0.1533
8170,852,818,34.357,33.724,0.1008,0.0381,9.7693,-0.1421,-0.0347,-0.4069
8175,842,812,34.373,33.725,0.025,-0.1002,9.8313,-0.6368,-0.0005,0.5598
8180,835,817,34.396,33.626,0.039,0.0182,9.7693,-0.8237,0.264,0.3342
8185,817,810,34.502,33.715,-0.0541,0.1114,9.7775,0.4651,-0.5658,0.5278
8189,821,810,34.473,33.743,0.0645,0.0445,9.662,0.0185,-0.5391,1.1856
8195,809,803,34.396,33.775,0.0111,0.033,9.8658,-0.9814,0.1818,-0.4962
8200,810,799,34.396,33.651,0.0109,-0.0387,9.8393,1.0931,-0.6821,0.3357
8205,796,798,34.422,33.745,-0.0679,0.0463,9.7907,0.4468,0.6629,-0.8495
8210,795,792,34.349,33.705,0.0425,0.0284,9.7706,0.1525,0.5786,-0.5086
8215,788,789,34.401,33.733,-0.0263,0.0134,9.8638,-0.3586,0.2903,0.0491
8220,784,789,34.453,33.682,-0.087,0.0057,9.8687,0.048,0.1049,-0.2901
8225,784,779,34.408,33.735,-0.0432,-0.0431,9.8403,-0.3849,-0.1267,0.0812
8230,766,778,34.384,33.669,-0.0347,0.0028,9.7416,0.5239,-0.0491,-0.5817
8235,773,772,34.366,33.793,0.0144,0.0702,9.9117,-0.2267,-0.8031,-0.0214
8240,765,762,34.39,33.76,0.0345,-0.0302,9.8642,-0.7027,0.4246,0.5029
8245,757,762,34.299,33.741,0.0259,0.0396,9.7901,0.4797,-0.4878,0.1865
8250,751,756,34.418,33.725,0.0199,-0.014,9.8367,-0.0238,-0.5041,-0.175
8255,755,757,34.395,33.742,-0.0476,-0.0814,9.9091,-0.4999,-0.2867,0.6053
8260,746,745,34.382,33.657,0.0445,0.0063,9.8902,-0.1848,0.2257,-0.0836
8265,748,745,34.437,33.725,0.0837,-0.0048,9.7843,0.9149,0.7905,0.3119
8270,750,740,34.404,33.683,0.0603,-0.0895,9.7882,-0.2533,-0.594,-0.2946
8275,749,729,34.383,33.805,0.0354,-0.0055,9.8079,-0.347,-0.7206,0.126
8280,744,730,34.311,33.699,-0.0206,0.0085,9.8456,-0.1553,1.0306,-0.2199
8285,754,729,34.506,33.736,-0.0211,-0.045,9.7375,0.6931,-0.0236,0.0188
8290,751,717,34.473,33.858,0.0431,0.0359,9.8008,-0.4047,-0.2611,0.2841
8295,739,714,34.427,33.801,-0.0582,-0.0532,9.8444,0.519,-0.0811,-0.098
8300,762,708,34.387,33.84,-0.0345,0.0353,9.7738,0.5588,0.0676,0.0819
8305,751,708,34.453,33.758,0.0108,0.0263,9.7843,-0.003,-0.6601,-0.6576
8310,758,706,34.514,33.798,-0.1162,0.0472,9.8816,-0.0233,-0.474,0.1721
8315,760,699,34.319,33.681,0.013,-0.0041,9.8039,-0.8288,-0.3309,0.2336
8320,768,692,34.379,33.798,0.0582,-0.0364,9.8131,0.0232,0.8881,0.6215
8325,767,694,34.459,33.662,0.0117,-0.0622,9.7151,-0.7672,-0.0456,-0.4265
8330,771,684,34.418,33.712,-0.0429,-0.0326,9.7885,1.1586,0.1809,0.6372
8335,771,686,34.466,33.847,0.0113,0.0184,9.7816,0.6306,1.8813,-0.6969
8340,781,679,34.349,33.729,0.0047,-0.0589,9.7775,-1.2316,0.8299,0.2285
8345,780,677,34.363,33.71,-0.0581,-0.0205,9.8095,0.1204,-0.294,0.3232
8350,798,674,34.41,33.817,-0.009,-0.01,9.7608,0.4264,0.4466,-0.4103
8355,802,669,34.411,33.684,0.0054,-0.0512,9.7621,0.5438,-0.3811,0.2776
8360,800,665,34.416,33.745,-0.0321,0.0033,9.888,-1.1318,-0.2392,0.2271
8365,809,667,34.408,33.777,-0.0376,-0.0774,9.8366,-0.6444,0.0745,-0.0797
8370,814,662,34.445,33.743,-0.0116,-0.0395,9.7909,0.0189,0.0934,-0.3775
8375,827,653,34.415,33.73,0.0728,-0.0629,9.8804,0.1297,-0.9141,-0.4162
8380,831,661,34.337,33.731,0.0257,-0.0815,9.8579,-0.2308,-0.1569,0.213
8385,847,652,34.435,33.673,0.0992,-0.0074,9.9003,-0.4117,0.1488,0.4949
8390,853,649,34.395,33.748,-0.0134,0.0266,9.8316,-0.0757,-0.8152,-0.2927
8395,857,644,34.439,33.754,0.0708,-0.0172,9.7633,0.9158,-0.0648,1.0648
8400,880,650,34.411,33.767,0.0836,-0.012,9.8244,-0.2701,0.5365,-0.3111
8405,883,651,34.343,33.729,-0.001,-0.0643,9.8283,-0.3784,0.499,-0.8095
8410,897,651,34.422,33.68,-0.0109,-0.0447,9.8431,-0.7219,0.1629,-0.0018
8415,897,653,34.428,33.71,-0.0121,0.0083,9.7603,-0.3107,-0.1684,-0.3977
8420,903,648,34.391,33.694,0.0753,-0.0113,9.8385,0.2088,-0.1218,-0.5524
8425,905,647,34.402,33.807,0.0614,0.0055,9.905,0.036,0.495,0.2171
8430,934,645,34.415,33.686,0.0853,-0.0196,9.8351,-0.3986,-0.4568,0.5984
