timestamp_ms,ir_finger,ir_toe,temp_finger,temp_toe,ax,ay,az,gx,gy,gz
0,1049,664,34.58,34.05,0.0377,-0.0564,9.8475,-0.0438,-0.2551,-0.6638
5,1061,662,34.691,33.983,0.0298,-0.0426,9.7983,-0.7882,-0.2704,-0.1914
10,1059,666,34.671,34.101,0.0605,-0.0584,9.7479,-0.6183,1.0562,-0.3938
15,1079,673,34.693,34.062,0.0692,0.027,9.7742,0.2962,0.659,0.4706
20,1098,673,34.608,34.053,-0.0054,-0.0319,9.8138,-0.0612,0.4314,0.2058
25,1095,675,34.658,34.075,-0.0387,0.0335,9.8125,1.2955,0.4392,0.9276
30,1111,683,34.607,34.028,-0.0498,0.0309,9.7678,0.2601,0.3949,0.263
35,1116,690,34.694,34.048,-0.0209,-0.0839,9.8587,0.1152,-0.1081,-0.3911
40,1124,696,34.661,33.961,-0.0094,-0.0185,9.8456,0.3473,-0.2997,-0.5357
45,1141,697,34.709,34.064,0.0004,-0.0276,9.7419,0.0394,0.2879,0.4075
50,1140,702,34.774,34.106,-0.0499,0.0366,9.8046,0.7237,-0.3491,-0.5339
55,1155,713,34.639,34.056,-0.0046,0.0433,9.8548,-0.5839,-0.311,-0.1248
60,1155,717,34.766,33.986,-0.0335,-0.0167,9.717,0.3417,-0.162,0.1959
65,1166,719,34.599,34.131,-0.0445,-0.027,9.7603,-0.461,-0.5565,0.0167
70,1166,726,34.759,34.07,-0.0883,0.0006,9.8862,-0.477,0.0339,0.5635
75,1174,731,34.677,33.997,-0.0634,0.1327,9.7967,0.6385,0.7053,0.1929
80,1179,743,34.66,34.12,-0.0628,-0.0165,9.7462,-0.4434,1.2567,-0.3456
85,1177,747,34.758,34.04,0.0409,0.0249,9.7018,-0.6586,1.0131,-0.2666
90,1187,758,34.678,34.154,-0.0277,0.0836,9.8748,0.8739,0.4722,-0.1316
95,1185,760,34.76,34.097,-0.0543,0.0049,9.8131,-0.0104,-0.4282,0.0875
100,1187,772,34.702,34.066,0.0753,-0.0485,9.7428,-0.0572,-0.2725,0.1696
105,1186,775,34.777,34.044,-0.0548,-0.0193,9.786,-0.554,0.0887,-0.9086
110,1185,783,34.769,34.041,0.0838,-0.0081,9.8155,0.3844,-0.1847,0.1272
115,1196,794,34.686,33.985,0.068,0.0781,9.783,-0.0645,0.6725,-0.0413
120,1195,803,34.728,34.056,0.0063,-0.0019,9.8203,-0.9411,-0.2514,-0.7583
125,1195,812,34.675,34.049,-0.0207,0.0349,9.8005,0.0221,-0.4674,-0.9943
130,1187,821,34.779,34.021,-0.0341,0.0251,9.8246,-0.0825,-0.1264,0.132
135,1186,819,34.784,34.056,0.0228,-0.0015,9.8096,-0.7142,-0.1861,0.5707
140,1172,832,34.711,34.042,0.0027,-0.0502,9.7667,-0.1446,0.4514,0.0705
145,1188,843,34.751,34.029,0.1353,-0.0258,9.7725,0.4215,-0.5927,-0.2551
150,1174,841,34.698,34.088,-0.1315,0.0329,9.732,-0.3459,0.8133,0.3472
155,1172,849,34.668,33.991,-0.0875,0.0947,9.8823,-0.4637,0.4505,0.1231
160,1164,853,34.643,34.155,-0.0099,-0.0162,9.7726,-0.6876,-0.0823,-0.8232
165,1169,859,34.701,34.113,-0.0246,-0.0243,9.8039,-0.5646,0.0222,0.2547
170,1162,865,34.631,34.08,0.0059,-0.0469,9.8478,0.0792,-0.3704,0.8537
175,1162,868,34.684,34.073,0.0624,-0.0431,9.7944,-0.0534,0.166,0.1758
180,1158,874,34.67,34.015,0.0797,0.0128,9.7182,-0.0772,0.4281,-0.1746
185,1162,881,34.736,34.097,0.0901,-0.0266,9.8873,0.1669,0.2166,0.2333
190,1157,883,34.728,34.048,0.073,-0.0808,9.8069,-0.0348,-0.139,-0.1718
195,1153,885,34.72,34.107,-0.005,0.0313,9.8046,0.3452,-1.1653,0.2433
200,1141,891,34.664,33.955,0.1062,0.0932,9.7201,1.5454,-0.484,-0.103
205,1138,900,34.664,34.038,0.0473,0.033,9.7766,0.4445,0.2078,-0.398
210,1140,899,34.663,34.07,-0.057,-0.0024,9.79,0.7752,0.0056,-0.458
215,1135,898,34.639,33.996,-0.0447,-0.0255,9.855,-0.0185,-0.4694,0.2638
220,1131,902,34.612,34.043,0.0715,0.0236,9.8499,0.1393,0.1618,0.6797
225,1119,898,34.808,34.059,-0.0773,0.0451,9.8102,0.0515,-0.136,-0.7016
230,1115,903,34.632,34.121,0.0052,0.0467,9.8347,-0.3979,0.7482,-0.2084
235,1119,901,34.64,34.02,-0.0055,0.0122,9.7864,-0.6343,0.1286,-0.9847
240,1115,906,34.672,33.948,-0.0195,0.0333,9.9361,-0.6127,-1.2587,-0.1581
245,1115,910,34.754,34.019,-0.0998,0.0879,9.8305,-0.3589,0.6589,0.2175
250,1105,901,34.633,34.106,-0.0198,0.0159,9.7594,-0.0352,-0.0666,-0.7754
255,1108,903,34.655,34.034,-0.0418,0.0128,9.8095,-0.9689,0.8161,0.077
260,1104,906,34.728,34.034,-0.0682,-0.0978,9.7605,0.9766,-0.2526,-0.1535
265,1092,902,34.709,33.996,-0.0678,0.0352,9.7935,0.3268,0.5371,-0.5048
270,1096,901,34.721,34.096,-0.0466,0.0141,9.7802,0.0154,0.5301,-0.358
275,1099,902,34.671,34.027,-0.0687,0.0025,9.7845,0.6035,0.3104,-0.5857
280,1097,896,34.711,34.023,-0.0086,0.0467,9.8349,0.0262,0.3573,0.0075
285,1087,899,34.659,34.064,0.0615,-0.0222,9.7952,-0.6947,0.1805,-0.7638
290,1084,897,34.668,34.078,-0.0479,0.0908,9.785,-0.0833,0.2264,-0.5807
295,1098,897,34.684,34.042,0.0588,0.0005,9.8136,-0.3157,-0.4822,0.1702
300,1087,896,34.703,34.061,-0.0333,-0.0086,9.8433,0.0485,-0.1473,0.1149
305,1086,889,34.674,34.031,0.0894,-0.052,9.7562,-0.2676,-0.2582,0.1368
310,1075,887,34.696,34.062,-0.032,0.0442,9.846,-0.4504,0.9039,-0.0031
315,1077,885,34.769,34.059,0.0667,-0.0641,9.7164,0.6123,0.2719,0.6786
320,1072,885,34.711,34.053,0.0301,-0.074,9.7501,0.0649,0.3951,0.0099
325,1064,884,34.667,34.089,0.0351,-0.0159,9.7986,-0.2777,0.4817,-0.0156
330,1068,883,34.7,34.091,0.0297,-0.036,9.7821,0.1701,-0.7992,0.1863
335,1058,875,34.688,34.05,-0.0235,-0.05,9.8179,0.725,0.0784,-0.2883
340,1066,880,34.648,34.017,0.0118,0.0217,9.7914,0.5696,-0.6278,-0.0218
345,1057,875,34.61,34.061,-0.0718,0.0557,9.7502,-0.3971,-0.5747,-0.5814
350,1042,880,34.625,34.064,0.0057,-0.1096,9.8211,0.0737,0.4915,-0.0133
355,1047,871,34.78,34.084,-0.1497,-0.0674,9.807,-0.3949,0.393,0.3111
360,1038,873,34.708,34.008,-0.027,0.0214,9.8366,0.0071,0.745,-0.1834
365,1030,870,34.672,34.059,0.0787,0.0271,9.7636,-0.0387,-0.3558,0.3794
370,1030,862,34.73,34.143,0.0623,-0.0709,9.8026,-0.0864,-0.1644,-0.0541
375,1032,862,34.726,34.13,0.0058,0.0013,9.8692,-0.6196,0.0383,0.2269
380,1018,865,34.622,34.078,-0.1027,-0.0364,9.7463,0.4338,0.5835,0.0978
385,1023,867,34.602,33.978,0.0314,0.0037,9.8207,-0.5453,0.1442,-0.1089
390,1007,860,34.75,34.077,0.0958,-0.0879,9.6859,0.8022,-0.4937,-0.0914
395,996,854,34.683,34.066,0.0955,0.004,9.8622,0.2506,-0.3015,0.0605
400,992,856,34.749,34.058,-0.0228,-0.0651,9.855,-0.3777,0.4749,0.1231
405,984,853,34.683,34.02,0.0206,-0.0405,9.8685,-0.521,-0.1817,-0.1145
410,981,856,34.672,34.1,0.0116,-0.0426,9.8289,0.2589,1.1369,0.049
415,979,852,34.797,34.092,0.041,0.0784,9.83,0.4391,-0.2849,-0.1745
420,970,857,34.724,34.01,0.0642,-0.0305,9.7454,-0.0524,-0.0066,0.5897
425,960,856,34.749,34.039,0.0309,-0.0194,9.7206,0.0889,-0.2339,-0.5031
430,947,849,34.679,34.013,-0.0933,-0.0501,9.8328,0.8352,0.1211,-0.5593
435,933,849,34.668,34.041,-0.0208,-0.047,9.8807,-0.2839,0.6036,0.029
440,927,848,34.746,34.007,-0.0652,0.0083,9.8098,0.3389,0.0296,-1.1399
445,922,846,34.788,33.995,0.0923,-0.0567,9.8493,-0.0056,0.0402,0.49
450,914,846,34.667,33.983,-0.038,0.0258,9.8215,0.4888,-1.1716,-0.0898
455,885,843,34.668,34.083,-0.0588,-0.0587,9.8386,0.5113,-0.1172,-0.3354
460,885,839,34.748,34.001,-0.0661,0.0417,9.8667,0.151,-1.237,0.5765
465,874,839,34.763,34.084,-0.0244,0.0095,9.7888,-0.1236,0.1775,-0.0097
470,870,838,34.727,34.029,0.0626,-0.0203,9.8475,0.3222,0.5816,-0.7284
475,854,836,34.729,34.19,0.0612,-0.0222,9.7621,0.8245,-0.3559,0.3119
480,840,833,34.71,34.025,0.0132,0.0052,9.7762,-0.8092,0.3837,0.4713
485,839,831,34.782,34.025,-0.0907,-0.0644,9.814,-0.0308,-0.3767,0.0236
490,834,824,34.675,34.036,-0.0471,0.0097,9.7848,0.024,-0.0543,0.3434
495,820,825,34.618,34.104,0.1103,-0.0011,9.7571,-1.0197,0.2387,0.426
500,814,828,34.731,33.926,-0.014,-0.0374,9.7444,0.1132,-0.4141,-0.2188
505,813,819,34.703,34.029,-0.0482,-0.0422,9.8272,-0.3866,0.0144,0.325
510,792,817,34.646,34.136,-0.0053,0.0397,9.804,0.421,1.1658,0.828
515,794,811,34.701,34.085,-0.0144,-0.0581,9.9037,0.641,-0.3249,0.9218
520,781,811,34.687,33.95,0.0113,0.031,9.8224,-0.849,-0.2399,-0.3467
525,779,809,34.74,34.04,0.0254,0.0246,9.8421,-0.2972,-0.8347,-0.3167
530,767,808,34.705,34.103,0.1003,0.0262,9.9154,0.5465,0.2053,0.4065
535,764,802,34.683,33.981,0.0059,-0.0167,9.7597,0.0227,-0.3121,-0.2201
540,763,797,34.645,33.991,-0.0349,-0.073,9.9158,-0.6121,0.3488,0.243
545,763,788,34.814,33.984,-0.0287,-0.0612,9.8558,0.1068,0.8213,-1.0153
550,754,786,34.567,34.084,0.0664,0.0259,9.8248,0.5112,-0.13,-0.2801
555,755,779,34.765,34.091,-0.0146,-0.0729,9.7827,0.2102,-0.1869,-1.0028
560,747,766,34.732,34.12,-0.0489,0.0305,9.7368,-0.6674,0.4867,-0.3709
565,753,772,34.708,34.146,-0.0736,0.0034,9.8157,1.746,-0.1642,0.4681
570,748,768,34.702,34.142,0.0168,-0.0846,9.806,-0.107,-0.0493,0.4309
575,753,761,34.74,34.153,-0.0431,0.0144,9.8315,-0.7008,-0.196,-0.3413
580,751,754,34.648,33.977,-0.0067,-0.0255,9.8581,-0.3203,-0.5955,-0.7242
585,761,746,34.726,34.094,0.0611,0.0796,9.7978,-0.5088,-0.5439,0.2229
590,751,742,34.626,34.11,-0.0059,0.0233,9.8295,-0.9872,-0.3885,0.5864
595,756,741,34.661,34.119,-0.1319,0.069,9.7596,0.8669,-0.0239,-0.5855
600,771,730,34.648,34.091,0.0744,0.1124,9.9387,-0.1718,-0.8598,0.2368
605,767,723,34.765,34.054,-0.0058,0.1131,9.7836,-0.4213,-0.4983,0.9355
610,781,728,34.76,34.115,0.0187,-0.0636,9.7736,-0.0726,1.1133,-0.2043
615,779,713,34.675,34.118,0.0132,-0.0699,9.8232,-0.4193,0.3136,0.7023
620,779,710,34.704,34.099,-0.0091,0.0055,9.8052,0.6699,-0.019,0.0664
625,798,706,34.691,33.935,-0.0098,-0.0883,9.8346,-0.5556,0.1532,0.9204
630,821,702,34.693,33.98,-0.0175,0.0835,9.8672,-0.0548,-0.5258,1.1254
635,815,696,34.781,33.992,0.0714,-0.0075,9.7968,0.0547,-0.9107,-0.0708
640,828,694,34.623,34.004,0.0385,0.0603,9.8021,-0.0242,0.6421,0.1325
645,841,689,34.767,34.018,-0.0216,-0.0138,9.8329,0.2233,-0.1565,-0.0228
650,842,684,34.699,34.119,0.0055,-0.026,9.885,1.1664,-0.6477,-0.032
655,855,679,34.676,34.083,-0.0006,-0.0631,9.8044,-0.0469,-0.7246,-0.7673
660,868,673,34.754,34.029,-0.0542,-0.018,9.7692,0.2186,0.2529,-0.2846
665,886,672,34.731,34.085,0.0095,-0.0352,9.8786,0.2296,-0.6534,-1.1905
670,895,664,34.732,34.032,-0.0244,0.0129,9.8407,-0.117,-0.1578,0.1964
675,920,666,34.54,34.007,-0.0221,0.0247,9.8549,0.5723,0.4852,0.2928
680,917,658,34.64,34.027,0.0405,-0.0919,9.7329,0.3277,-0.1431,-0.5096
685,937,662,34.718,34.065,0.0032,-0.0184,9.719,-0.8748,-0.0587,-0.1414
690,954,661,34.672,33.986,0.0293,0.0288,9.7745,-0.0378,-0.6556,0.5721
695,964,659,34.771,34.132,0.065,0.0158,9.7611,0.3466,-0.3532,-0.0937
700,977,661,34.724,34.024,-0.0019,-0.0033,9.8103,-0.5817,-0.4178,-0.2931
705,992,662,34.725,34.005,0.0094,0.0946,9.8261,-0.6577,-0.1922,-0.2548
710,1007,660,34.738,34.157,0.045,0.048,9.8577,-0.1508,0.8938,-0.4759
715,1014,665,34.708,34.102,0.0714,0.0036,9.8007,-0.6142,-0.1616,-0.3982
720,1023,664,34.759,34.12,-0.0617,0.0192,9.8389,-0.4638,0.0412,0.1753
725,1036,660,34.658,34.135,0.0026,0.0019,9.8315,0.4752,-0.168,0.7884
730,1058,662,34.672,34.037,0.0136,-0.0998,9.7677,0.0255,-0.1859,-0.3003
735,1068,663,34.717,34.084,-0.1279,-0.0594,9.7274,0.186,0.5917,-0.356
740,1073,674,34.734,34.004,0.0163,-0.0423,9.8481,-0.0571,0.1012,0.7948
745,1087,675,34.663,34.002,0.0067,-0.014,9.706,-0.4972,0.5235,-0.2134
750,1087,677,34.748,34.04,-0.0362,-0.1109,9.7712,0.5074,-0.6933,-0.5994
755,1105,682,34.728,33.992,0.0602,-0.025,9.7931,0.0294,-0.2524,-0.3577
760,1119,690,34.661,34.087,0.0646,-0.0288,9.7967,-0.6123,-0.1536,0.2253
765,1136,688,34.788,33.998,0.0105,0.0673,9.7605,0.1165,-0.1818,0.082
770,1139,703,34.616,34.114,-0.0139,0.0009,9.8607,0.6301,0.1558,0.5175
775,1136,700,34.742,34.053,-0.079,0.0255,9.756,-0.8278,0.6495,0.5356
780,1146,708,34.715,34.154,0.046,-0.0232,9.8237,0.9381,1.1116,0.0769
785,1156,715,34.708,33.996,0.0214,-0.0057,9.7964,-0.0589,0.9539,0.2581
790,1162,718,34.643,34.005,0.0205,-0.0258,9.8775,0.131,-0.1424,0.9013
795,1166,727,34.631,34.104,0.0189,-0.1052,9.8386,-0.2487,-0.4314,0.241
800,1171,735,34.788,34.06,0.0384,0.0122,9.8245,-0.0351,-0.5703,-0.3624
805,1176,737,34.704,34.087,-0.0434,-0.0497,9.7367,-0.7873,-0.4566,0.1098
810,1187,746,34.687,33.942,-0.025,-0.0315,9.798,-0.0255,0.0853,1.0055
815,1179,753,34.703,34.062,-0.0663,0.0073,9.7738,-0.0594,1.1601,0.8804
820,1185,765,34.679,33.955,-0.0749,-0.0521,9.7678,0.4684,-0.7696,-0.3459
825,1190,771,34.784,34.003,0.0731,0.0107,9.8459,0.4806,-0.0246,0.0662
830,1186,780,34.753,34.116,0.0192,-0.1121,9.7473,0.6863,0.3113,0.3507
835,1183,790,34.713,34.026,0.0103,-0.0301,9.8247,0.8966,0.7517,-0.3446
840,1195,791,34.705,34.113,-0.0292,0.0199,9.7927,0.4838,-0.0279,0.0783
845,1184,801,34.722,34.16,-0.0259,0.0018,9.7748,-0.1357,0.4938,-0.4766
850,1182,807,34.61,34.038,0.0186,0.0414,9.8593,1.288,0.1292,-0.4944
855,1191,811,34.766,33.999,0.025,-0.0091,9.8364,0.3003,-0.0333,-0.1275
860,1184,822,34.755,33.993,0.0109,0.0204,9.8755,0.1127,-0.7004,-0.0197
865,1180,824,34.665,34.14,0.0063,0.0083,9.8018,-0.2707,-0.9123,0.1489
870,1175,830,34.636,33.963,0.0225,0.0589,9.6947,0.3917,-0.0603,0.9473
875,1171,846,34.771,34.107,-0.0397,0.048,9.8191,-0.3072,-0.2403,-0.2523
880,1183,846,34.565,34.052,-0.1601,0.0349,9.7349,0.296,0.8595,-0.6854
885,1167,853,34.701,34.164,-0.0439,0.0594,9.7811,-0.4721,-0.1332,0.1209
890,1165,856,34.658,34.071,-0.0097,0.027,9.6815,0.6189,-0.6456,-0.8395
895,1160,867,34.745,34.033,-0.0019,0.0501,9.7428,0.8263,-0.9889,0.2272
900,1162,869,34.713,34.018,0.035,-0.0364,9.8364,0.1279,-0.2942,-0.369
905,1163,874,34.727,34.098,-0.0273,0.0066,9.8325,-0.262,-0.6861,0.1288
910,1158,876,34.698,34.002,0.0433,0.1161,9.8011,-0.1149,-0.4127,-0.656
915,1146,880,34.759,34.11,-0.044,0.0188,9.7229,0.2827,0.003,1.0354
920,1148,888,34.606,34.063,0.0066,0.0133,9.892,-0.3818,-0.1992,-0.6364
925,1145,889,34.803,34.055,-0.0039,-0.0855,9.8683,-0.0253,0.2582,-0.3067
930,1146,894,34.737,34.006,0.008,-0.0422,9.7526,-0.0729,-0.4231,0.0629
935,1135,896,34.737,33.989,0.0214,0.0213,9.7928,0.3589,0.1512,0.2387
940,1138,902,34.658,34.094,-0.0092,-0.0983,9.8213,0.5804,-0.7101,-0.2042
945,1127,897,34.75,34.131,-0.0425,0.0473,9.7381,-0.0967,0.2998,-0.0092
950,1123,906,34.701,34.013,0.0556,0.0205,9.7746,-1.2133,0.1978,-0.0742
955,1126,904,34.699,34.113,0.0456,0.0184,9.8249,0.1301,-0.5168,0.435
960,1125,900,34.703,34.14,-0.0298,-0.1151,9.8202,-0.7981,-0.0038,-0.5585
965,1119,902,34.688,33.952,0.0283,-0.1052,9.8356,0.5415,-0.2187,0.7015
970,1112,907,34.732,34.025,0.0389,-0.1071,9.8388,0.619,0.409,-0.3497
975,1106,903,34.74,34.09,-0.0641,0.0592,9.8093,0.3174,0.8282,0.2958
980,1101,904,34.793,33.997,0.0332,-0.0021,9.8539,-0.4602,0.2144,0.4488
985,1106,899,34.669,33.974,0.0005,-0.0403,9.7678,-1.2161,-0.2239,-0.0511
990,1097,904,34.68,34.089,0.0374,-0.0677,9.7693,1.1084,-0.0304,0.0471
995,1088,904,34.738,33.976,0.033,-0.0404,9.8729,0.3066,-0.4767,-0.2016
1000,1101,901,34.671,34.099,0.0773,0.115,9.7436,-0.0303,0.7781,0.5558
1004,1092,908,34.75,34.129,-0.0399,0.0667,9.8353,-0.3567,-0.4418,-0.1389
1010,1094,901,34.695,34.082,-0.004,0.0154,9.9069,-0.5727,-0.2216,-0.2265
1014,1078,899,34.725,33.987,-0.0464,0.0055,9.8504,0.859,0.0572,-0.5116
1020,1092,895,34.677,34.083,0.0309,0.0131,9.8521,0.0173,0.2315,-0.5599
1025,1080,893,34.768,34.212,0.0181,-0.0406,9.8066,0.0039,0.5857,0.4502
1030,1078,895,34.765,34.052,-0.0763,-0.0354,9.7812,-0.06,0.2426,-0.9657
1035,1082,886,34.687,34.145,-0.0938,-0.0065,9.7905,0.4235,0.6007,0.174
1040,1069,888,34.735,34.129,-0.0208,-0.0409,9.7707,0.5357,-0.3497,0.0223
1045,1075,888,34.728,33.971,-0.0298,-0.0118,9.7628,0.1276,-0.0348,-0.0321
1050,1077,883,34.749,33.995,-0.0044,-0.0279,9.7579,0.6088,-0.0624,-0.4292
1055,1073,884,34.746,34.04,-0.0031,0.0708,9.8345,1.0308,0.4922,-0.0291
1060,1065,874,34.68,34.099,-0.0169,0.0032,9.7938,0.7557,0.26,0.0462
1065,1060,878,34.78,34.121,0.0582,-0.0416,9.812,-0.804,0.739,0.5073
1070,1065,878,34.694,34.08,-0.0207,-0.0009,9.8639,-0.2056,-0.0482,0.0231
1075,1051,874,34.624,34.05,-0.0022,0.0196,9.7739,0.0899,0.3817,-0.2287
1080,1054,870,34.675,34.088,0.0314,-0.092,9.8453,-0.0442,0.3078,-1.2788
1085,1050,872,34.696,34.04,-0.005,-0.0033,9.8363,-0.0356,0.3735,0.5074
1090,1037,869,34.713,34.018,0.0946,0.0321,9.8402,-0.7528,-0.0419,-0.5544
1095,1036,860,34.751,34.136,-0.0046,0.016,9.8653,0.8324,0.5538,-0.2895
1100,1039,864,34.696,33.933,-0.0681,-0.0617,9.9035,0.3705,-0.4048,0.3422
1105,1027,859,34.673,34.038,-0.0219,-0.0589,9.8051,-0.0939,-0.3921,0.5519
1110,1016,862,34.689,34.012,0.0129,0.1017,9.8107,0.0553,-0.2071,-0.6234
1115,1018,859,34.649,34.035,-0.0597,0.0451,9.8626,0.6356,-0.5914,0.2984
1120,1009,857,34.735,34.004,0.0733,0.0512,9.7958,0.8004,0.1517,-0.6292
1125,998,857,34.746,34.105,-0.0277,-0.0126,9.8131,-0.0567,0.6155,0.7893
1130,992,854,34.711,33.999,0.0347,0.074,9.8195,-0.2873,-0.0237,-0.0318
1135,988,856,34.715,34.131,-0.0082,-0.0379,9.8252,-0.2657,0.3396,-0.0761
1140,982,847,34.759,34.072,-0.0535,0.005,9.8527,0.2439,0.5391,-0.2493
1145,970,853,34.697,34.2,-0.0674,0.0331,9.8788,0.2248,-0.3252,0.4019
1150,954,859,34.74,34.079,-0.0219,0.0265,9.8786,-0.5945,0.2464,-0.4522
1155,955,849,34.689,34.053,0.0872,0.0294,9.7414,-0.2359,0.119,-1.3524
1160,925,846,34.737,34.072,0.0152,0.0105,9.816,-0.183,-0.0215,0.1149
1165,924,848,34.722,33.99,0.0028,0.0451,9.8571,-0.2294,-0.7444,-0.4182
1170,919,848,34.761,33.984,-0.0561,-0.0811,9.7702,0.1343,-0.2748,0.431
1175,904,841,34.708,33.969,-0.0431,-0.0286,9.7522,0.4204,-0.3119,0.5169
1180,895,840,34.655,34.08,-0.0386,-0.0443,9.7264,0.3369,-0.226,0.5112
1185,886,839,34.678,34.03,-0.051,-0.047,9.7803,0.6021,0.4641,-0.1102
1190,881,840,34.76,33.986,0.0497,-0.0513,9.8284,-0.1073,0.2584,-0.5223
1195,872,832,34.648,34.064,-0.0133,-0.0296,9.8554,-0.3716,0.4825,0.3462
1200,861,839,34.718,34.017,-0.0055,-0.0033,9.8482,0.1513,-0.0492,-0.4825
1205,856,830,34.721,34.036,0.009,-0.0125,9.8058,-0.4541,0.3826,-0.4211
1210,845,830,34.863,34.099,-0.0325,0.0357,9.7765,-0.3102,0.2893,0.1553
1215,833,824,34.733,34.118,-0.0096,-0.0376,9.8559,-0.5573,0.4914,-0.5001
1220,821,825,34.643,33.993,-0.0133,0.0273,9.8217,0.018,0.3666,0.2395
1225,819,822,34.769,34.023,-0.0016,-0.1214,9.7638,0.0446,-0.6049,-0.2581
1230,813,821,34.707,33.936,-0.0389,-0.0596,9.8917,-0.0383,0.8122,1.006
1235,796,817,34.764,34.096,-0.0706,0.027,9.6912,-0.1682,0.001,0.1001
1240,795,812,34.732,34.074,-0.0683,-0.0595,9.8347,-1.1553,-0.6051,0.264
1245,777,810,34.726,34.083,-0.1219,-0.0496,9.8951,0.1261,-0.2781,-0.2465
1250,772,807,34.764,34.086,-0.0072,0.0333,9.8212,0.8156,0.4037,-0.1567
1255,776,802,34.655,34.075,-0.0418,-0.0788,9.7966,-0.0552,-0.1494,0.4559
1260,762,802,34.687,34.105,-0.009,-0.0368,9.7976,-0.2639,0.2961,-0.1017
1265,767,795,34.706,34.139,0.0658,-0.0121,9.5952,0.783,0.9461,-0.1201
1270,762,789,34.657,34.139,-0.0329,0.0828,9.8267,-0.7454,0.746,-0.7238
1275,750,784,34.719,34.017,0.0973,0.0356,9.7311,0.074,0.0038,-0.1317
1280,742,782,34.735,34.013,0.0111,0.0161,9.9309,1.0798,0.8987,0.0524
1285,748,773,34.694,34.068,-0.1138,-0.0001,9.8237,-0.021,0.6336,0.2911
1290,750,768,34.802,34.042,-0.0431,0.0393,9.7915,0.4438,0.0624,0.2167
1295,750,763,34.69,34.12,0.0109,0.0211,9.789,-0.3516,0.131,-0.9167
1300,750,755,34.694,34.12,0.0908,0.028,9.7753,1.2796,-0.1957,-0.1316
1305,745,752,34.745,33.998,-0.0236,0.0242,9.7517,1.0121,-1.0531,0.5425
1310,748,748,34.802,34.007,-0.0682,-0.1436,9.7876,0.5469,-0.4126,0.3049
1315,754,738,34.74,34.14,-0.0051,-0.0539,9.8157,-0.0132,0.2172,-0.3239
1320,753,739,34.731,34.08,0.0408,-0.0504,9.7933,0.3196,-0.0769,0.3112
1325,775,731,34.519,34.109,0.0907,-0.0194,9.8856,0.6197,0.1407,0.0161
1330,772,725,34.673,34.008,0.0073,0.0928,9.8213,0.4347,0.3612,-0.5244
1335,768,713,34.693,34.04,0.0405,-0.0717,9.8399,-0.1423,0.0523,-0.0552
1340,786,717,34.791,34.02,-0.0558,0.0475,9.8463,0.4806,-0.7318,0.1782
1345,788,713,34.76,34.02,-0.062,0.0268,9.8385,0.8028,0.0778,-0.2215
1350,794,708,34.699,34.143,-0.0769,-0.0154,9.8148,0.7297,-0.7841,-0.267
1355,806,702,34.656,34.059,-0.075,0.0074,9.8877,0.0049,-0.6926,0.3798
1360,820,695,34.746,34.061,-0.0262,-0.056,9.6971,-0.0123,0.49,-0.2474
1365,818,689,34.716,34.06,0.013,0.0179,9.8069,-0.3018,0.0929,-0.0113
1370,834,690,34.741,34.045,0.0111,0.0219,9.7257,0.7835,-0.193,-0.6859
1375,851,685,34.691,34.007,-0.0236,-0.01,9.7588,0.0719,0.0426,0.2019
1380,865,678,34.775,34.004,0.0271,-0.0159,9.7895,-0.4607,0.2199,-0.0465
1385,877,680,34.672,34.096,0.0093,-0.0035,9.8171,0.3349,0.2611,0.6335
1390,890,670,34.708,34.017,-0.0574,0.0397,9.8748,-0.4333,-0.7214,0.3183
1395,892,671,34.677,33.983,0.0087,-0.0134,9.7947,0.0045,-0.0355,0.6188
1400,899,665,34.71,34.005,0.0288,-0.0395,9.817,0.4156,0.4896,0.7443
1405,912,662,34.654,34.037,-0.015,0.0114,9.8109,0.4071,-0.2546,-0.0034
1410,933,662,34.664,34.083,-0.0217,0.007,9.8654,-0.0011,-0.1399,-0.6065
1415,951,658,34.673,34.071,0.055,0.0643,9.8393,-0.1523,-0.0229,-0.945
1420,957,661,34.663,34.067,0.0368,-0.0282,9.8618,1.3704,-0.3077,-0.5209
1425,969,657,34.716,33.957,0.0328,-0.0054,9.8735,-0.1234,0.406,-0.4304
1430,978,657,34.707,34.018,-0.0073,-0.0551,9.8431,-0.0096,-0.297,-0.8901
1435,1002,658,34.769,34.107,-0.0204,0.0562,9.7993,-0.4276,0.1544,0.2672
1440,1017,662,34.705,34.044,0.0512,-0.0641,9.8308,0.0364,0.1423,-0.3073
1445,1020,655,34.684,34.117,0.0991,-0.056,9.8737,-0.615,-0.754,-0.9429
1450,1036,664,34.687,34.165,-0.0006,-0.0407,9.8713,0.4423,0.4853,-0.5752
1455,1051,667,34.816,34.003,0.0058,-0.1135,9.7715,-0.5116,-0.1538,0.0821
1460,1060,665,34.669,34.066,-0.0082,0.0372,9.8523,0.0,-0.727,0.096
1465,1069,669,34.673,34.135,0.0114,-0.0019,9.9097,0.3892,-0.0464,0.0523
1470,1085,677,34.753,34.113,0.0728,0.0428,9.8674,-0.7061,-0.2632,0.6252
1475,1090,676,34.646,34.112,-0.1028,-0.0296,9.8671,0.3773,-0.32,0.2722
1480,1107,681,34.735,34.007,-0.025,-0.0932,9.8231,0.3501,-0.0398,-0.8382
1485,1111,686,34.767,34.062,0.0243,-0.0257,9.8178,0.0923,-0.2534,0.4059
1490,1122,688,34.714,34.101,0.0028,0.0269,9.8053,0.2738,0.2709,0.4119
1495,1131,700,34.721,34.178,0.0564,0.0585,9.8023,0.8871,0.239,0.3881
1500,1148,696,34.712,33.979,-0.0222,0.0493,9.7388,0.149,-0.8617,-0.38
1505,1155,708,34.702,34.085,0.0282,-0.0516,9.7389,-0.3178,-0.4062,-0.2135
1510,1157,717,34.718,34.09,0.0167,-0.0225,9.8326,0.1309,0.764,0.3362
1515,1161,718,34.679,34.026,0.0141,-0.0124,9.78,0.1259,0.0707,-0.0412
1520,1160,730,34.83,34.011,0.0305,-0.0267,9.7778,0.8376,0.1613,1.0681
1525,1166,730,34.779,33.959,-0.1007,0.0513,9.8073,-0.0467,-0.7316,0.417
1530,1166,743,34.693,34.114,-0.0042,-0.1065,9.8219,-0.4629,-0.0066,0.2929
1535,1176,746,34.589,34.016,-0.0164,0.073,9.7436,-0.4141,0.272,-0.4732
1540,1187,757,34.692,34.091,-0.0687,-0.0083,9.8331,0.6301,0.4334,0.4217
1545,1182,763,34.778,34.092,-0.0011,0.0187,9.8289,-1.1514,0.0513,-0.6288
1550,1187,771,34.674,34.157,-0.0579,-0.0641,9.8343,0.3871,-0.0606,0.3506
1555,1198,778,34.646,34.072,-0.0608,0.0153,9.814,-0.1402,-0.2273,-0.4059
1560,1188,780,34.681,34.096,0.0291,-0.0141,9.8211,-0.2444,-0.0415,0.2188
1565,1189,789,34.676,34.138,-0.0411,-0.0753,9.7897,-0.6132,0.3966,-0.9148
1570,1187,796,34.631,34.115,0.076,0.0678,9.8645,-0.6555,1.2854,-0.577
1575,1188,805,34.638,34.043,-0.0,-0.0254,9.7857,0.8625,-0.5617,-0.6867
1580,1176,819,34.686,34.165,-0.0467,0.0613,9.8565,-0.211,-0.3779,0.0051
1585,1180,820,34.746,34.2,-0.0632,-0.0766,9.8111,0.0185,0.1605,0.8148
1590,1185,827,34.716,34.097,-0.0725,0.1188,9.7603,-0.3486,-0.882,-0.4097
1595,1178,834,34.709,34.051,-0.063,0.0349,9.8554,-0.1125,-0.8921,-0.0969
1600,1176,840,34.715,34.124,-0.0271,-0.0133,9.8601,0.4664,0.5533,0.9256
1605,1183,842,34.755,33.982,-0.0094,0.0127,9.7499,0.4575,0.2729,-0.3402
1610,1169,852,34.656,34.159,-0.0182,0.0622,9.843,0.2996,0.3443,0.9044
1615,1183,863,34.688,34.018,-0.027,-0.005,9.7622,-0.0174,-0.2932,0.1777
1620,1163,866,34.721,34.098,-0.016,-0.0152,9.7713,-0.2577,-0.0988,-0.9124
1625,1159,871,34.73,34.07,-0.0306,-0.0151,9.8399,-0.556,0.2418,0.7242
1630,1160,875,34.73,34.108,0.0216,-0.013,9.8026,0.3881,0.3968,-0.104
1635,1155,882,34.756,34.029,-0.0007,-0.0641,9.8055,-0.6594,-0.6251,-0.2623
1640,1158,883,34.689,34.018,0.0754,0.008,9.9028,-0.1426,0.0527,0.8181
1645,1144,890,34.619,34.002,-0.0182,0.0222,9.8356,-0.7047,-0.2078,-0.0429
1650,1146,888,34.702,33.957,-0.016,-0.0048,9.7876,-0.3206,0.8703,0.2222
1655,1144,890,34.691,34.054,-0.018,0.0199,9.7716,0.0347,-0.0708,0.0527
1660,1144,896,34.644,34.087,0.0471,0.0083,9.7982,-0.3001,-0.1941,0.201
1665,1135,898,34.709,34.116,-0.0344,-0.0143,9.8744,0.1173,0.4014,-0.2932
1670,1118,902,34.632,34.065,0.0099,0.0539,9.8886,0.3901,-0.1096,0.2747
1675,1127,901,34.719,34.087,0.0733,-0.0283,9.8118,-0.1058,0.8541,0.5763
1680,1128,906,34.635,34.056,-0.0905,0.0274,9.8551,0.56,-0.7185,-1.0867
1685,1119,901,34.705,34.093,0.0554,0.0704,9.7594,-0.3534,-0.2189,1.2074
1690,1109,904,34.758,34.124,0.0838,-0.0089,9.8916,0.6347,0.2576,-0.4505
1695,1105,908,34.7,34.032,-0.0116,0.0219,9.8102,0.4407,-0.0902,0.2691
1700,1102,900,34.701,34.107,0.041,-0.0308,9.8449,-0.0995,0.0654,-0.3918
1705,1103,905,34.714,34.064,-0.0047,-0.0079,9.749,0.2636,-1.0846,0.9896
1710,1106,906,34.744,34.052,0.0851,0.0063,9.6964,0.2268,-0.0103,-0.3481
1715,1109,899,34.732,34.025,0.0643,-0.0062,9.7675,0.4911,0.2596,0.1101
1720,1102,903,34.759,34.13,0.0169,0.0772,9.863,0.5445,0.3977,-0.2374
1725,1111,904,34.621,34.054,0.0413,-0.0351,9.8032,-0.0773,0.3544,0.0685
1730,1106,902,34.797,34.024,-0.0024,0.0222,9.8238,-0.4391,0.2026,-0.5283
1735,1093,904,34.701,34.022,-0.0533,0.0257,9.7334,-0.4196,-0.0244,-0.4546
1740,1092,894,34.758,34.152,0.065,0.0569,9.7616,0.6184,-0.2943,-0.6713
1745,1088,898,34.638,34.116,0.0597,-0.0182,9.8383,0.4349,0.3658,-0.0241
1750,1087,898,34.685,33.969,0.0045,-0.0158,9.8615,0.6862,0.0749,-0.0996
1755,1092,892,34.737,34.102,-0.0003,0.048,9.9145,-0.0047,0.3095,-0.4801
1760,1069,892,34.673,34.075,-0.0288,0.0072,9.8241,-0.0085,-0.1351,-0.8608
1765,1074,888,34.626,34.112,0.0202,0.0123,9.7812,0.8348,-0.0686,-0.4713
1770,1072,885,34.687,34.089,0.073,-0.0104,9.7934,0.2822,0.0257,-0.041
1775,1075,888,34.702,34.121,0.0669,0.0982,9.87,0.2729,-0.0577,-0.1962
1780,1063,876,34.728,34.086,0.0132,0.0926,9.8523,0.1427,0.439,0.9329
1785,1066,883,34.69,33.987,-0.028,0.0534,9.8521,-0.719,-0.3779,0.0899
1790,1063,879,34.766,34.001,-0.0059,0.0616,9.8096,-0.5629,-0.1592,-0.4832
1795,1073,875,34.771,33.995,0.0678,0.0059,9.7659,0.602,-0.5017,0.3318
1800,1049,873,34.631,34.036,-0.0184,0.0588,9.7699,-0.9877,0.2804,-0.1063
1805,1047,871,34.684,34.063,-0.0484,-0.023,9.7539,0.4815,0.0342,-0.0839
1810,1043,870,34.719,34.131,0.0977,-0.0238,9.8819,0.1928,0.0264,0.0371
1815,1038,874,34.607,33.99,-0.037,0.0363,9.7686,-0.1176,-0.2306,0.3463
1820,1031,872,34.72,34.068,-0.0299,-0.0574,9.8009,0.5328,-0.2233,1.0916
1825,1030,864,34.64,34.08,-0.0677,-0.0622,9.7875,-0.2781,0.5324,0.0954
1830,1029,864,34.799,34.128,-0.0347,0.0995,9.8248,-0.7539,0.1422,0.7215
1835,1019,857,34.79,34.084,-0.0151,-0.0866,9.8579,0.2874,-0.1392,0.0914
1840,1003,861,34.647,34.086,-0.0236,0.0602,9.7484,-0.8404,0.1333,0.8634
1845,1007,859,34.733,34.04,0.0249,0.0564,9.7745,-0.2211,0.4284,-0.1506
1850,991,861,34.666,34.096,-0.0491,0.0173,9.7854,0.5798,0.6792,-0.0582
1855,986,860,34.737,34.047,-0.0421,0.0016,9.7015,-0.2599,0.2702,-0.3221
1860,984,854,34.792,33.961,0.0638,0.0597,9.8093,-0.4219,0.3495,0.1473
1865,980,853,34.659,34.047,-0.0273,-0.0301,9.8087,-0.3694,0.2562,-0.0897
1870,965,851,34.737,34.177,-0.005,-0.0238,9.8109,-0.167,0.3273,0.1688
1875,956,855,34.707,34.075,-0.0278,-0.0108,9.7318,0.3555,-0.0961,-0.0868
1880,941,848,34.717,33.973,0.0278,-0.0109,9.7979,0.347,0.6182,-0.7791
1885,947,847,34.71,34.06,-0.0526,0.1045,9.8011,1.235,-0.7268,0.449
1890,921,851,34.631,34.123,-0.0864,-0.0731,9.8614,0.4951,-0.9412,-0.0559
1895,921,845,34.674,34.044,-0.0053,0.0726,9.8201,-0.3936,0.5147,0.5869
1900,903,848,34.715,34.094,-0.0212,-0.0648,9.8564,0.3973,0.1735,1.2302
1905,908,841,34.708,34.18,-0.0148,-0.0282,9.801,0.8749,-0.5725,-0.3701
1910,879,840,34.682,34.158,-0.0536,-0.0356,9.7998,0.145,0.1108,-0.6486
1915,879,840,34.752,34.091,0.0516,0.0016,9.8257,0.1774,-0.127,0.1425
1920,873,832,34.645,34.019,0.0506,-0.0534,9.8709,-0.0408,0.1799,-0.6102
1925,860,840,34.614,34.125,0.0261,0.084,9.8004,-0.2149,0.0755,0.4324
1930,843,828,34.69,34.047,0.0694,-0.0668,9.9279,-0.3301,0.5326,-0.468
1935,833,825,34.668,34.071,-0.0551,0.041,9.8409,-0.4557,-0.2349,1.1525
1940,831,832,34.723,34.084,0.0126,0.027,9.7972,-0.297,0.286,1.0527
1945,821,831,34.657,34.159,0.0355,-0.0592,9.7994,-0.3828,0.2275,-0.0367
1950,812,822,34.825,34.074,0.034,0.074,9.8298,0.2325,-0.1861,0.318
1955,801,822,34.649,34.055,-0.0093,0.0337,9.8253,0.6165,-0.2385,0.4305
1960,795,818,34.827,34.049,0.0157,-0.054,9.8728,0.1015,0.8222,0.3954
1965,793,813,34.628,34.114,-0.0027,-0.0086,9.8149,0.2622,0.8858,-0.576
1970,789,811,34.693,34.067,-0.0019,-0.0055,9.8067,-0.4932,0.2941,0.0181
1975,776,807,34.702,34.044,-0.0621,-0.069,9.7574,-0.0174,0.1192,-0.495
1980,777,798,34.796,34.113,-0.0584,-0.0653,9.8297,-0.5099,-0.2651,-0.3198
1985,767,798,34.689,34.019,0.0439,0.0136,9.875,0.3869,-0.0593,-0.2462
1990,764,796,34.673,34.117,0.0857,-0.0235,9.8264,-0.2656,0.4228,0.1993
1995,747,794,34.811,34.095,0.0588,0.0104,9.8162,-0.5488,0.2388,-0.8592
2000,755,785,34.786,34.008,-0.0629,-0.0378,9.7625,0.8656,0.4693,0.0831
2005,744,782,34.719,34.093,-0.0245,-0.0102,9.8481,0.3999,0.2039,-0.4231
2009,746,778,34.793,34.127,0.0185,0.0468,9.7687,0.277,0.829,0.1815
2015,749,769,34.741,34.052,0.0075,0.0266,9.8179,0.0294,0.2289,-0.2748
2020,746,769,34.734,34.031,-0.0414,0.0309,9.747,-0.3785,0.1179,0.8136
2025,753,757,34.729,34.025,-0.0507,-0.0552,9.8449,0.0105,-1.0327,1.5762
2029,754,755,34.745,34.055,0.0356,-0.0481,9.8469,0.4866,-0.0466,0.4826
2035,752,751,34.655,34.08,0.0616,0.0162,9.9607,-0.8148,-0.052,0.2157
2040,747,748,34.736,34.0,0.0883,0.0431,9.7485,-0.3312,-0.7564,-0.5316
2045,764,743,34.797,34.136,-0.0166,0.0397,9.8136,0.7312,0.2021,-0.1598
2050,754,731,34.706,33.995,-0.0571,-0.0127,9.8102,0.1558,0.0512,0.4993
2055,767,735,34.689,34.049,-0.1309,0.1263,9.7913,0.4422,0.8807,0.4193
2060,767,723,34.637,34.076,-0.0031,-0.0059,9.7948,0.2337,-0.8185,0.0394
2065,786,715,34.682,34.147,0.0132,0.0225,9.9071,0.7393,-0.4542,-0.4522
2070,782,719,34.771,34.027,-0.0861,0.0804,9.8354,0.676,0.3215,-0.1957
2075,787,703,34.686,34.051,0.0165,-0.0521,9.808,0.2477,-0.3456,0.802
2080,805,703,34.618,34.098,0.0163,0.0068,9.7562,-0.0852,0.0031,0.274
2085,809,698,34.667,33.961,-0.0776,-0.0417,9.7658,0.4974,0.6373,-0.5244
2090,824,694,34.686,34.161,0.0013,-0.0102,9.8781,-0.6186,0.0773,0.0666
2095,838,688,34.802,34.009,-0.05,0.0979,9.8546,1.2397,0.7286,-0.0942
2100,849,686,34.632,34.054,-0.0065,-0.0454,9.8889,-0.0049,-0.3847,0.0055
2105,860,686,34.851,34.059,-0.0506,0.0095,9.8318,-0.1302,0.2924,-0.4383
2110,872,676,34.809,34.044,-0.0971,-0.053,9.8488,0.0883,0.7497,0.6215
2115,886,673,34.741,34.109,-0.1243,-0.0352,9.8408,0.2001,-0.1059,-0.0854
2120,894,670,34.73,34.066,0.0847,-0.0881,9.7278,-1.3071,0.7768,-0.6157
2125,908,666,34.827,34.07,-0.0344,0.0495,9.8348,0.6754,-0.3398,0.4114
2130,913,663,34.744,34.149,0.0603,-0.0073,9.8484,-0.805,-0.5182,-0.7401
2135,933,667,34.749,34.008,-0.0097,0.0638,9.8586,-0.5253,-0.2311,0.0627
2140,956,665,34.756,34.018,0.0642,0.0943,9.8475,-0.8618,0.3444,0.2348
2145,959,658,34.703,34.041,-0.0071,0.093,9.76,-0.1522,0.6517,0.0155
2150,963,659,34.726,34.061,0.0786,0.0143,9.8213,0.3216,-0.0623,-1.1862
2155,984,657,34.777,34.066,0.0219,-0.0193,9.8538,-0.1148,0.5321,-0.3024
2160,1004,661,34.646,34.079,0.0027,0.0181,9.8504,0.1217,0.6886,0.1624
2165,1009,662,34.891,33.912,0.0663,-0.0852,9.8182,-0.8062,0.0825,0.3543
2170,1030,661,34.724,34.052,0.0821,-0.086,9.8186,0.1336,0.0354,0.1773
2175,1040,656,34.714,34.148,-0.0697,-0.001,9.876,-0.7541,0.5212,0.1805
2180,1052,662,34.782,34.044,0.0071,0.0296,9.8727,0.4385,0.8564,-0.0442
2185,1061,669,34.763,34.117,0.0462,-0.0945,9.7816,-0.3539,0.0234,0.6495
2190,1072,668,34.716,34.08,0.0657,-0.03,9.7874,0.9417,-0.1847,0.5021
2195,1081,677,34.717,34.139,-0.0431,0.0145,9.8122,-0.0631,-0.1032,-0.5387
2200,1091,677,34.61,33.993,0.029,-0.0224,9.7354,0.2552,-0.4662,-0.8246
2205,1106,678,34.781,34.042,-0.0153,-0.029,9.7644,-0.1782,0.7052,0.1135
2210,1113,686,34.627,34.059,0.004,-0.0567,9.8357,0.2023,0.5085,0.7776
2215,1127,685,34.756,34.084,0.0297,-0.0022,9.9018,-0.6392,-0.0535,-0.3356
2220,1127,692,34.822,34.0,-0.0627,-0.0464,9.7307,-0.4042,0.4178,0.3207
2225,1146,702,34.741,34.152,-0.0613,0.0501,9.8368,-0.2545,0.197,-0.2067
2230,1154,710,34.685,34.052,0.0001,-0.0078,9.7945,0.1945,-0.3374,-0.0032
2235,1150,712,34.728,34.096,-0.0811,-0.0549,9.8901,-0.4269,-0.2828,0.7603
2240,1164,717,34.756,34.044,-0.0404,0.0192,9.8255,0.7927,0.873,0.0802
2245,1174,727,34.739,34.01,-0.009,0.0065,9.8143,0.5635,-0.2015,-0.3857
2250,1166,728,34.636,34.163,0.0368,0.0618,9.7382,0.4745,0.2868,0.7784
2255,1176,741,34.763,34.046,0.0814,-0.0216,9.7949,-0.1146,-0.1515,-0.3161
2260,1181,748,34.648,34.022,-0.0682,-0.0444,9.8055,-1.1595,0.3275,0.2693
2265,1183,756,34.731,34.137,0.0366,0.0202,9.7904,-0.318,-0.3177,0.6767
2270,1188,758,34.756,34.056,-0.0386,-0.0091,9.8352,-0.7673,-0.1324,-1.0538
2275,1188,767,34.768,34.084,-0.0289,0.0636,9.7844,-0.5083,0.6291,-0.2236
2280,1190,776,34.748,34.189,0.1004,-0.0202,9.8438,0.1876,-0.4565,0.5633
2285,1184,785,34.8,34.018,0.0391,-0.0658,9.7644,-1.3138,-0.146,-0.3669
2290,1182,790,34.688,34.101,0.0318,-0.0177,9.8153,0.6018,0.056,-0.1605
2295,1181,800,34.767,34.077,-0.0255,0.067,9.8896,-0.2242,-0.5899,-0.6619
2300,1184,802,34.723,34.132,0.0482,0.0047,9.9498,0.2469,-0.3012,0.2822
2305,1188,809,34.726,34.089,0.0692,-0.087,9.8443,-0.3824,0.005,-0.5581
2310,1193,817,34.729,34.125,-0.0316,0.0172,9.7766,-0.5528,0.3887,-0.0046
2315,1178,827,34.643,34.057,0.0402,-0.0533,9.9098,0.449,-0.0893,0.0803
2320,1183,830,34.685,33.964,-0.1614,-0.0961,9.8004,-0.1968,0.4819,-1.1419
2325,1181,842,34.701,34.013,-0.0407,-0.0635,9.741,1.1655,-0.7158,0.2559
2330,1170,847,34.715,33.985,0.0332,-0.0603,9.816,0.1476,-0.5158,0.1987
2335,1172,853,34.717,34.119,-0.0268,-0.013,9.921,-0.9391,0.3085,-0.1125
2340,1170,852,34.666,34.059,0.0936,0.0225,9.7782,1.0229,-0.152,0.8699
2345,1162,858,34.763,34.128,0.0887,0.0679,9.7693,-0.3524,1.019,0.5257
2350,1155,867,34.857,34.105,-0.0724,0.0471,9.827,0.1663,-0.5587,-0.3676
2355,1158,876,34.766,34.161,0.0189,-0.0281,9.7705,0.5584,0.2393,-0.4167
2360,1156,877,34.609,34.129,0.0175,0.0871,9.8146,-0.345,0.143,-0.0831
2365,1144,889,34.748,34.074,-0.0841,-0.0241,9.9003,0.7682,-0.4883,-0.0127
2370,1147,885,34.695,34.097,0.034,0.0134,9.8202,-0.0539,0.0713,0.2122
2375,1142,889,34.674,34.072,-0.0318,-0.053,9.8601,0.1389,0.5565,0.3025
2380,1144,895,34.732,33.998,0.0108,0.0103,9.8133,0.3947,0.7011,-0.3795
2385,1140,896,34.664,34.15,0.0301,-0.0551,9.8282,-0.1766,-0.208,-1.1489
2390,1130,896,34.764,34.057,-0.0625,0.1414,9.8244,0.6394,-0.5956,0.6323
2395,1119,897,34.693,34.142,-0.0481,-0.0024,9.726,-0.1502,-0.0812,0.4749
2400,1130,897,34.8,34.08,0.0503,0.0321,9.7547,-0.3916,0.0681,-0.1719
2405,1114,904,34.674,34.092,-0.0163,0.0448,9.8465,0.02,0.3114,0.1825
2410,1118,902,34.735,34.017,-0.0551,-0.011,9.7825,0.0782,0.0733,-0.9784
2415,1121,904,34.735,34.09,0.0008,-0.0951,9.8039,0.4136,-0.4591,0.0193
2420,1119,903,34.698,34.18,-0.0145,0.0063,9.7387,1.0747,0.4205,-0.1847
2425,1118,904,34.772,34.058,0.0415,0.0059,9.7579,-0.4379,0.5579,-0.8068
2430,1108,903,34.743,34.118,-0.0391,0.022,9.8675,-0.2637,-0.126,-0.7313
2435,1102,900,34.728,34.105,0.0084,0.0739,9.8313,-0.5566,-0.4688,0.4327
2440,1106,907,34.654,34.077,0.0179,0.0949,9.776,-0.9043,-0.788,0.3294
2445,1113,904,34.81,34.081,0.0538,0.0457,9.796,-0.2827,-0.689,0.3289
2450,1096,906,34.683,34.084,0.0756,-0.0263,9.9052,-0.1479,-0.0444,-0.6603
2455,1099,900,34.746,34.127,0.0587,0.0242,9.7877,-0.4328,-0.5148,0.3533
2460,1092,904,34.666,34.154,-0.0253,0.0297,9.7907,0.5492,0.0584,-0.3856
2465,1094,898,34.786,34.149,-0.0119,0.0203,9.7799,-0.3038,-0.5147,0.1117
2470,1092,896,34.732,33.995,-0.0231,0.0042,9.7851,-0.6899,-0.0298,0.3633
2475,1086,896,34.761,34.066,0.0054,0.0426,9.8895,1.2745,0.0957,0.8369
2480,1081,893,34.689,34.116,0.0127,0.0493,9.8151,-0.8714,0.6745,0.2599
2485,1089,889,34.66,34.097,-0.0864,-0.0538,9.7799,0.1687,0.5359,0.1975
2490,1088,893,34.856,34.103,-0.0404,0.0095,9.7862,0.912,0.0492,-0.4003
2495,1079,887,34.677,34.069,-0.0109,0.084,9.798,-0.3103,-0.0864,0.5663
2500,1068,887,34.778,34.069,0.0318,0.0243,9.802,-0.1581,-0.2634,0.6385
2505,1070,877,34.698,34.126,-0.0083,-0.0196,9.8305,-0.2761,0.0713,-0.3501
2510,1073,876,34.778,34.141,-0.0929,0.0175,9.8027,-0.6631,1.2386,-0.1829
2515,1069,882,34.777,34.085,0.0059,-0.002,9.8501,0.381,-0.2737,0.4621
2520,1057,881,34.669,34.043,0.0584,-0.0076,9.7424,0.4717,0.2383,0.206
2525,1054,869,34.724,34.161,0.0104,-0.0023,9.7196,-0.078,0.3549,0.0837
2530,1052,875,34.75,34.025,-0.0292,-0.0546,9.8101,0.3896,0.4448,-0.427
2535,1045,867,34.601,34.092,0.0091,-0.01,9.6498,-0.6281,0.8356,-0.4009
2540,1037,869,34.823,34.043,-0.0129,-0.0218,9.8063,0.3,0.2594,0.2995
2545,1043,872,34.717,34.107,-0.0062,-0.0288,9.8628,0.0429,0.3265,-0.2215
2550,1027,868,34.696,34.009,0.0914,-0.0627,9.853,-0.405,-1.0558,0.4517
2555,1025,868,34.632,34.02,-0.0278,-0.0295,9.8459,0.5021,-0.2768,-0.2367
2560,1020,862,34.705,34.023,-0.0497,-0.077,9.7773,0.4698,-0.0667,-0.2183
2565,1012,860,34.724,34.048,0.02,-0.0776,9.7799,0.0423,-0.1519,0.5157
2570,1013,865,34.686,34.121,0.0563,0.0194,9.7945,-0.706,0.2003,-1.0258
2575,1009,857,34.736,34.02,0.0285,-0.0239,9.8058,-0.1362,0.6216,-0.9199
2580,989,860,34.708,34.13,0.0124,-0.0543,9.8418,-0.5691,0.0471,-1.0925
2585,991,854,34.743,34.029,0.0558,-0.0534,9.788,0.2069,-0.2083,0.7404
2590,972,852,34.784,34.063,-0.043,-0.0575,9.7535,-0.1458,0.1698,-0.1551
2595,967,852,34.707,34.116,-0.0061,-0.0214,9.8247,0.0042,-0.0983,-0.9292
2600,949,856,34.695,34.095,-0.0153,0.0349,9.8988,0.718,0.043,-0.461
2605,951,844,34.739,34.05,-0.0024,-0.0114,9.7678,-0.4208,-0.2398,1.103
2610,941,846,34.802,34.143,0.0082,0.0691,9.7798,-0.2047,0.3075,-0.1326
2615,930,846,34.706,34.109,-0.0853,-0.0192,9.8173,-0.0447,-0.1416,-0.1302
2620,921,847,34.689,34.061,-0.0497,0.0669,9.809,0.5465,1.5452,-0.6007
2625,910,845,34.746,34.165,0.0423,-0.0079,9.763,-0.1679,0.5076,0.4042
2630,909,848,34.722,34.079,0.0479,-0.05,9.9508,-0.315,0.3478,-0.3434
2635,892,838,34.779,34.011,-0.0251,0.0803,9.8725,-0.3041,-0.3827,1.2785
2640,883,839,34.643,34.064,0.0375,-0.0716,9.8247,-0.0005,0.242,0.5866
2645,868,840,34.655,34.05,0.016,0.0421,9.903,1.3313,-0.2893,-0.2211
2650,868,833,34.825,33.989,-0.0281,0.0294,9.7673,-0.1837,-0.8589,-0.26
2655,861,837,34.676,34.096,0.0202,0.0629,9.7557,-0.342,0.394,0.3012
2660,844,830,34.769,34.097,-0.0621,-0.0369,9.7019,-0.184,0.9406,-0.6821
2665,833,828,34.649,34.022,-0.042,-0.0368,9.7528,-0.392,0.2206,0.4282
2670,824,827,34.778,34.122,0.0241,0.068,9.8532,0.0063,0.262,0.0952
2675,824,822,34.592,34.083,0.0028,-0.0109,9.8284,0.766,-0.5001,-0.7801
2680,807,820,34.669,34.03,-0.0576,0.0042,9.8023,0.6471,0.6336,-0.1588
2685,799,820,34.761,34.08,0.0481,-0.0252,9.7548,0.0892,0.3678,0.6244
2690,789,814,34.779,34.049,-0.0046,0.011,9.7963,-0.1625,-0.1972,0.9726
2695,782,808,34.726,34.088,0.0312,-0.0292,9.7229,-0.4958,0.2556,0.0982
2700,780,806,34.7,34.08,-0.0928,-0.0141,9.8262,0.0571,0.9659,-0.2034
2705,772,806,34.714,34.061,0.034,-0.045,9.8356,-0.7609,0.3254,-0.6305
2710,773,796,34.806,34.125,0.0397,0.0099,9.6895,-0.0131,0.3329,0.5694
2715,759,797,34.707,34.058,0.1158,0.0009,9.8933,0.3603,-0.0634,-0.0939
2720,760,790,34.746,34.11,-0.0115,-0.0491,9.9184,0.5055,0.1455,0.1292
2725,751,790,34.76,34.129,0.0307,0.0227,9.8887,-0.2972,-0.1993,-0.1068
2730,747,780,34.792,34.006,0.0344,0.0775,9.7256,0.4788,-0.1327,0.5271
2735,758,782,34.658,34.072,0.0059,0.0098,9.8497,-0.1092,-0.1744,0.1359
2740,744,774,34.765,34.14,-0.0041,0.0082,9.8388,0.5077,0.7642,-0.1623
2745,749,764,34.708,34.074,-0.0131,-0.0494,9.8243,0.5914,0.0272,-0.1019
2750,756,760,34.698,34.02,-0.0078,-0.0267,9.8493,-0.3772,-0.2841,-0.0627
2755,750,754,34.733,34.033,-0.0026,-0.0452,9.8587,0.1371,0.3053,0.2188
2760,744,752,34.765,34.107,0.0391,-0.0887,9.8443,-0.0518,0.6031,0.883
2765,757,742,34.594,34.149,0.0861,0.0144,9.9214,0.6715,-0.3011,-0.8669
2770,752,740,34.699,34.027,0.0413,-0.0547,9.8238,0.0366,-0.3916,-0.3994
2775,758,737,34.81,34.109,0.0219,0.0088,9.772,1.0176,0.4455,-0.1066
2780,773,728,34.813,34.131,-0.0919,-0.0184,9.8599,0.6599,0.6821,-0.2507
2785,777,722,34.695,34.128,-0.049,-0.0685,9.7643,-0.0106,0.6574,-0.3326
2790,776,719,34.847,34.072,0.0043,-0.045,9.8021,-0.8535,-0.4057,0.1651
2795,793,716,34.693,34.093,0.0325,-0.054,9.8248,-1.3729,-0.2188,0.7457
2800,798,708,34.811,34.111,-0.0363,0.0413,9.7189,0.246,0.7742,-0.7593
2805,798,703,34.672,34.047,-0.0577,0.0171,9.8797,0.3645,-0.5419,-0.253
2810,803,702,34.72,34.019,0.0366,-0.0201,9.8588,0.1764,-0.0254,1.0969
2815,823,696,34.706,34.107,0.0138,0.0367,9.8076,-0.0946,-0.4722,0.3915
2820,832,692,34.717,34.091,-0.0376,0.0648,9.7879,0.5377,-0.3511,0.1067
2825,847,688,34.8,34.021,0.0149,-0.0724,9.8849,-0.0259,-0.4617,0.6405
2830,859,677,34.709,34.095,-0.0565,-0.0512,9.8677,-0.1824,-0.5469,-0.1166
2835,861,680,34.714,34.105,0.0422,0.0162,9.8486,0.0857,0.0241,-0.1143
2840,884,671,34.795,34.07,0.0241,-0.0284,9.8019,-0.5262,0.1605,0.3787
2845,887,671,34.722,34.023,0.0095,0.1425,9.7797,-0.5012,0.4636,-0.2429
2850,900,665,34.701,34.193,0.0301,-0.0285,9.7996,-0.6043,0.521,-0.4788
2855,912,666,34.686,34.01,-0.067,-0.0025,9.838,0.0542,-0.8146,0.3641
2860,926,664,34.699,33.991,0.0686,-0.0518,9.8698,-0.1565,-0.7935,0.2045
2865,939,664,34.797,34.165,-0.0309,-0.085,9.8479,0.2766,0.2497,0.2212
2870,954,656,34.747,34.0,-0.0121,0.0382,9.71,0.158,-0.7179,0.4721
2875,976,663,34.746,34.155,-0.0445,0.0129,9.886,-0.0038,-0.7054,0.3668
2880,979,659,34.719,34.061,-0.0306,0.0335,9.7465,-0.0647,-0.0014,-0.4475
2885,1004,659,34.767,34.083,-0.0495,0.0358,9.797,0.5425,-0.1286,-0.6598
2890,1024,661,34.703,33.985,-0.0242,0.0286,9.8147,-0.3918,-0.1863,-0.0379
2895,1027,665,34.684,34.084,-0.0298,0.0293,9.8339,0.0099,0.0445,-0.1376
2900,1039,659,34.636,34.056,-0.1027,0.0385,9.8405,-0.4097,0.2847,-0.395
2905,1054,667,34.756,34.117,0.0268,0.0652,9.7839,0.1962,0.1045,-0.3999
2910,1061,669,34.823,34.076,0.0126,0.0157,9.8948,-0.2153,-0.1761,0.1956
2915,1069,669,34.73,34.019,-0.0094,0.1419,9.8605,0.4579,0.0935,0.2074
2920,1074,670,34.727,33.983,0.0605,-0.1062,9.8191,0.599,-0.1388,0.7609
2925,1090,674,34.735,34.05,-0.0067,-0.0406,9.7448,0.1969,-0.3222,0.1532
2930,1106,679,34.726,34.069,-0.0211,-0.032,9.8141,0.2069,-0.117,0.4464
2935,1112,687,34.705,34.028,-0.0563,-0.0113,9.8377,0.2463,0.0291,0.0278
2940,1125,693,34.636,34.116,-0.013,0.0191,9.7946,-0.6359,0.0478,0.997
2945,1125,698,34.692,34.024,0.055,-0.0919,9.8329,0.2971,-0.7706,0.4528
2950,1139,702,34.811,34.12,0.0332,-0.0223,9.8806,0.3212,0.2426,-0.2978
2955,1142,707,34.639,34.035,-0.0396,0.0216,9.7675,-0.1675,0.3985,0.165
2960,1153,711,34.743,34.174,0.0184,0.0682,9.8644,0.0286,0.2493,-0.2576
2965,1152,720,34.641,34.038,-0.0038,-0.0386,9.8698,-0.0155,-1.0481,-0.213
2970,1162,724,34.834,34.077,-0.0242,0.0123,9.8157,0.5178,-0.8157,0.2004
2975,1166,730,34.681,34.079,0.0152,0.0141,9.7669,0.1081,0.1772,0.2606
2980,1177,739,34.775,34.143,0.0853,0.0898,9.8564,-0.7255,0.6014,0.9535
2985,1177,750,34.761,34.098,-0.0385,-0.0758,9.8213,-0.5032,0.1525,0.7216
2990,1173,749,34.646,34.093,-0.048,-0.0038,9.712,0.1231,0.3423,0.3937
2995,1176,762,34.689,34.046,-0.0041,-0.0202,9.8182,-0.0444,0.6332,-0.7768
3000,1190,767,34.743,34.014,0.0039,0.0125,9.7268,-0.6333,-0.1953,-0.2483
3005,1186,772,34.672,34.104,0.0399,0.0614,9.982,-0.0682,-0.8612,0.1877
3010,1195,780,34.656,34.104,-0.0081,-0.0229,9.8411,0.1509,-0.0269,0.116
3015,1190,785,34.678,34.011,-0.0115,0.0139,9.8764,0.2276,-0.1207,-0.3036
3020,1189,798,34.747,34.062,-0.0,0.075,9.7466,-0.0991,-0.4352,-0.0482
3025,1186,803,34.731,34.151,-0.0432,-0.0155,9.7677,-0.3878,-0.3138,-0.3698
3030,1180,807,34.714,34.038,-0.0182,-0.0862,9.8552,-1.468,0.6599,-0.0776
3035,1186,815,34.748,34.069,-0.0053,-0.112,9.7875,-0.6872,0.2534,0.1167
3040,1182,822,34.783,34.056,-0.0317,-0.0985,9.8171,0.504,0.6405,0.4138
3045,1175,829,34.678,33.979,-0.0604,-0.0009,9.8483,-0.9757,-0.4997,0.4027
3050,1167,839,34.736,34.006,0.0388,-0.0152,9.7062,-0.0131,0.1338,-0.6865
3055,1173,850,34.738,34.138,0.0125,-0.053,9.8674,-0.6527,-0.3621,-1.0059
3060,1178,847,34.713,34.134,0.0076,0.021,9.7508,0.7681,0.812,-0.2029
3065,1163,858,34.713,34.036,-0.025,0.0362,9.882,-0.2443,0.0173,0.0272
3070,1173,861,34.761,34.184,-0.0134,0.0193,9.9102,0.5616,-0.0929,-0.5421
3075,1169,862,34.773,34.122,-0.0121,0.0309,9.8495,0.4251,1.0295,0.1709
3080,1161,874,34.672,34.026,-0.0344,0.1068,9.8441,-0.0974,0.4632,0.4947
3085,1154,874,34.73,34.114,-0.0379,0.0188,9.7232,0.0877,1.0657,-0.487
3090,1156,885,34.728,34.098,0.0044,0.0703,9.7289,0.2856,0.085,-0.2055
3095,1147,886,34.774,34.023,0.078,-0.0794,9.8012,0.0408,-0.4114,0.332
3100,1139,890,34.768,34.037,0.0167,0.0567,9.741,-0.1085,0.5353,-0.1548
3105,1143,892,34.73,34.095,-0.095,0.0247,9.8201,-0.0349,-0.3387,0.095
3110,1136,893,34.745,34.176,0.0086,0.0994,9.8765,0.2407,0.1255,-0.269
3115,1123,901,34.781,34.126,-0.051,-0.0151,9.7761,0.1371,-1.0304,0.073
3120,1132,901,34.675,34.146,-0.0564,-0.0079,9.8582,-1.004,-0.2919,-0.9553
3125,1131,898,34.712,34.072,-0.0535,0.0475,9.7399,-0.5749,0.1952,-0.2816
3130,1128,905,34.768,34.125,-0.0545,-0.0573,9.8182,-0.2202,0.8131,0.2507
3135,1119,907,34.708,34.045,-0.0207,-0.0025,9.817,-0.3399,0.164,-0.5242
3140,1121,901,34.702,34.139,-0.0288,-0.0354,9.8596,-0.0443,0.2535,-0.5368
3145,1120,906,34.752,34.079,-0.0286,0.0098,9.8427,0.2848,0.1664,-0.4125
3150,1114,905,34.757,34.001,0.0795,-0.096,9.8121,-0.4135,0.5557,0.081
3155,1106,904,34.74,34.141,0.0306,-0.0529,9.8444,0.5159,-0.4156,0.2958
3160,1110,910,34.692,34.068,0.0051,0.0027,9.8916,0.7441,-0.4321,0.5927
3165,1102,908,34.767,34.146,-0.0354,0.0369,9.8689,0.0138,0.3637,-0.5847
3170,1110,903,34.805,34.126,-0.0059,-0.0116,9.8355,-0.2715,0.231,0.4605
3175,1096,897,34.777,34.093,-0.0071,-0.0113,9.7384,-1.2152,-0.049,0.3237
3180,1099,902,34.612,34.04,-0.0147,-0.0183,9.9018,0.0016,-0.4713,0.4232
3185,1094,902,34.729,33.993,-0.0807,-0.018,9.8123,0.6908,-0.1444,0.3989
3190,1091,900,34.727,34.153,-0.0064,-0.0681,9.7674,0.8869,0.0519,0.1445
3195,1085,892,34.717,33.996,-0.0208,0.0662,9.7834,0.4334,-1.2452,-0.4928
3200,1088,891,34.761,34.123,0.0491,0.049,9.794,0.7374,0.3716,0.1417
3205,1079,891,34.716,34.091,-0.0254,-0.0617,9.7516,-0.786,0.4291,0.4735
3210,1078,889,34.694,34.078,-0.0873,0.0654,9.7912,1.1983,-0.6888,-0.7539
3215,1068,889,34.677,34.055,0.016,-0.1119,9.8436,-0.249,0.327,-0.7093
3220,1075,886,34.718,34.092,0.0338,0.0591,9.8234,0.3053,0.0449,-0.301
3225,1070,888,34.725,34.078,0.0147,-0.0441,9.8559,-0.7857,0.3551,-0.073
3230,1070,885,34.726,34.056,-0.0394,0.0472,9.8145,0.0905,-0.2636,-0.0278
3235,1065,879,34.705,34.03,-0.0099,0.0485,9.7445,-0.4995,-0.7518,-0.4033
3240,1063,876,34.622,34.148,-0.0638,0.0083,9.732,-0.5382,0.8935,0.8622
3245,1052,876,34.757,34.044,-0.0012,-0.0742,9.8573,0.251,-0.1014,0.7001
3250,1051,879,34.715,34.047,0.0271,0.0086,9.7978,-0.3383,-0.2787,-0.276
3255,1049,885,34.718,33.999,-0.05,-0.0427,9.7682,-0.4441,0.2216,-0.0319
3260,1056,874,34.708,34.036,-0.0731,-0.0039,9.8347,0.3478,-0.47,0.3696
3265,1046,869,34.716,34.087,0.0036,0.0794,9.8596,0.4518,0.8899,-0.8703
3270,1040,868,34.706,34.127,-0.02,-0.1013,9.7696,0.624,0.0721,0.5507
3275,1037,866,34.706,34.096,-0.044,-0.0291,9.8376,0.3397,-0.243,-0.6234
3280,1032,862,34.739,34.012,-0.001,0.0124,9.7449,0.2095,-0.135,-0.113
3285,1017,865,34.777,34.141,0.0459,-0.0766,9.8149,-0.4195,0.2095,-0.4492
3290,1011,858,34.737,33.989,-0.0058,0.0284,9.7788,0.1778,0.0822,-0.2495
3295,1008,857,34.756,34.003,-0.0331,0.0703,9.8584,-0.7608,0.5204,-0.444
3300,1000,863,34.783,34.129,-0.037,0.0924,9.8868,0.8436,-0.0363,-0.6297
3305,992,857,34.749,34.133,0.0638,0.0161,9.8425,-0.2837,0.8687,0.6345
3310,991,859,34.773,34.097,-0.0172,0.0654,9.8732,-0.2241,0.1934,-0.2975
3315,963,854,34.751,34.034,-0.0678,-0.0615,9.7671,0.8467,-0.0322,-0.1244
3320,975,854,34.662,34.175,0.0076,-0.0108,9.8258,-0.137,0.2246,0.8877
3325,954,853,34.779,34.091,-0.056,-0.0448,9.7697,-0.4326,-0.2915,-0.6363
3330,954,849,34.772,34.081,0.0572,0.096,9.8116,0.5537,0.1086,0.8168
3335,941,849,34.764,34.086,0.0292,0.0863,9.8586,-0.5993,-0.0417,0.1649
3340,944,849,34.74,34.063,0.059,-0.0144,9.7885,0.5775,-0.3518,-0.1711
3345,925,849,34.752,34.1,-0.0061,0.0416,9.7165,0.1921,-0.1417,0.1475
3350,908,842,34.68,34.093,-0.0251,0.096,9.7515,-0.8997,-0.3215,0.7286
3355,893,842,34.807,34.136,0.0241,0.0702,9.8438,-0.3403,-0.4114,-0.5387
3360,894,842,34.74,34.067,0.062,-0.0906,9.8914,0.3368,-0.2086,-0.5848
3365,882,842,34.723,34.03,0.0842,-0.0296,9.8209,0.3842,-0.3837,-0.5753
3370,876,838,34.779,34.046,0.0373,0.0344,9.7166,0.3834,0.0387,-0.0622
3375,863,839,34.743,34.154,-0.0158,-0.0074,9.7778,0.0151,-0.055,0.6784
3380,854,838,34.657,34.067,-0.0008,0.0237,9.7554,0.5475,0.6267,-0.3792
3385,848,832,34.711,34.063,-0.0457,-0.0345,9.8204,-0.3123,0.3073,-0.1799
3390,832,829,34.647,34.116,-0.1326,0.0535,9.8402,-0.0357,-0.5849,-0.1375
3395,823,825,34.674,34.029,0.0031,0.0024,9.7949,0.3178,-0.32,-0.5747
3400,818,826,34.723,34.064,0.0485,0.0286,9.7896,0.8084,0.2388,0.3618
3405,801,822,34.71,34.137,-0.0001,0.0874,9.9211,-0.2832,0.5199,-0.2885
3410,809,818,34.806,34.055,-0.0259,-0.0205,9.9554,-0.2208,0.4393,-0.0909
3415,796,818,34.808,34.052,0.0468,-0.0165,9.8509,-0.0231,0.2033,-0.4594
3420,795,808,34.706,34.11,0.0206,-0.0585,9.8255,-0.6436,0.785,0.6549
3425,780,808,34.726,34.08,0.0411,0.0621,9.8612,-0.1023,0.216,0.4532
3430,776,802,34.766,33.999,0.0517,0.0227,9.8352,-0.444,-0.4815,-0.354
3435,761,804,34.817,34.105,0.0684,-0.0062,9.865,0.1398,0.4237,-0.2636
3440,759,796,34.753,34.198,-0.078,0.0635,9.8444,0.6053,-0.8108,-0.4807
3445,750,789,34.788,34.214,-0.034,0.0581,9.7996,0.289,-1.0502,-0.2834
3450,755,793,34.736,34.065,0.0068,-0.0917,9.8483,-0.9691,0.8675,-0.5319
3455,745,778,34.69,34.081,-0.0481,0.0927,9.8335,-0.6857,0.5041,0.2118
3460,749,778,34.716,34.107,-0.0697,-0.0393,9.7549,-0.1945,-0.3926,0.5998
3465,745,774,34.669,34.085,-0.0618,0.0376,9.8083,0.1579,-0.4058,0.1895
3470,754,769,34.736,34.112,0.0193,0.0136,9.9089,0.0302,0.915,0.2659
3475,746,762,34.709,34.053,0.0241,0.0047,9.7974,-0.4467,0.0266,-0.5806
3480,734,757,34.734,33.933,0.0119,-0.0427,9.8012,-0.0584,0.0345,-0.2021
3485,748,749,34.738,34.047,-0.0872,0.0212,9.8305,0.042,0.6745,-0.044
3490,755,741,34.813,33.989,-0.001,-0.0412,9.8914,0.515,-0.325,-0.3398
3495,753,741,34.709,34.132,-0.0545,0.0324,9.8459,0.387,0.8252,0.0331
3500,753,739,34.704,34.037,0.0612,-0.0284,9.7201,0.8271,0.3454,0.6299
3505,759,735,34.657,34.085,-0.0084,0.0735,9.8421,0.5407,-0.1528,0.0616
3510,771,724,34.698,34.115,0.0644,0.0121,9.7574,-0.8681,-0.9479,-0.1002
3515,776,718,34.704,34.062,-0.1086,0.0256,9.9043,-0.4701,0.3678,-0.4388
3520,789,712,34.802,33.992,0.0197,-0.0124,9.839,-0.1395,-0.2238,0.4098
3525,796,706,34.753,34.09,0.0464,-0.1008,9.815,-0.6658,-0.5511,0.3556
3530,802,704,34.726,34.038,0.0295,-0.0486,9.8123,-1.0113,-0.0958,-0.5007
3535,804,698,34.789,34.15,-0.0204,0.0347,9.827,0.0897,-0.0634,-0.1705
3540,818,694,34.764,34.054,0.0427,-0.0731,9.8339,0.2963,-0.7643,0.3542
3545,830,689,34.691,34.024,-0.067,0.0388,9.8119,-1.2899,0.3983,0.3356
3550,851,686,34.734,34.028,-0.0246,-0.0444,9.7718,-0.1881,0.6551,0.4164
3555,847,683,34.807,34.067,0.0394,0.0296,9.7314,-0.8651,-0.4289,-0.0939
3560,859,674,34.731,34.066,-0.0418,-0.1108,9.8518,-0.0242,-1.0057,0.1776
3565,873,677,34.81,34.102,0.0393,-0.0098,9.7729,1.0889,0.7698,-0.1431
3570,899,667,34.824,34.124,0.0415,-0.0048,9.7957,-0.2488,0.9433,-0.4957
3575,904,669,34.796,34.013,0.0258,0.0134,9.7169,-0.405,-0.5418,0.1742
3580,913,668,34.739,34.002,-0.0523,-0.1124,9.8739,-0.8622,-0.1171,-0.8095
3585,926,665,34.712,34.0,-0.0321,-0.0352,9.7994,0.1151,0.6908,0.7912
3590,939,663,34.725,34.182,0.0492,-0.0393,9.7287,-0.1475,0.7827,-0.1751
3595,956,659,34.745,34.055,-0.027,0.0431,9.8371,-0.6973,0.4865,0.3333
3600,973,653,34.745,34.062,-0.0283,-0.0462,9.83,-1.0706,0.62,-0.6379
3605,987,654,34.756,34.091,0.0052,0.0301,9.725,-0.612,-0.1073,0.739
3610,1001,658,34.837,34.092,-0.0475,0.0419,9.7503,0.0557,-0.9102,-0.2127
3615,1011,660,34.768,34.034,-0.017,0.0278,9.8547,-0.7285,-0.0089,0.1502
3620,1031,661,34.666,34.073,-0.0621,0.0479,9.8433,-0.2153,0.3531,0.2796
3625,1029,664,34.718,34.045,-0.1073,0.0532,9.6895,-0.4593,0.2264,-0.2456
3630,1047,667,34.721,34.086,0.0443,-0.0004,9.8508,0.7291,0.0072,-0.6074
3635,1054,659,34.772,34.017,-0.0289,-0.0021,9.7751,0.4651,-0.0659,-0.5124
3640,1065,675,34.655,34.079,-0.0056,0.0259,9.8345,-0.2168,-0.3137,-0.6668
3645,1077,668,34.758,34.013,0.0251,0.0755,9.8471,0.1163,0.419,-0.872
3650,1088,676,34.714,34.124,0.0232,-0.0125,9.6925,0.4031,0.3161,0.1186
3655,1102,677,34.703,34.149,-0.0073,0.0008,9.8032,-0.3102,-0.7317,0.1111
3660,1110,679,34.772,34.11,0.0511,-0.0599,9.8487,-0.5262,-0.7662,-0.254
3665,1122,696,34.662,34.086,-0.1112,-0.062,9.787,-0.8181,0.0234,-0.5471
3670,1124,696,34.753,34.025,0.0832,-0.1129,9.8207,-0.2016,0.2824,0.4852
3675,1145,699,34.629,34.066,-0.069,-0.0738,9.8236,0.1617,-0.4647,0.5578
3680,1143,708,34.685,34.109,0.0111,-0.0419,9.8522,-1.1275,-1.3973,0.7551
3685,1152,710,34.707,34.167,-0.0336,0.0166,9.8037,-0.1563,0.5764,-0.4567
3690,1153,714,34.729,34.065,-0.0236,0.0916,9.8589,0.2176,0.5125,-0.9005
3695,1170,721,34.691,34.083,-0.0643,-0.0739,9.9073,0.6047,0.1655,0.3055
3700,1176,724,34.71,34.002,0.0158,0.0084,9.8877,-0.2381,-0.1722,0.352
3705,1171,733,34.751,34.096,0.0885,0.054,9.8117,-0.6632,-0.2564,-0.276
3710,1179,746,34.746,33.984,-0.0303,-0.0596,9.7461,-0.1743,-0.9192,0.5606
3715,1180,751,34.744,34.079,-0.0042,0.05,9.8088,0.3976,0.5611,0.9214
3720,1185,757,34.755,34.118,0.0605,-0.0446,9.8547,-0.06,0.1811,0.5543
3725,1189,763,34.731,34.146,0.0313,-0.0058,9.8207,0.1327,0.7317,-0.7486
3730,1191,773,34.744,34.059,-0.0613,-0.0434,9.8297,0.4092,-0.2139,-0.005
3735,1178,782,34.719,34.14,-0.0652,0.1546,9.7316,0.0992,0.5977,-0.2327
3740,1197,782,34.696,34.075,-0.0602,0.0431,9.8125,-0.5965,-0.2298,-0.3731
3745,1200,797,34.775,34.092,-0.0568,0.0635,9.751,-0.5907,0.5009,-0.2273
3750,1188,805,34.818,34.149,-0.0135,-0.0319,9.8525,-0.5774,-0.2777,-0.0672
3755,1183,814,34.758,34.092,-0.0122,0.0252,9.8874,-0.5509,0.1226,-0.5568
3760,1182,819,34.794,34.031,-0.02,0.0767,9.7674,-0.5119,-0.9996,0.9247
3765,1179,826,34.755,34.072,-0.0187,0.0165,9.8662,-0.2223,0.5608,0.2101
3770,1177,832,34.659,34.121,0.0004,-0.0311,9.8282,-0.4597,0.4425,0.2704
3775,1187,839,34.715,34.057,-0.0521,-0.0185,9.811,0.3089,0.1214,0.134
3780,1173,845,34.726,34.091,0.0644,0.0296,9.8253,0.9356,1.2054,1.0101
3785,1172,859,34.71,34.063,0.0373,-0.0518,9.7848,0.9529,-0.1492,-0.4839
3790,1163,855,34.734,34.099,-0.0472,0.0036,9.861,0.2617,-0.1403,-0.3285
3795,1174,860,34.723,34.135,0.0018,0.0611,9.7641,-0.3013,-0.5207,-0.5214
3800,1163,859,34.684,34.071,-0.0396,-0.1201,9.825,0.4684,0.2653,0.1653
3805,1165,871,34.785,34.087,-0.0265,0.1266,9.7411,-1.1499,-0.4293,0.5011
3810,1165,876,34.778,34.13,0.0628,-0.0143,9.7926,0.1721,0.4332,0.2199
3815,1155,879,34.611,34.078,0.0231,-0.0053,9.8148,0.9433,-0.6859,0.4948
3820,1155,889,34.734,34.085,-0.0287,0.0117,9.7999,0.2459,0.2932,-0.0424
3825,1151,886,34.672,34.086,0.0492,-0.0938,9.8566,-0.0286,0.4199,0.0412
3830,1142,894,34.777,34.099,0.0162,0.0497,9.795,0.5655,0.491,-0.2245
3835,1141,894,34.659,34.013,0.0625,0.0033,9.8257,-0.2444,-0.288,-0.2673
3840,1134,893,34.721,34.08,0.0165,0.0337,9.7621,0.706,-0.3487,0.3486
3845,1126,902,34.625,33.96,0.0848,-0.0159,9.8091,0.3676,-0.5078,0.6627
3850,1130,902,34.76,34.061,0.0217,-0.022,9.7759,0.1396,-0.4149,0.3992
3855,1120,901,34.803,34.159,-0.0115,-0.0011,9.835,-0.3142,-0.7266,0.6089
3860,1123,901,34.763,34.049,0.002,0.0499,9.7256,-0.424,-0.8149,-0.1779
3865,1116,899,34.739,34.137,-0.0469,0.0505,9.7459,0.3925,-0.4288,-0.6268
3870,1118,903,34.624,34.064,-0.0238,-0.0468,9.8193,-0.4881,-0.1887,0.6817
3875,1120,905,34.709,34.111,0.0591,-0.0408,9.7749,-0.126,0.2379,-0.2059
3880,1102,898,34.697,34.09,-0.0615,0.0289,9.7422,0.1794,0.4184,0.3371
3885,1109,905,34.66,34.085,0.061,-0.033,9.8305,-0.0192,0.0482,0.6457
3890,1105,896,34.754,34.087,0.031,-0.0241,9.7869,-0.5951,-0.2464,0.1233
3895,1112,894,34.701,34.095,0.0018,0.0545,9.796,0.0694,0.5514,0.7927
3900,1097,903,34.733,34.17,-0.0677,-0.0349,9.7878,0.2126,-0.4837,0.414
3905,1102,903,34.663,34.063,0.0058,0.0026,9.691,-0.5845,-0.3675,1.051
3910,1110,900,34.742,34.106,0.0295,0.0481,9.8819,-0.1827,0.4823,-0.7516
3915,1096,897,34.732,34.079,0.1092,0.0074,9.8419,0.0481,-0.5577,-0.2605
3920,1101,895,34.625,34.038,0.0015,0.0318,9.9294,0.3976,-0.9475,-0.0222
3925,1089,889,34.701,34.091,-0.0317,0.0277,9.781,-0.5207,0.0461,0.6319
3930,1083,892,34.7,34.087,0.0141,-0.0081,9.7778,0.7589,-0.2626,-0.3735
3935,1079,893,34.84,34.067,-0.113,0.1092,9.7426,-0.6043,-0.0018,0.1045
3940,1070,886,34.666,34.025,-0.0199,0.0119,9.8338,-0.5138,0.2263,-0.1894
3945,1075,889,34.679,34.058,-0.0704,0.0089,9.7973,-0.2037,-0.3456,0.4341
3950,1070,881,34.763,34.118,-0.0492,0.0422,9.8737,-0.1267,-0.2149,0.0679
3955,1071,882,34.697,34.087,0.0295,0.0229,9.8186,0.2355,-0.2968,-0.5362
3960,1069,880,34.789,34.14,-0.0333,0.0352,9.8207,-0.4317,0.0936,0.3923
3965,1070,872,34.7,34.107,-0.0124,0.0845,9.9307,-0.521,-0.5992,0.1735
3970,1060,877,34.815,34.146,-0.0122,-0.0742,9.7933,-0.024,0.4322,0.2393
3975,1054,870,34.732,33.971,-0.0439,-0.0436,9.6105,0.068,0.1543,-0.046
3980,1057,880,34.745,34.073,0.0261,0.0865,9.7318,-0.0628,0.6327,-0.41
3985,1047,870,34.63,34.034,-0.0673,-0.046,9.775,-0.1481,0.2874,0.6877
3990,1042,865,34.768,34.026,-0.0046,-0.0349,9.7181,-0.4128,0.5124,-0.2368
3995,1046,872,34.68,34.111,0.0142,-0.0117,9.8256,0.5463,-0.6511,0.1001
4000,1033,864,34.818,34.078,-0.0281,-0.0645,9.8095,-0.0492,0.2148,-0.9239
4005,1034,864,34.8,34.077,0.032,0.0627,9.7885,-0.2822,0.309,-0.0911
4010,1016,860,34.695,34.039,-0.0768,-0.001,9.8168,-0.0168,0.3911,-0.1034
4014,1020,862,34.825,34.103,-0.0092,-0.0101,9.8604,0.1128,0.457,-0.556
4019,1009,857,34.85,34.129,-0.112,-0.0543,9.8226,0.0036,-0.2118,-0.7609
4025,999,858,34.787,34.03,0.0265,0.0078,9.7648,0.8275,0.0519,-0.0146
4030,991,849,34.724,34.082,0.007,0.0219,9.7744,0.0407,-0.5445,0.232
4035,991,862,34.754,34.082,0.0144,0.0599,9.7325,-0.6803,-0.5872,-0.8394
4040,979,854,34.661,34.11,-0.0712,-0.0254,9.7866,0.7684,-0.1546,-1.0997
4045,971,852,34.805,34.071,0.0315,-0.0331,9.8744,-0.4307,0.498,0.4625
4050,960,853,34.831,34.175,-0.0437,-0.0397,9.7261,0.1029,-0.5751,-0.3764
4054,951,849,34.773,34.122,0.0267,0.0193,9.8499,1.2874,-0.0485,-0.2664
4059,948,852,34.73,34.109,-0.1144,0.0176,9.8247,0.3924,-0.3364,0.0971
4065,939,847,34.713,34.033,-0.0331,0.0408,9.7742,-0.0119,-0.4828,0.427
4070,926,846,34.715,34.079,-0.023,-0.1007,9.8738,-0.5622,-0.0311,0.4177
4075,921,845,34.794,34.052,0.0435,-0.1176,9.7632,0.0351,-0.4604,-0.2916
4080,900,844,34.807,34.038,-0.0355,-0.045,9.8133,-0.3231,0.1614,-0.29
4085,899,840,34.699,34.057,0.1156,0.0819,9.7782,-0.3345,0.0077,-0.4522
4090,889,839,34.68,34.009,-0.0052,-0.0189,9.7984,-0.6131,0.3037,0.9725
4094,880,841,34.738,34.061,0.0593,-0.0755,9.7719,-0.9737,0.1157,-0.752
4100,869,839,34.716,34.121,-0.0245,0.0387,9.6833,0.0194,-0.0735,0.4225
4105,861,837,34.742,34.182,-0.0083,0.0215,9.829,0.4352,-0.0093,0.0185
4110,844,827,34.796,34.164,0.0099,-0.0974,9.8622,-0.6098,-0.1097,-0.8038
4115,841,827,34.757,34.026,-0.0041,0.0888,9.7836,-0.3471,0.5972,-0.6896
4120,836,825,34.785,34.143,0.0367,-0.0092,9.7713,-0.3993,-0.4356,-0.8064
4125,816,823,34.689,34.145,-0.0733,-0.005,9.8426,-0.6951,0.0602,-0.5232
4130,805,823,34.741,34.15,-0.0013,-0.0351,9.8558,-0.5082,-0.7895,-0.069
4135,801,821,34.749,34.167,0.0211,-0.0356,9.7806,0.1094,-0.3482,-0.2483
4140,797,814,34.772,34.087,0.0311,0.029,9.7839,0.259,0.4243,0.2908
4145,788,808,34.749,34.054,-0.0081,0.049,9.797,-0.6718,-0.3765,-0.1428
4150,778,806,34.727,34.108,-0.0064,0.0206,9.7306,-0.3485,0.9933,0.041
4155,771,806,34.749,34.061,0.0252,0.0275,9.8079,-0.2025,-0.9985,0.2653
4160,765,799,34.759,34.025,0.0546,0.0044,9.7461,0.2821,-0.6016,-0.3521
4165,761,793,34.756,34.014,-0.0359,0.0793,9.7786,-0.262,-0.0772,-0.3838
4170,761,788,34.793,34.112,0.0301,-0.0261,9.8132,-0.2717,0.0574,0.2316
4175,758,785,34.743,34.12,0.0702,0.0691,9.742,-0.2976,0.502,1.5363
4180,745,775,34.605,34.119,-0.0465,-0.0357,9.7543,-0.6163,-0.1121,-0.5066
4185,755,773,34.72,34.089,0.0638,0.0085,9.828,0.9805,-0.4292,-0.0831
4190,744,777,34.685,34.055,0.0176,0.0379,9.7591,-0.1814,-0.8131,-0.1787
4195,750,769,34.809,34.086,-0.0769,-0.0451,9.8326,0.1419,0.2105,0.5518
4200,744,764,34.792,34.207,0.1088,-0.0476,9.8144,0.5812,0.2536,-0.32
4205,750,759,34.788,34.096,0.0239,0.0214,9.8493,-0.3019,0.3098,-0.2556
4210,749,755,34.827,34.107,-0.0837,0.0402,9.8829,-0.2212,0.7323,0.3843
4215,754,752,34.713,34.069,-0.0261,0.0143,9.8307,0.3976,1.1007,-0.8262
4220,757,735,34.693,34.109,0.0379,-0.0481,9.8422,0.4387,-0.5846,-0.4639
4225,761,740,34.727,34.042,0.0338,-0.0277,9.8207,1.1949,0.3794,0.3605
4230,771,732,34.764,34.05,0.019,-0.0064,9.8344,-0.3602,-0.2631,0.0395
4235,773,726,34.802,34.078,0.0435,0.0811,9.8406,0.5766,0.1391,-0.1824
4240,775,719,34.802,34.117,0.0475,-0.0089,9.7527,0.3432,0.2806,-0.4702
4245,778,716,34.793,34.093,0.0574,-0.0512,9.8438,-1.0596,-0.205,-0.0355
4250,785,706,34.76,34.113,-0.07,0.1186,9.8125,-0.8471,0.0311,0.7534
4255,803,708,34.715,34.169,-0.0166,-0.0347,9.7915,-0.3986,0.5075,0.1085
4260,809,700,34.703,34.134,0.0439,0.0261,9.7992,0.3797,0.1111,-0.1673
4265,819,695,34.758,34.096,0.0027,-0.1249,9.7825,0.1495,0.9072,-0.0465
4270,828,686,34.689,34.031,-0.0373,-0.0002,9.9874,-0.6952,0.8091,-0.6468
4275,837,690,34.772,34.202,-0.0309,-0.1041,9.7895,0.0255,-0.332,0.0781
4280,853,683,34.726,34.088,-0.0128,-0.0429,9.8078,-0.468,-0.1296,-0.0319
4285,862,678,34.753,34.075,-0.0865,0.0641,9.8325,0.0851,-0.189,0.0326
4290,877,674,34.768,34.115,0.0254,-0.0318,9.8309,0.9094,0.6406,0.1065
4295,887,669,34.728,34.133,-0.0568,0.0711,9.8895,0.5231,-0.6053,-0.0042
4300,899,666,34.87,34.096,0.0178,0.0588,9.8428,-1.3265,0.0366,-0.276
4305,915,661,34.843,34.038,0.076,-0.0566,9.7513,-0.6556,0.2972,-0.0935
4310,933,667,34.782,34.045,-0.0349,0.0547,9.8366,-0.5418,-0.4104,-0.7865
4315,935,661,34.71,34.135,-0.0432,0.029,9.8366,0.1174,0.9644,-0.3938
4320,960,658,34.712,34.098,0.0481,0.0569,9.7923,-0.939,0.2375,-0.2879
4325,967,659,34.763,34.169,-0.0136,0.0116,9.8121,-0.5183,-0.4534,-0.2228
4330,980,658,34.767,34.087,0.0532,-0.0852,9.8204,0.3295,0.872,-0.0943
4335,983,665,34.705,34.033,-0.0866,-0.02,9.8447,0.1497,-0.4858,0.2353
4340,1001,659,34.727,34.116,-0.0482,0.0933,9.861,-0.1224,-0.0033,-0.8961
4345,1019,657,34.669,34.133,0.0518,0.0576,9.8049,0.3337,-0.346,-1.0098
4350,1038,660,34.775,34.182,-0.0501,-0.0222,9.8464,0.2608,-0.1084,1.0138
4355,1040,663,34.735,34.152,-0.0458,0.0401,9.8001,0.3005,-0.6394,-0.4982
4360,1057,663,34.678,34.075,0.011,-0.0508,9.8273,-0.3035,-0.2184,0.3725
4365,1073,664,34.715,34.135,-0.0842,0.0041,9.8207,0.4609,-0.6421,0.2756
4370,1082,675,34.807,34.095,-0.0592,-0.049,9.824,1.1639,0.2661,0.0627
4375,1085,679,34.755,34.114,-0.0261,0.0764,9.8102,-0.2929,0.532,0.307
4380,1108,679,34.78,34.155,-0.0491,0.0062,9.8358,0.6155,0.7313,-0.4445
4385,1108,684,34.78,34.051,0.0796,-0.026,9.7986,0.2661,-0.3939,-0.3613
4390,1119,688,34.769,34.114,-0.0205,-0.0809,9.815,-0.0903,0.4736,-0.6698
4395,1135,694,34.733,34.12,-0.0037,0.044,9.8651,-0.8148,0.9062,-0.2399
4400,1135,705,34.69,33.984,-0.0183,-0.0982,9.7938,-0.0412,0.6279,0.5995
4405,1148,705,34.758,34.147,-0.0739,-0.1123,9.8479,0.5283,0.1503,-0.3422
4410,1160,707,34.849,34.158,0.096,-0.0339,9.8497,0.4689,-0.118,0.1673
4415,1159,719,34.749,34.09,-0.006,-0.0465,9.7412,0.2732,0.7915,0.1745
4420,1164,726,34.769,34.129,0.0131,-0.074,9.7866,-0.1138,0.3605,-0.3321
4425,1166,736,34.778,34.117,0.0463,0.0406,9.7739,0.4968,-0.1655,-0.5498
4430,1173,735,34.652,34.046,-0.079,-0.0102,9.7882,-0.3415,0.2117,0.7245
4435,1173,743,34.688,34.072,-0.0751,0.013,9.8872,0.6108,-0.4596,-0.6486
4440,1176,749,34.767,34.077,0.0268,-0.029,9.7289,-0.0964,-0.1514,-0.6733
4445,1186,759,34.795,34.033,0.0031,-0.1511,9.8098,0.1669,0.1629,1.244
4450,1189,767,34.797,34.079,0.0028,0.0258,9.9125,-0.3776,0.8583,0.7907
4455,1181,766,34.817,34.054,-0.0058,0.0042,9.8547,-0.6884,-0.1766,-0.0115
4460,1188,779,34.776,34.042,-0.0196,0.0685,9.7942,0.2057,-0.4256,-0.3495
4465,1190,792,34.728,34.021,0.0156,0.059,9.7737,0.2745,-0.3249,-0.1308
4470,1192,795,34.808,34.002,-0.0549,0.0142,9.8009,-0.5065,-0.1499,-0.7205
4475,1192,797,34.797,34.082,-0.0051,-0.0739,9.7494,-0.2093,-0.6608,0.1863
4480,1188,810,34.734,34.165,0.013,-0.0197,9.7552,-0.452,0.5797,0.1605
4485,1181,814,34.709,34.189,0.025,-0.0807,9.8113,0.0885,0.6811,0.3042
4490,1189,823,34.739,34.151,-0.011,0.0433,9.7942,0.2426,-0.365,0.687
4495,1185,827,34.672,34.058,-0.0046,0.0351,9.6917,0.4313,-0.3067,-0.0214
4500,1173,838,34.826,34.097,0.0907,0.033,9.828,-0.4526,0.3498,-0.6588
4505,1176,841,34.709,34.069,-0.0696,-0.0013,9.8592,-0.1398,-0.0379,-0.2956
4510,1180,850,34.864,34.119,-0.0014,0.0583,9.7589,-1.0818,0.3944,-0.7751
4515,1166,849,34.694,34.016,-0.0784,-0.051,9.7916,0.6381,0.0621,0.0143
4520,1162,858,34.791,34.057,0.042,-0.0177,9.771,0.5434,0.0006,0.1039
4525,1166,867,34.857,34.001,-0.029,-0.0819,9.7723,-0.24,0.05,-0.7003
4530,1155,871,34.75,34.037,0.081,0.0357,9.8084,0.5739,-0.3979,0.6117
4535,1149,878,34.722,34.118,-0.0058,0.0042,9.8427,0.4398,0.282,-1.2024
4540,1154,882,34.721,34.064,-0.0563,-0.0178,9.7905,0.7363,0.0963,0.4692
4545,1142,883,34.736,34.07,-0.077,-0.0488,9.8027,0.144,0.0463,0.3526
4550,1144,893,34.73,34.045,-0.0163,0.0806,9.7321,-0.171,0.7877,0.4885
4555,1144,893,34.751,34.124,-0.0524,0.0555,9.898,0.8013,-1.152,-0.1905
4560,1142,900,34.825,34.002,0.0982,0.0245,9.7694,-0.8325,-0.9195,0.1968
4565,1138,895,34.717,34.111,-0.039,-0.0598,9.8348,0.0826,-0.0207,0.3274
4570,1132,897,34.726,34.072,0.0135,-0.0708,9.7391,0.483,-1.0334,-0.1681
4575,1125,899,34.806,34.118,-0.0191,-0.1245,9.8797,-0.5607,-0.4309,-0.6476
4580,1127,898,34.674,34.123,0.0017,0.0539,9.8668,0.3975,0.109,0.161
4585,1122,902,34.667,34.069,-0.0089,-0.0192,9.8176,0.5136,0.0551,-0.4077
4590,1109,898,34.719,34.171,-0.0334,-0.0057,9.8817,0.0985,-0.3776,-0.3811
4595,1115,910,34.702,34.071,-0.0806,0.004,9.7605,-0.396,0.4669,0.2573
4600,1105,906,34.754,34.078,0.025,-0.0544,9.7611,-0.4159,-0.5172,-0.2469
4605,1107,904,34.85,34.123,-0.0029,-0.0035,9.7758,-0.1507,0.3422,0.1725
4610,1115,902,34.702,34.138,-0.0561,-0.0179,9.9091,-0.1582,0.4487,0.179
4615,1105,908,34.733,34.12,0.0652,0.0365,9.7595,-0.0487,-0.0996,0.0834
4620,1097,899,34.665,34.14,-0.0032,0.0199,9.7103,0.2934,-0.4302,0.0621
4625,1106,900,34.771,34.032,-0.0494,-0.0661,9.8334,-0.2488,-0.4253,-1.2803
4630,1095,899,34.664,34.115,-0.024,0.0808,9.8841,-0.1428,-0.7962,0.3479
4635,1098,904,34.754,34.117,-0.0571,-0.0094,9.8003,-0.2456,-0.4659,-0.3666
4640,1089,903,34.673,34.053,0.045,0.0154,9.7828,0.1184,0.6055,0.1123
4645,1091,897,34.736,33.934,0.0351,-0.0301,9.7919,0.3628,-0.092,0.0853
4650,1092,895,34.848,34.065,-0.041,-0.0342,9.7749,0.4815,0.5454,-0.0042
4655,1085,892,34.751,34.088,-0.0584,-0.0309,9.7997,0.0729,-0.4211,-0.0367
4660,1081,892,34.738,34.165,0.0414,-0.0149,9.8289,0.7776,0.3128,0.6125
4665,1078,893,34.76,34.165,0.0923,-0.0118,9.7983,0.1968,0.0976,-0.3815
4670,1092,891,34.767,34.135,-0.0511,0.0303,9.8754,-0.0078,-0.2255,0.3865
4675,1080,886,34.744,34.124,-0.1268,-0.0283,9.8155,-0.4091,-0.8224,-0.4583
4680,1078,883,34.764,34.129,0.0522,-0.0006,9.8331,-0.5914,-0.61,-0.0862
4685,1069,888,34.82,34.197,-0.0292,-0.0026,9.6909,-0.2682,0.2697,0.266
4690,1057,880,34.808,34.09,-0.006,0.0065,9.865,-0.6136,-0.3288,0.2509
4695,1059,881,34.684,34.18,-0.039,-0.0036,9.7059,0.0989,-0.8388,0.1959
4700,1058,877,34.766,34.075,0.0311,-0.0488,9.8308,0.6473,0.0143,-0.5518
4705,1053,873,34.831,33.956,0.0419,0.1485,9.819,-0.0458,-0.0464,-0.163
4710,1052,869,34.694,34.047,-0.0161,0.0311,9.7971,-0.4391,0.5809,0.3399
4715,1052,871,34.637,34.089,0.0356,-0.0115,9.7755,0.152,-1.1392,-0.5488
4720,1040,868,34.718,34.088,-0.0607,-0.0404,9.8937,-0.2405,0.2711,-0.361
4725,1038,871,34.743,34.009,-0.0122,0.0155,9.8076,0.068,-0.284,-0.6035
4730,1033,866,34.765,34.053,-0.026,0.0127,9.8229,-0.0497,0.5574,0.0493
4735,1018,865,34.793,34.059,-0.035,0.0319,9.7804,0.3988,-0.3119,0.2736
4740,1015,862,34.792,34.138,0.0862,-0.0061,9.8495,0.0288,1.048,-0.2184
4745,1015,852,34.788,34.028,0.0011,-0.0162,9.8588,-0.663,-0.6874,-0.1051
4750,1002,857,34.674,34.005,-0.0193,0.0185,9.744,-1.0188,0.0457,0.0328
4755,993,856,34.823,34.093,-0.0846,0.0249,9.7712,0.0249,0.4353,0.0631
4760,981,856,34.775,34.09,-0.0427,-0.0072,9.8175,0.0255,-0.1853,-0.6566
4765,984,856,34.734,34.085,-0.0169,-0.0278,9.6988,-0.0844,0.2706,-0.0019
4770,972,854,34.709,34.143,0.0221,0.0033,9.7924,0.4276,0.0072,-0.2493
4775,962,849,34.751,34.084,0.0068,0.0146,9.803,0.3544,0.0801,-0.1214
4780,943,843,34.737,34.098,-0.0138,0.0384,9.8045,0.05,-0.3856,0.2314
4785,942,849,34.647,34.085,0.0069,0.0709,9.8193,-0.4964,-0.0103,0.2684
4790,933,850,34.69,34.07,-0.102,0.081,9.8396,-0.6644,-0.3704,-0.4971
4795,925,849,34.767,34.097,0.0121,0.0533,9.8053,1.2063,0.0284,-0.365
4800,921,847,34.746,34.087,-0.0721,-0.0042,9.7139,0.8321,-0.0464,1.4297
4805,909,843,34.73,34.14,0.0642,-0.057,9.7761,0.2124,-0.6037,0.0279
4810,904,843,34.732,34.177,-0.0518,0.0549,9.7856,0.3131,0.493,0.0435
4815,885,839,34.777,34.063,-0.0336,-0.0568,9.7354,-0.8142,-0.3744,0.181
4820,875,839,34.829,34.021,-0.0944,-0.0586,9.8011,-0.1929,0.5343,0.5477
4825,873,841,34.91,34.097,-0.0547,0.0471,9.7981,-0.7768,-0.1627,0.4181
4830,853,835,34.759,34.18,-0.0074,-0.0326,9.7476,-1.387,0.2437,0.2423
4835,841,834,34.763,34.108,-0.0544,-0.0063,9.7972,0.9192,-0.5343,0.2237
4840,836,834,34.697,34.161,0.0688,-0.0335,9.7793,0.308,-0.7077,-0.3915
4845,835,827,34.754,34.037,0.0435,-0.0366,9.8734,-0.7763,0.0251,1.5644
4850,821,825,34.809,34.106,0.0497,-0.0136,9.8756,0.2624,0.2265,-0.1227
4855,807,823,34.789,34.087,0.0862,-0.1265,9.7974,0.3902,0.1445,-0.003
4860,799,820,34.794,34.099,0.1652,0.0326,9.758,0.8672,-0.2656,0.2598
4865,788,815,34.662,34.094,0.0232,-0.0349,9.8065,0.229,0.4444,-0.0537
4870,784,821,34.773,34.045,-0.0092,0.0694,9.8639,0.1099,0.3213,-0.4198
4875,776,807,34.774,34.151,0.0501,0.0637,9.8661,-0.955,-0.9883,0.0359
4880,774,801,34.768,34.148,-0.035,-0.0059,9.7929,-0.3559,-0.085,-1.5759
4885,771,800,34.725,34.055,0.0322,-0.0451,9.775,0.5949,1.271,-0.2459
4890,762,795,34.732,34.129,0.0382,0.0341,9.8383,-0.2194,-0.5303,0.3849
4895,758,795,34.745,34.145,-0.0302,-0.0487,9.7633,-0.5778,-0.5921,-0.1253
4900,759,794,34.717,34.112,-0.0755,-0.0354,9.8069,-0.0488,0.1972,-0.2911
4905,750,781,34.712,34.116,0.0254,0.0298,9.8287,-0.4124,-1.0221,0.7692
4910,756,784,34.8,34.131,0.0822,0.0122,9.7101,-1.0775,-0.8562,0.0353
4915,746,768,34.7,34.092,0.0023,0.0422,9.9035,0.3438,0.7786,-0.1732
4920,748,774,34.856,34.225,0.0395,-0.0504,9.8257,-0.1482,-0.3217,0.6745
4925,746,766,34.673,34.103,-0.0558,-0.0053,9.8863,0.2786,0.3038,-0.8072
4930,751,759,34.762,34.015,0.0403,0.0051,9.8406,-1.2956,0.0086,0.9741
4935,750,752,34.926,34.082,0.001,0.0158,9.8064,-0.0224,0.84,-0.0742
4940,749,744,34.812,34.092,0.0213,-0.0724,9.811,0.58,-0.4744,-0.2426
4945,751,743,34.728,34.066,0.0194,0.0804,9.807,0.0987,0.8757,-0.4306
4950,761,733,34.776,34.101,-0.0953,-0.0871,9.8433,0.4158,-0.0963,0.5066
4955,757,727,34.671,33.956,0.0044,0.0223,9.8282,0.1675,0.3011,0.1248
4960,767,728,34.777,34.101,0.0388,-0.024,9.8341,0.0921,0.1139,-1.021
4965,771,719,34.724,34.107,-0.1267,0.0776,9.8484,0.3064,0.4297,-0.4468
4970,779,709,34.76,34.064,0.0364,0.0071,9.769,-0.0844,0.0145,0.0642
4975,793,710,34.777,34.08,-0.0335,0.0018,9.7353,0.3614,-0.2601,0.3143
4980,808,701,34.739,34.06,0.0277,-0.0355,9.7958,-1.0706,0.0581,0.5727
4985,802,701,34.85,34.141,0.0783,-0.0237,9.8802,0.1807,0.4595,0.1134
4990,819,697,34.705,34.224,-0.0253,0.0379,9.8212,-0.3862,-1.3049,-0.0254
4995,829,685,34.775,34.191,0.0207,-0.0035,9.832,-0.6614,0.1682,-0.2512
5000,831,682,34.773,34.147,-0.0238,-0.0156,9.8248,0.6724,0.9699,-0.1394
5005,852,682,34.779,34.131,-0.0076,0.0174,9.827,0.1817,-0.0371,-0.2971
5010,857,673,34.79,34.132,0.0691,-0.0112,9.7867,-0.1755,0.225,-0.1104
5015,873,677,34.774,34.121,0.0303,-0.0485,9.8707,0.2035,0.1111,0.6111
5020,890,669,34.741,34.06,-0.0814,0.0722,9.7749,0.0455,-1.0295,0.0009
5025,905,670,34.738,34.146,0.0302,-0.0395,9.8472,0.2535,0.0015,0.039
5030,913,666,34.81,34.092,0.0595,-0.0116,9.7752,0.6883,0.3367,-0.1112
5035,933,667,34.761,34.104,0.0557,-0.0288,9.8066,0.273,0.4609,0.084
5040,942,658,34.709,34.001,-0.0424,-0.0154,9.8189,-0.1652,0.1044,-0.6749
5045,955,664,34.831,34.103,0.1021,-0.0197,9.8381,0.5268,-0.597,-0.4154
5050,968,662,34.756,34.099,-0.0166,-0.0562,9.8138,-0.0463,-0.4049,0.2124
5055,984,659,34.698,34.101,-0.0095,0.072,9.736,-0.287,-0.4009,-0.1065
5060,986,656,34.791,34.14,-0.0852,-0.0307,9.9035,-0.1034,0.4644,0.3299
5065,1008,663,34.802,34.195,0.0123,0.0864,9.7807,-0.0012,0.373,0.4322
5070,1021,660,34.732,34.083,0.0105,0.0357,9.719,0.7427,0.8425,-0.4638
5075,1026,663,34.703,34.069,-0.0247,-0.0602,9.8302,-0.7236,0.5995,-0.3466
5080,1039,664,34.685,34.026,-0.0146,0.0092,9.7576,-0.2744,-0.3089,0.0379
5085,1053,665,34.669,34.131,0.0285,0.0121,9.7625,0.865,-0.6092,0.282
5090,1065,666,34.686,34.034,0.0967,0.0249,9.8424,-0.3088,0.4083,0.0407
5095,1079,670,34.882,34.043,0.0225,0.0029,9.8605,0.001,-0.2055,0.1401
5100,1087,667,34.754,34.147,0.0196,0.0322,9.7955,-0.2386,0.0986,-0.3025
5105,1099,682,34.813,34.071,-0.0373,-0.0765,9.8086,-0.0589,0.4729,-0.5374
5110,1107,682,34.771,34.177,-0.0067,0.0233,9.7981,0.4755,0.1461,-0.7016
5115,1121,687,34.777,34.14,0.1118,-0.0194,9.8926,-0.7146,-0.6749,-0.6058
5120,1128,692,34.768,34.084,-0.1027,0.0144,9.8111,0.2099,-0.1795,0.4511
5125,1143,696,34.796,33.996,-0.01,0.0112,9.82,-0.1573,-0.3238,-0.0939
5130,1141,701,34.768,34.163,-0.0541,0.0018,9.7846,-0.3329,0.1677,-0.5533
5135,1141,708,34.755,34.123,0.0118,-0.0088,9.7705,0.7739,-0.4717,1.6246
5140,1152,716,34.682,34.22,-0.0044,0.1511,9.7613,0.8235,-0.7649,-0.4569
5145,1169,725,34.798,34.117,-0.0571,-0.0306,9.8176,-0.5227,-0.3255,0.6659
5150,1178,723,34.774,34.088,0.0161,0.134,9.8884,-0.5665,-0.0187,-0.5123
5155,1178,737,34.82,34.114,-0.0404,-0.0065,9.8437,0.7901,-0.0065,0.9579
5160,1173,741,34.69,34.004,-0.0796,-0.0244,9.7251,0.6597,-0.6685,0.2911
5165,1185,754,34.638,34.053,-0.0988,-0.0161,9.829,0.3455,0.7453,-0.2389
5170,1177,758,34.772,34.163,0.0372,0.0176,9.7905,-0.3152,1.2291,-0.0312
5175,1178,764,34.622,34.07,-0.0237,0.0099,9.8145,-0.108,-0.0668,-0.491
5180,1184,772,34.696,34.056,-0.0524,-0.0256,9.9115,-0.0191,0.2094,0.1507
5185,1186,778,34.701,34.146,-0.0438,0.0349,9.8959,-0.1436,0.7559,-1.0701
5190,1183,790,34.65,34.114,-0.0301,-0.0339,9.7887,-0.4181,0.9583,-1.5845
5195,1187,790,34.726,34.118,-0.021,0.0356,9.7967,-0.2105,0.0257,0.7393
5200,1180,796,34.81,34.068,-0.0053,0.0193,9.8191,0.8231,0.0794,-0.6187
5205,1179,810,34.765,34.146,0.003,-0.0269,9.846,1.4043,-0.267,-0.1854
5210,1186,816,34.764,34.168,0.0502,-0.0168,9.7447,-0.3639,-0.1688,0.5668
5215,1181,821,34.75,34.178,-0.0546,-0.0485,9.7684,-0.4288,0.0341,0.6678
5220,1182,828,34.828,34.066,-0.0406,-0.0427,9.8282,0.3788,-0.3147,-0.0252
5225,1178,833,34.774,34.113,-0.0102,0.029,9.8428,-0.2468,-0.0918,-1.0217
5230,1173,841,34.671,34.155,0.0162,0.0521,9.8136,0.6583,0.1308,-0.4737
5235,1170,850,34.764,34.084,0.0329,-0.0602,9.7036,-0.0342,-0.0521,-0.182
5240,1174,857,34.749,34.122,-0.0277,-0.1042,9.7622,0.5837,-0.4116,0.2097
5245,1175,861,34.671,34.16,0.0051,0.007,9.778,-0.2083,0.1169,-0.2203
5250,1180,867,34.798,34.124,-0.019,0.0242,9.8527,0.3322,-0.2503,0.1976
5255,1154,870,34.788,34.139,-0.006,0.083,9.798,0.467,0.1182,0.5387
5260,1157,875,34.741,34.215,-0.0377,0.0338,9.8176,-0.6085,0.9823,-0.5663
5265,1148,883,34.797,34.074,0.0271,-0.1309,9.8291,-0.116,-1.0954,0.1084
5270,1150,880,34.713,34.124,0.0238,0.0007,9.8775,-0.4179,-0.3956,0.0887
5275,1148,886,34.706,34.05,0.0029,-0.0109,9.768,0.2901,0.3513,-0.0376
5280,1152,886,34.813,34.126,0.0004,-0.1343,9.9122,-0.1051,0.0833,-0.2774
5285,1139,890,34.7,34.128,-0.0141,-0.0376,9.7129,0.0823,-0.1909,0.0294
5290,1130,892,34.917,34.121,0.0015,0.0247,9.7301,0.3699,0.0868,-0.1741
5295,1136,895,34.732,34.126,-0.015,0.0229,9.7612,0.5477,0.2257,-0.3735
5300,1126,898,34.71,34.115,-0.1092,0.0678,9.8034,-0.3221,0.5894,-0.352
5305,1125,904,34.71,34.084,-0.0221,0.1242,9.7962,0.3048,-0.568,0.0439
5310,1130,906,34.797,34.139,-0.0122,-0.0999,9.7661,-0.0026,-0.1105,0.323
5315,1123,903,34.643,34.122,-0.0294,0.0268,9.7772,0.7758,0.6536,0.127
5320,1112,910,34.771,34.069,0.0319,0.0076,9.8029,0.9381,-0.8028,0.0297
5325,1120,905,34.724,34.049,-0.0302,-0.0791,9.8703,-0.2109,-0.073,-0.0881
5330,1111,901,34.753,34.172,0.021,0.0093,9.7804,-0.7737,0.5309,-0.4745
5335,1111,904,34.832,34.09,-0.022,-0.0154,9.882,0.8532,-0.1276,1.0484
5340,1099,907,34.776,34.101,0.049,-0.0938,9.8081,-0.3813,-0.463,-0.0964
5345,1103,903,34.657,34.136,-0.0734,0.0288,9.7918,-0.5333,0.6104,0.3719
5350,1099,907,34.777,34.1,-0.0439,0.0936,9.8045,0.2655,-0.4304,-0.4438
5355,1098,898,34.718,34.135,-0.0989,-0.015,9.7878,0.6169,0.4197,0.4669
5360,1090,899,34.702,34.16,0.0308,-0.0702,9.7782,-0.4972,-0.6483,0.3548
5365,1097,894,34.746,34.084,0.0269,0.0668,9.7353,0.1178,0.0872,0.0671
5370,1086,896,34.627,34.155,0.0594,-0.0336,9.8329,-0.7161,-0.0152,0.5161
5375,1087,897,34.793,34.039,0.037,0.047,9.7917,0.2688,0.4971,-0.0502
5380,1076,894,34.733,34.039,0.0311,-0.0734,9.797,0.4656,0.2605,0.7385
5385,1089,893,34.716,34.167,0.0206,0.0504,9.7986,-0.2056,-0.6208,-0.2638
5390,1082,888,34.794,34.101,0.0569,-0.0159,9.8552,0.0579,0.0862,0.1719
5395,1071,885,34.746,34.097,0.016,0.0774,9.8374,1.2525,0.51,0.111
5400,1081,888,34.742,34.12,-0.1095,0.086,9.7616,-0.8702,0.1388,-0.2443
5405,1076,885,34.757,34.063,0.0637,-0.0548,9.8045,0.9245,0.0298,0.004
5410,1082,884,34.741,34.137,0.1048,0.0351,9.8261,1.0517,0.2599,0.4975
5415,1075,876,34.763,34.126,-0.0123,-0.0165,9.8176,-0.1039,-0.1631,-0.4487
5420,1057,880,34.777,34.151,0.0081,-0.0574,9.7895,-0.4614,0.2545,0.0097
5425,1054,876,34.806,34.189,0.0298,-0.0014,9.8577,-0.1096,-0.734,0.1934
5430,1051,875,34.795,34.116,-0.013,-0.0236,9.8292,-0.1414,-0.2518,-0.5197
5435,1048,868,34.74,34.159,0.0052,-0.0426,9.7374,-0.1448,-0.2512,-0.2387
5440,1047,865,34.713,34.145,-0.0112,-0.0735,9.8815,0.7704,0.0463,0.1249
5445,1044,868,34.704,34.14,-0.0237,-0.0313,9.8107,-0.5671,0.7725,-0.499
5450,1035,868,34.696,34.091,-0.0748,-0.0244,9.8395,0.2747,-0.7931,-0.9516
5455,1026,862,34.775,34.101,0.0621,0.0223,9.8453,-0.0688,0.5484,-0.1652
5460,1019,866,34.662,34.082,-0.0696,0.0197,9.6756,-1.0309,-0.479,-0.3337
5465,1014,858,34.734,34.163,0.0564,-0.0647,9.8077,0.4224,0.0305,-0.0513
5470,1014,861,34.738,34.013,-0.0391,0.0035,9.8187,-0.4103,0.1877,-0.4559
5475,1007,858,34.723,34.153,-0.0336,0.0285,9.868,0.2367,0.0727,1.0804
5480,1000,857,34.687,34.009,-0.0361,0.0908,9.8627,-0.2101,0.1473,-0.2146
5485,992,856,34.674,34.079,-0.0045,0.0189,9.7379,0.0641,-0.6697,-0.2286
5490,981,853,34.779,34.154,0.0042,0.0728,9.866,-0.9381,1.1891,0.447
5495,973,853,34.785,34.057,0.0718,-0.0831,9.7983,0.6976,-0.2032,0.1362
5500,969,855,34.702,34.122,-0.0213,0.0316,9.86,0.6051,-1.0224,-0.143
5505,960,849,34.784,34.032,0.0493,-0.0842,9.7845,0.9685,0.1624,-0.7826
5510,938,847,34.73,34.104,-0.0632,0.0325,9.9237,0.22,-0.0803,0.4133
5515,938,848,34.77,34.097,-0.0991,-0.1083,9.773,0.1536,-0.3823,-0.1106
5520,922,850,34.797,34.186,-0.0964,0.0067,9.871,-0.1834,0.1636,-0.1994
5525,910,847,34.708,34.162,0.0048,-0.0378,9.769,0.1342,0.1594,-0.1427
5530,904,841,34.806,34.036,-0.0072,-0.0058,9.8437,1.092,-0.5893,0.3996
5535,903,843,34.754,34.116,-0.089,0.0354,9.8518,0.0418,0.0061,-0.0188
5540,889,843,34.719,34.057,0.01,-0.0848,9.843,-0.7008,-0.7461,-0.2822
5545,879,835,34.801,34.155,-0.0533,0.0038,9.8057,0.0694,-0.8035,1.0261
5550,870,837,34.654,34.093,0.0203,0.0272,9.7847,-0.1935,0.5086,0.1127
5555,861,832,34.838,34.156,0.0569,0.0227,9.8059,0.4292,0.1662,1.1231
5560,840,830,34.727,34.076,0.0212,-0.0853,9.8086,-0.193,0.072,-0.4091
5565,840,828,34.789,34.021,0.0159,0.0299,9.7359,0.1656,-0.1459,-0.0596
5570,830,828,34.729,34.159,-0.0302,0.0295,9.8242,0.3161,0.1967,-0.6299
5575,824,825,34.739,33.979,-0.0064,-0.1036,9.793,0.0456,-0.4125,-1.0825
5580,813,818,34.743,34.15,0.0127,0.0047,9.7491,-0.6173,-0.0284,-0.69
5585,802,816,34.705,34.069,0.0136,-0.0346,9.8718,-0.4931,-0.2811,0.2205
5590,800,818,34.691,34.136,-0.0697,0.0053,9.7912,0.5505,0.1182,-0.3028
5595,788,808,34.726,34.06,-0.0066,0.0758,9.9018,0.3283,0.4002,-0.2277
5600,780,813,34.824,34.245,0.0973,0.0166,9.7842,0.1815,1.0283,-1.0501
5605,773,805,34.707,34.147,-0.0496,-0.0698,9.7857,-0.2534,0.3456,-0.2839
5610,770,802,34.763,33.987,-0.0329,-0.0995,9.8194,-1.1034,0.6755,0.1426
5615,764,794,34.778,34.086,0.0705,-0.105,9.8824,-0.1531,-0.3773,0.1215
5620,752,794,34.77,34.14,-0.0218,0.1001,9.7792,-0.6636,-0.4105,0.3431
5625,757,791,34.727,34.088,-0.0304,-0.1105,9.8776,-0.9232,0.7005,0.502
5630,754,791,34.795,34.083,-0.0114,0.0483,9.8379,-2.053,0.4651,0.7533
5635,749,783,34.7,34.05,-0.0787,-0.0104,9.7716,-0.7422,0.7345,-0.4765
5640,757,776,34.669,34.072,-0.024,-0.05,9.8385,-0.2285,-0.2131,-0.2307
5645,751,769,34.726,34.04,0.0262,0.0457,9.8168,0.126,0.9817,-0.0175
5650,748,762,34.678,34.148,-0.0216,0.0746,9.8249,0.372,0.2249,-0.2554
5655,746,759,34.777,34.04,-0.0467,-0.0621,9.7288,0.2306,0.1635,-1.3096
5660,745,757,34.77,34.025,-0.029,0.0377,9.8174,0.2955,-0.0883,-0.1102
5665,750,746,34.788,34.098,0.0826,-0.0434,9.8174,-0.1927,-0.0398,0.6219
5670,753,739,34.709,34.175,0.0258,-0.0752,9.812,0.4036,-1.043,0.8261
5675,759,738,34.763,34.106,0.006,-0.1226,9.788,-0.3162,-0.0826,-0.6199
5680,753,733,34.793,34.108,0.0585,-0.1028,9.825,0.3334,0.5639,0.4495
5685,768,728,34.799,34.169,0.0472,0.0746,9.7865,-0.635,-0.3109,-0.1352
5690,774,716,34.771,34.178,-0.0535,0.0413,9.8147,0.0672,0.2187,1.5702
5695,785,717,34.657,34.089,0.0093,0.0124,9.8236,0.0565,0.0865,-0.8461
5700,789,709,34.777,34.098,0.0539,-0.0133,9.7952,-0.2468,-0.2564,0.1349
5705,795,705,34.842,34.154,0.0712,0.0089,9.8521,0.4073,0.2629,0.2215
5710,805,704,34.68,34.097,-0.1258,-0.0078,9.8102,-0.2146,0.1906,-0.0708
5715,822,695,34.77,34.171,0.0064,-0.0438,9.8047,-0.349,-0.1137,-0.7302
5720,826,694,34.686,34.081,-0.0374,0.0034,9.7824,0.2071,-0.1042,-0.5401
5725,834,683,34.735,34.036,0.0033,-0.0243,9.8154,0.4214,-0.6112,-0.1685
5730,848,685,34.831,34.215,0.0421,0.0045,9.8778,0.0105,0.5101,-0.0149
5735,862,683,34.775,34.084,0.0361,0.0083,9.7767,0.426,-0.4076,-1.422
5740,872,675,34.72,34.015,0.0434,-0.0122,9.7853,0.0606,-0.0964,0.9403
5745,886,673,34.718,34.073,0.0448,-0.0694,9.7697,-0.4702,-0.6437,-0.0502
5750,895,670,34.845,34.109,0.0435,0.0693,9.7517,0.257,0.0216,0.3596
5755,908,669,34.733,34.023,0.0048,-0.0077,9.8373,-0.6875,0.2307,0.2507
5760,925,664,34.811,34.081,-0.0478,0.0383,9.8336,-0.1462,-0.3246,-0.7362
5765,925,667,34.682,34.149,0.0271,0.0122,9.8273,-0.454,0.047,0.0588
5770,945,662,34.786,34.165,0.0273,-0.061,9.7501,-0.1221,-0.2112,0.3298
5775,975,661,34.805,34.119,0.0053,-0.0649,9.7569,-0.0461,-0.3598,-0.7759
5780,974,661,34.741,34.071,0.0406,0.0491,9.848,0.8631,-0.1482,0.8348
5785,991,657,34.686,34.152,0.031,-0.0842,9.7647,0.0322,-0.4232,0.5745
5790,995,659,34.729,34.103,0.0433,0.1312,9.845,-0.1477,0.7398,0.6721
5795,1014,657,34.614,34.113,0.0988,-0.0167,9.8014,0.2726,0.5162,0.5331
5800,1030,666,34.823,34.099,0.1335,0.0246,9.8058,-1.4733,-0.7488,-0.7557
5805,1044,664,34.69,34.045,0.0736,0.0792,9.7784,0.2937,0.6027,-0.738
5810,1048,668,34.727,34.013,0.042,-0.034,9.7022,0.5555,-0.5521,0.7111
5815,1064,662,34.775,34.084,-0.0648,0.0446,9.7371,-0.6499,0.1062,-0.523
5820,1083,665,34.714,34.114,-0.0056,0.0367,9.7891,0.1531,0.1467,-0.0095
5825,1089,668,34.739,34.031,0.0388,0.0186,9.795,0.1629,-0.2232,1.2957
5830,1096,673,34.725,34.136,-0.0766,-0.0355,9.8584,-0.0308,1.1674,-0.2141
5835,1107,688,34.712,34.216,-0.028,-0.0184,9.8154,0.5816,0.1597,-0.2675
5840,1117,688,34.719,34.092,0.0074,0.0617,9.7947,0.4917,-0.253,0.3166
5845,1127,689,34.759,34.189,0.1547,0.0598,9.8068,-1.065,0.4634,0.1594
5850,1133,693,34.787,34.127,-0.0054,-0.0687,9.8665,0.9436,-1.1304,0.9772
5855,1139,705,34.859,34.108,-0.0306,-0.0052,9.7695,-0.8582,-0.0629,0.4811
5860,1146,712,34.731,34.074,0.0675,0.0533,9.7299,0.5386,0.502,0.734
5865,1157,712,34.69,34.095,0.0002,0.0802,9.8459,-0.8237,0.0254,-0.3833
5870,1161,721,34.758,34.084,-0.0242,0.0873,9.8445,-0.4261,-0.5143,0.1381
5875,1167,727,34.738,34.098,0.0591,-0.021,9.8042,-0.4882,-0.4146,0.4307
5880,1164,734,34.722,34.185,-0.0186,0.0358,9.8299,-0.1338,0.7108,0.6416
5885,1172,739,34.729,34.136,-0.0285,-0.0153,9.8057,0.5499,-0.3976,-0.1593
5890,1180,744,34.746,34.148,-0.0136,0.0421,9.7816,0.0575,-0.6092,0.1389
5895,1192,752,34.771,34.109,0.0134,0.0417,9.8514,-0.1696,0.0917,0.0337
5900,1178,761,34.664,34.131,-0.0799,0.0358,9.8967,-0.4857,0.2054,0.7449
5905,1189,770,34.767,34.101,0.065,-0.0258,9.9159,0.0365,0.7148,-0.1818
5910,1183,778,34.844,34.217,-0.019,0.0395,9.7661,0.1563,0.3703,-0.0647
5915,1192,782,34.8,34.114,0.0758,0.0228,9.7532,0.286,-0.8838,0.026
5920,1176,788,34.852,34.142,0.0204,0.0484,9.8315,-0.1564,0.0208,-1.1131
5925,1189,803,34.834,34.081,0.0239,-0.0967,9.8626,0.5763,0.5427,-0.5192
5930,1190,813,34.695,34.118,-0.0308,-0.0865,9.8444,-0.6856,-0.4588,-0.284
5935,1190,819,34.775,34.122,-0.0896,-0.0186,9.8391,0.1896,-0.3317,-0.5612
5940,1187,825,34.783,34.178,-0.0549,-0.053,9.8453,0.0605,-0.2319,-0.722
5945,1185,831,34.843,34.096,-0.0235,-0.0363,9.8106,-0.8585,0.3111,-0.1048
5950,1182,835,34.692,34.068,-0.0021,-0.0668,9.8077,-0.187,-0.2106,0.4447
5955,1175,836,34.782,34.038,0.0101,0.0583,9.7848,0.0256,0.1035,-0.4528
5960,1174,854,34.678,34.108,-0.0364,0.0656,9.8143,-0.0298,0.1909,0.4767
5965,1172,855,34.701,34.098,-0.0098,0.0024,9.8139,0.622,0.8134,0.0645
5970,1171,860,34.744,34.145,-0.058,0.0605,9.6766,-0.7517,0.5948,-0.1866
5975,1163,869,34.674,34.135,0.0137,-0.0133,9.7816,0.5168,0.4284,-0.0967
5980,1161,871,34.769,34.116,-0.0266,-0.0729,9.8009,-0.4089,-0.6829,-0.6818
5985,1161,876,34.742,34.113,-0.0761,-0.0261,9.8373,-0.7521,-0.6817,-0.1556
5990,1149,878,34.695,34.113,0.0402,0.0433,9.8311,0.2431,0.011,-0.2978
5995,1147,883,34.76,34.101,0.0166,-0.0132,9.8565,-0.6108,-0.4738,-0.3529
6000,1145,887,34.761,34.072,-0.0323,-0.0469,9.8759,-0.1115,0.0531,-0.1513
6005,1138,888,34.695,34.104,-0.0225,-0.1142,9.7563,0.1861,0.4161,0.3483
6010,1143,894,34.649,34.161,0.0215,-0.0223,9.8187,-1.2718,0.3763,-0.4811
6015,1127,896,34.808,34.195,0.0361,-0.022,9.8261,0.2869,1.1102,-0.4871
6020,1136,892,34.703,34.047,0.0018,0.015,9.7763,-0.2149,0.0618,-0.3116
6025,1132,897,34.826,34.029,-0.0155,0.0453,9.7633,-0.5717,0.63,-0.3249
6030,1126,898,34.769,34.077,0.0025,-0.0354,9.7815,0.3022,0.3399,-0.0087
6035,1116,900,34.803,34.128,0.0427,0.0199,9.7922,-0.2357,-1.2576,0.1613
6040,1113,906,34.836,34.104,0.0063,-0.0507,9.8464,-0.1295,0.6744,0.0371
6045,1122,902,34.816,34.132,0.0669,-0.0777,9.8323,0.2035,0.3374,-0.1407
6050,1111,906,34.726,34.121,0.0007,0.0075,9.858,0.4531,-0.2487,0.3386
6055,1109,902,34.771,34.077,-0.0549,-0.003,9.9666,-0.5721,0.119,0.8419
6060,1104,909,34.73,34.076,-0.0825,-0.0446,9.7924,0.3654,-0.9504,-0.2078
6065,1101,906,34.721,34.056,0.0185,-0.0669,9.7848,0.3189,0.4272,-0.4711
6070,1101,904,34.742,34.009,0.0101,-0.0156,9.8253,0.4827,0.0451,-0.8234
6075,1102,906,34.712,34.088,-0.0157,0.0227,9.8273,-0.4816,0.5136,-0.4131
6080,1104,900,34.708,34.01,0.0071,0.0057,9.8712,0.3021,0.3538,0.414
6085,1085,901,34.733,34.124,-0.0186,0.0585,9.7731,-0.1592,0.5511,-0.5609
6090,1094,898,34.772,33.996,0.0189,0.0238,9.744,-0.7633,0.019,0.2592
6095,1089,894,34.776,34.124,0.021,0.031,9.9068,-0.1017,-0.1803,0.439
6100,1095,894,34.789,34.122,0.0023,0.0261,9.9404,0.164,-0.5717,-0.163
6105,1090,894,34.756,34.092,-0.0008,-0.0684,9.8635,0.1668,-0.3039,-0.3344
6110,1082,892,34.837,34.135,0.0115,-0.0077,9.7644,1.304,-0.1067,0.9
6115,1081,892,34.693,34.156,0.0073,0.0002,9.8531,-0.4549,0.0773,0.0376
6120,1079,891,34.744,34.059,-0.021,0.0587,9.7427,-0.274,0.8937,-0.2099
6125,1082,888,34.748,34.121,-0.0467,0.0505,9.7037,0.3043,-0.2343,-0.4579
6130,1072,885,34.739,34.129,-0.0454,0.0539,9.9056,-0.0596,0.1688,-0.0548
6135,1070,876,34.758,34.006,0.0198,-0.0852,9.8456,-0.6253,0.7825,0.8794
6140,1061,879,34.753,34.18,0.0117,-0.0396,9.7594,-0.8648,0.1427,-0.3997
6145,1066,879,34.693,34.139,-0.131,0.0048,9.8592,0.4243,-0.512,-0.2827
6150,1047,872,34.789,34.191,0.0499,-0.0167,9.8907,-0.7789,-0.0793,0.6318
6155,1066,878,34.829,34.103,0.0143,-0.044,9.8223,-0.1467,-0.3854,0.9301
6160,1051,874,34.684,33.994,0.0315,0.1088,9.7717,0.5364,-0.2581,-0.0104
6165,1050,865,34.778,34.099,0.038,-0.0324,9.8141,0.1904,-0.0375,0.1901
6170,1050,870,34.781,34.142,0.0583,0.0733,9.846,0.6839,0.1775,-0.4344
6175,1025,866,34.679,34.075,0.0444,0.0245,9.782,-0.1366,0.184,0.0
6180,1032,867,34.746,34.165,0.0065,-0.0099,9.8653,-0.0281,-0.2888,0.3363
6185,1020,861,34.747,34.118,0.0191,-0.0484,9.8158,0.3032,-0.3156,0.612
6190,1031,862,34.791,34.115,0.0416,0.0056,9.7357,-0.268,-0.4276,-0.1855
6195,1005,865,34.743,34.064,0.0522,0.026,9.7682,-0.844,0.8104,0.3599
6200,1009,858,34.755,34.051,-0.0916,-0.0379,9.6752,0.1485,0.8257,-0.1337
6205,994,855,34.778,34.085,-0.053,-0.0509,9.7457,0.3804,0.3038,-0.2563
6210,987,854,34.767,34.087,-0.0084,-0.0586,9.8078,0.6517,-1.0712,-0.036
6215,981,859,34.684,34.066,-0.0409,0.0096,9.8275,0.2287,0.634,0.2524
6220,970,850,34.718,34.067,-0.0025,0.0681,9.9396,-0.1856,-0.1034,0.5324
6225,967,854,34.792,34.108,0.0733,-0.0396,9.7079,0.4577,0.2797,0.2304
6230,964,848,34.818,34.018,0.003,-0.0107,9.7283,0.1964,0.2411,-0.817
6235,943,856,34.774,34.047,0.0985,0.0166,9.7995,-0.2999,0.6933,-0.0327
6240,933,845,34.759,34.069,0.0479,0.0262,9.7961,0.0958,-1.3593,0.8309
6245,929,845,34.737,34.113,0.0803,-0.0104,9.8588,0.3693,-0.1824,-0.3294
6250,919,844,34.723,33.993,-0.1152,-0.038,9.8783,-0.1249,-0.859,0.8163
6255,903,841,34.701,34.015,-0.0514,-0.0231,9.7795,-0.1162,-0.0451,0.5122
6260,903,842,34.735,34.084,0.0905,-0.0273,9.7727,0.0923,-0.8824,-0.0674
6265,885,844,34.749,34.118,-0.0765,0.0405,9.7983,-0.477,0.6384,0.4266
6270,882,831,34.632,33.994,-0.0936,0.0478,9.8588,-1.4416,-0.1772,0.257
6275,858,839,34.819,34.163,-0.0147,-0.0234,9.7727,-0.2653,0.7282,0.6697
6280,857,835,34.703,34.128,0.0554,-0.0322,9.804,0.809,-0.208,-0.1286
6285,847,830,34.832,34.15,0.058,-0.0204,9.949,0.723,-0.1833,-0.3865
6290,834,834,34.86,34.125,-0.0679,0.01,9.8021,-0.5187,-0.7194,0.3905
6295,832,832,34.709,34.15,0.0344,0.0623,9.8608,-0.4625,-0.7638,-0.1529
6300,819,828,34.785,34.096,0.0192,0.0666,9.8388,-0.8226,1.1456,-0.6098
6305,813,826,34.74,34.118,0.0467,0.0439,9.8781,0.3546,0.1463,-0.0698
6310,815,821,34.695,34.077,0.0093,0.0241,9.7924,-1.2164,-0.0079,1.1439
6315,797,819,34.75,34.077,-0.103,0.0063,9.7806,-0.6768,0.1191,0.6416
6320,789,818,34.812,34.204,0.1035,0.0828,9.7503,-0.3171,0.2988,-0.4134
6325,778,810,34.772,34.16,-0.1411,-0.0187,9.9021,0.7836,0.0109,0.2309
6330,768,802,34.785,34.144,-0.01,-0.1094,9.8001,0.467,0.5562,-0.5227
6335,766,800,34.681,34.097,-0.0252,0.0212,9.7187,-0.9154,0.7269,-0.498
6340,770,799,34.716,34.077,0.0849,0.0175,9.7788,0.4263,-0.8161,-0.8954
6345,767,796,34.774,34.148,0.0534,0.0062,9.7639,-0.5657,0.5254,-0.9808
6350,752,790,34.699,34.123,-0.0142,0.1065,9.7462,-1.1713,-0.2641,-0.9601
6355,754,791,34.815,34.21,-0.067,0.0262,9.7037,0.8167,-0.065,0.2404
6360,750,781,34.771,34.048,0.0309,0.0631,9.8553,0.0432,-0.6951,0.0502
6365,750,781,34.755,34.113,-0.1029,0.0418,9.7257,0.8592,0.2838,1.0962
6370,754,771,34.807,34.093,0.0217,0.0127,9.847,-0.3197,-0.1793,-0.6333
6375,745,762,34.792,34.096,0.0195,-0.0179,9.8502,0.5149,0.2259,0.0984
6380,751,762,34.812,34.124,-0.0218,-0.0158,9.9297,0.4854,-0.3398,0.6281
6385,761,759,34.797,34.103,-0.0469,0.0073,9.8131,-0.3082,-0.8864,-0.6869
6390,753,748,34.706,34.115,-0.0303,-0.0209,9.869,-0.1175,-0.1898,0.0866
6395,762,743,34.775,34.032,-0.003,0.0864,9.6772,0.593,-0.1392,-0.712
6400,760,739,34.788,34.056,0.0686,0.0055,9.7821,-0.3501,-0.7784,-0.2255
6405,764,736,34.774,34.137,0.0553,0.0291,9.7895,-0.4692,-0.4326,-0.2119
6410,765,731,34.824,34.081,-0.0206,-0.0331,9.7857,-0.1349,0.0892,-0.2815
6415,773,724,34.714,34.085,-0.0064,-0.0187,9.7563,-0.4332,-0.2113,0.0265
6420,785,714,34.641,34.06,-0.0794,0.0153,9.7381,-0.4353,-1.4844,-0.3489
6425,795,712,34.762,34.095,0.1645,0.0051,9.8388,0.5191,0.1517,0.2662
6430,804,711,34.817,34.038,0.0552,0.0173,9.8103,-0.1927,-0.4055,0.4921
6435,805,700,34.714,34.151,0.0343,0.0227,9.7712,0.6187,0.0553,-0.4406
6440,816,697,34.769,34.087,0.0363,-0.0034,9.8017,-0.3469,0.2361,-0.6488
6445,821,692,34.734,34.127,-0.0021,0.0176,9.7569,0.1314,0.1233,-0.3848
6450,831,683,34.669,34.192,0.0473,-0.0956,9.8654,-0.3457,0.123,0.0525
6455,852,688,34.684,34.046,0.0043,-0.0261,9.8516,-0.1427,-0.3625,-0.3844
6460,861,676,34.821,34.079,0.0368,0.0306,9.8972,0.1758,-0.3132,0.6196
6465,866,673,34.704,34.153,0.0399,0.0603,9.8404,-0.7618,0.3425,-0.4924
6470,883,666,34.691,34.043,-0.0005,0.0554,9.8994,-0.8497,0.243,0.3546
6475,899,675,34.807,34.212,0.002,0.0488,9.7732,0.045,-0.1781,-0.4191
6480,915,664,34.763,34.196,-0.0774,-0.0344,9.7235,-1.2456,0.5735,0.2687
6485,912,668,34.786,34.031,0.0607,0.0089,9.7753,0.0243,0.2905,-0.1367
6490,942,663,34.745,34.165,0.0009,0.0122,9.7116,-0.2276,-0.0396,0.7238
6495,948,658,34.763,34.087,0.0211,-0.0285,9.7425,-0.1214,0.0862,0.5324
6500,957,659,34.686,34.164,0.0418,-0.0039,9.8045,0.6209,-0.9221,0.6369
6505,972,662,34.798,34.084,-0.0731,0.0482,9.784,-0.2057,0.3415,-0.5216
6510,985,660,34.743,34.124,-0.0075,-0.095,9.8122,-0.156,-1.0631,-0.0931
6515,1003,663,34.749,34.01,-0.0027,-0.0298,9.8196,-0.2474,0.2248,-0.6702
6520,1021,660,34.717,34.161,-0.0011,0.033,9.7213,0.4961,-0.0662,-0.0936
6525,1034,660,34.768,34.122,0.1413,0.0203,9.8492,0.5618,0.567,-0.0598
6530,1050,664,34.72,34.117,-0.0446,0.0441,9.7738,-0.5448,0.1273,0.269
6535,1053,667,34.724,34.236,0.0637,0.0083,9.8118,-0.0473,0.2675,-0.9875
6540,1053,667,34.759,34.12,0.1464,-0.0366,9.7132,0.0528,0.6473,-0.2518
6545,1075,671,34.772,34.117,0.074,0.0064,9.7628,-1.0916,0.5648,-0.5513
6550,1086,672,34.77,34.153,0.0289,-0.0815,9.8057,0.3917,-0.0406,-0.5106
6555,1096,673,34.764,34.067,0.0595,0.0936,9.8866,0.6489,0.187,-0.5942
6560,1110,685,34.787,34.08,-0.0126,-0.0271,9.8229,1.0713,-0.5203,0.4893
6565,1119,685,34.795,34.098,-0.0123,-0.0786,9.9582,-0.1672,0.8237,-0.5636
6570,1119,693,34.745,34.139,-0.0207,0.1381,9.804,0.086,-0.1531,-0.1759
6575,1137,700,34.769,34.148,0.0281,-0.01,9.8105,-0.7433,-0.8083,-0.6969
6580,1139,704,34.765,34.104,-0.0392,0.0518,9.8183,-0.3655,0.6537,0.3141
6585,1151,708,34.719,34.144,0.0095,0.0138,9.7865,0.3895,-0.3694,0.147
6590,1161,714,34.702,34.122,-0.0123,-0.0244,9.7653,0.0612,-0.5384,-0.425
6595,1154,726,34.726,34.134,0.0111,-0.0167,9.8067,-0.0897,0.0233,-0.2281
6600,1165,728,34.758,34.105,0.0288,-0.0166,9.7466,0.2328,-0.644,0.452
6605,1170,736,34.748,34.082,-0.0316,0.0724,9.7296,0.1931,-0.1536,0.5485
6610,1162,743,34.727,34.144,-0.1196,-0.0284,9.7888,0.0791,-0.7329,0.4271
6615,1182,746,34.85,34.036,-0.0648,0.0565,9.804,0.021,-0.1643,-1.222
6620,1192,751,34.863,34.104,-0.0094,0.0842,9.806,-0.3575,0.0209,0.2445
6625,1183,763,34.828,34.131,0.0131,-0.0103,9.7744,0.1999,-1.4611,0.2012
6630,1180,769,34.78,34.135,0.0015,0.0329,9.9199,-0.3014,0.675,0.1027
6635,1182,775,34.798,34.172,-0.0615,-0.0132,9.8266,-0.7649,0.8079,-0.8834
6640,1186,783,34.75,34.11,0.012,0.0025,9.7232,0.0455,0.1999,0.2933
6645,1182,796,34.708,34.123,-0.0248,-0.0706,9.7985,0.1829,-0.3708,0.5854
6650,1184,804,34.725,34.152,-0.0503,0.0178,9.852,0.5442,0.3324,-0.6517
6655,1195,808,34.775,34.09,0.0345,0.0543,9.8209,0.3502,0.2892,0.2738
6660,1184,816,34.784,34.039,-0.0811,0.0224,9.9593,0.0311,-0.431,0.7205
6665,1175,820,34.763,34.049,-0.0194,0.0151,9.8122,0.2168,1.1282,-0.1623
6670,1177,824,34.792,34.065,0.0216,-0.052,9.782,0.0771,0.074,-0.4811
6675,1189,836,34.781,34.116,0.0475,-0.022,9.8773,-0.2893,0.066,-0.1599
6680,1180,840,34.746,34.109,0.0781,0.0099,9.883,0.4827,0.4386,0.4192
6685,1176,847,34.803,34.193,-0.0023,0.0124,9.7718,-0.1136,-0.1561,-0.4644
6690,1171,853,34.69,34.163,0.0043,0.0844,9.7594,-0.4693,-0.3509,0.3221
6695,1171,856,34.82,34.122,0.0053,-0.0245,9.8355,-0.7427,0.0238,0.2832
6700,1167,867,34.75,34.094,0.0553,-0.0015,9.8301,-0.7141,-0.1641,0.7687
6705,1168,871,34.752,34.131,0.0271,0.0446,9.7786,-0.1712,0.2707,-0.2
6710,1161,874,34.769,34.037,0.0162,0.0443,9.6954,-0.0696,0.3896,0.3113
6715,1163,875,34.696,34.067,-0.0216,-0.0066,9.8065,-0.0076,0.6601,-0.2722
6720,1152,887,34.821,34.043,0.0124,-0.0207,9.8566,-0.1096,-0.8202,-0.0116
6725,1141,890,34.746,34.17,-0.0143,0.0453,9.849,-0.0335,-0.0981,0.4162
6730,1144,887,34.789,34.185,-0.0662,0.0355,9.8513,0.0275,0.0025,0.2373
6735,1148,895,34.74,34.108,0.0914,-0.0856,9.653,0.2588,0.3178,-0.617
6740,1136,895,34.757,34.155,0.0194,0.0126,9.7784,0.5047,-0.3474,0.0007
6745,1145,896,34.724,34.015,0.0186,-0.0127,9.8111,0.3366,0.0924,-0.2509
6750,1131,895,34.696,34.112,0.0827,-0.0668,9.8593,-0.056,-0.5848,0.0718
6755,1132,899,34.785,34.154,0.0158,-0.0636,9.8101,0.6478,0.393,-0.2902
6760,1115,901,34.776,34.18,-0.0218,-0.035,9.7466,-0.2252,0.5468,0.1561
6765,1121,904,34.762,34.041,-0.0346,-0.0246,9.7415,-0.6905,-0.6308,0.2574
6770,1121,902,34.842,34.013,0.0079,-0.0093,9.7981,0.3517,-0.38,-0.2009
6775,1123,904,34.798,34.195,-0.0404,-0.002,9.7856,-0.5501,-0.7494,-0.1828
6780,1100,903,34.807,34.186,-0.0216,-0.0463,9.8857,0.6114,0.2239,-0.6696
6785,1113,904,34.679,34.116,0.0189,0.0075,9.8031,-0.33,1.2972,0.5113
6790,1100,907,34.732,34.139,-0.0381,-0.0196,9.7924,0.2823,-0.0614,0.2309
6795,1094,907,34.836,34.141,-0.0376,0.0629,9.8655,-0.5983,-0.4812,0.3265
6800,1112,902,34.816,34.066,0.0057,0.0326,9.8373,-0.2446,0.2362,-0.0841
6805,1090,900,34.737,34.093,-0.017,0.0178,9.8152,0.5023,-0.0986,-0.5149
6810,1100,903,34.753,34.108,-0.0553,-0.0698,9.8557,-1.3989,-0.5232,-0.4008
6815,1091,902,34.675,34.135,-0.0689,0.0551,9.8417,0.2747,0.1989,0.1251
6820,1087,895,34.752,34.128,0.0838,-0.0963,9.7855,-0.2928,-0.0152,-0.9891
6825,1091,894,34.646,34.049,0.046,0.0096,9.8651,0.4364,0.1265,0.2608
6830,1081,898,34.832,34.045,-0.0094,0.0707,9.8286,-0.4388,0.3632,-1.0272
6835,1082,893,34.794,34.08,-0.0132,0.0161,9.8299,-0.9599,0.9369,0.318
6840,1081,894,34.729,34.155,-0.0137,0.0108,9.8062,0.3956,-0.0532,0.2099
6845,1079,887,34.791,34.126,0.0683,-0.0404,9.8427,0.0609,0.1168,-0.1022
6850,1070,888,34.691,34.042,-0.0171,-0.0312,9.7501,-1.1159,-0.5338,-0.1125
6855,1075,882,34.799,34.172,0.0941,0.0346,9.762,-0.194,0.5965,0.4947
6860,1071,887,34.724,34.145,0.0318,0.0446,9.7705,-0.5623,0.7163,-0.0445
6865,1065,880,34.743,34.149,0.0238,0.0165,9.8152,-0.7995,-0.1074,0.2264
6870,1060,880,34.82,34.058,0.0453,0.0298,9.8353,1.0676,0.8555,-0.5878
6875,1069,875,34.748,34.084,0.0132,-0.0169,9.8714,-0.5429,-0.6894,0.2522
6880,1060,874,34.784,34.163,0.0435,0.0394,9.7628,-0.1601,0.4113,-0.1853
6885,1048,876,34.682,34.133,0.1489,-0.0146,9.7926,-0.1319,-0.1824,-0.3557
6890,1046,874,34.806,34.107,-0.0991,0.0233,9.8274,-1.0337,0.0612,0.4212
6895,1044,870,34.78,34.022,-0.0681,-0.0182,9.7362,-0.1934,0.2729,-0.2876
6900,1032,865,34.769,34.125,-0.0523,-0.0057,9.8612,-0.6136,0.3652,0.1168
6905,1028,863,34.722,34.225,-0.147,0.1618,9.7807,-0.5613,-0.1485,0.9093
6910,1030,861,34.711,34.107,0.0057,0.0364,9.8652,0.0824,-0.5159,0.7386
6915,1020,860,34.736,34.1,-0.0214,0.0415,9.8623,-0.0698,0.1461,0.1627
6920,1018,857,34.825,34.134,0.0342,-0.1299,9.8461,0.0418,-0.1009,0.4018
6925,1004,858,34.777,34.04,-0.0121,0.0194,9.8023,0.3519,-0.2509,-0.7791
6930,999,859,34.861,34.114,-0.092,0.0347,9.8714,0.4618,-0.3559,-1.054
6935,990,853,34.78,34.17,-0.0912,0.0552,9.7653,-0.8974,-0.8732,0.6101
6940,980,855,34.769,34.095,-0.0005,0.0466,9.7746,-0.637,-0.2106,-0.2742
6945,980,849,34.798,34.144,0.0054,-0.0665,9.8413,0.6791,0.0059,0.3799
6950,964,847,34.745,34.145,0.0081,-0.0467,9.8292,0.0273,0.6991,-0.095
6955,951,850,34.78,34.125,-0.0981,0.0506,9.9017,-0.1684,1.264,-0.4693
6960,943,849,34.779,34.129,-0.018,-0.079,9.7451,-0.5098,-0.0875,0.4509
6965,946,850,34.834,34.165,-0.0171,-0.024,9.8282,0.6116,0.8915,-0.767
6970,931,846,34.774,34.125,0.0279,-0.0018,9.8657,-0.6225,1.0468,-0.4029
6975,922,846,34.699,34.062,-0.0151,0.0266,9.7574,0.4721,-0.5081,-0.9016
6980,910,846,34.822,34.157,0.0502,0.008,9.8175,-0.123,0.034,-0.1755
6985,902,842,34.831,34.085,0.0369,-0.0401,9.8279,-0.0457,1.3924,0.5374
6990,897,843,34.697,34.102,-0.0589,-0.0426,9.8717,0.0879,0.0868,0.0831
6995,884,833,34.779,34.107,0.0131,-0.0462,9.7853,-0.1292,-0.2484,0.0218
7000,871,837,34.772,34.16,0.0371,0.0295,9.7598,-0.078,-0.7041,-0.3197
7005,856,834,34.699,34.098,-0.0125,-0.009,9.7927,-0.2224,-0.0212,0.0275
7010,853,839,34.783,34.105,0.0709,0.0262,9.6992,1.0048,0.1056,-0.2182
7015,835,827,34.805,34.052,0.1164,-0.014,9.7921,0.022,-0.1552,0.4323
7020,838,831,34.768,34.028,-0.0686,0.0037,9.8234,-0.2206,0.6911,0.2248
7025,821,826,34.726,34.182,-0.0389,-0.0202,9.8181,0.0411,-0.8519,0.5313
7030,807,826,34.802,34.079,-0.0699,-0.0894,9.7875,-0.3149,-0.0597,0.1992
7035,809,816,34.795,34.089,0.0056,-0.0099,9.8408,-0.5496,0.0813,-0.0132
7040,794,821,34.675,34.153,-0.1003,0.0112,9.8274,0.1621,0.7594,0.0295
7045,794,813,34.777,34.126,0.0403,0.0058,9.8617,-0.3871,0.8094,-1.0566
7050,779,811,34.835,34.163,-0.0417,-0.0176,9.7937,-0.0112,0.0912,0.6195
7055,776,811,34.7,34.125,-0.0266,0.03,9.7009,0.4501,-0.3265,-0.2693
7060,767,802,34.621,34.132,-0.0377,0.0067,9.8114,0.5098,-0.2128,-0.4831
7065,763,798,34.702,34.13,0.0147,-0.0557,9.8279,-0.5767,-0.2123,0.2784
7070,756,793,34.784,34.03,0.0458,0.0291,9.7996,-0.7593,0.2824,-0.3815
7075,758,787,34.856,34.164,-0.0326,-0.015,9.8017,0.1351,-0.0594,-0.4478
7080,753,788,34.75,34.188,0.0147,0.0567,9.6661,-0.0532,-0.2663,0.0277
7085,754,778,34.8,34.061,-0.0574,-0.0428,9.824,0.3854,-0.4165,0.4499
7090,745,775,34.837,34.06,0.0531,0.0473,9.8221,0.3937,0.1024,-0.4992
7095,743,772,34.702,34.057,-0.0165,-0.0045,9.8192,-0.048,-0.3305,0.8412
7100,742,759,34.816,34.187,0.0181,0.0165,9.8755,-1.1161,-0.0771,0.3428
7105,741,763,34.836,34.158,0.0809,-0.0292,9.7989,-0.1566,0.0709,0.3087
7110,747,752,34.792,34.112,0.0936,0.0426,9.8693,0.191,0.0264,0.0204
7115,742,748,34.732,34.069,-0.0001,-0.0585,9.8388,-0.4974,-1.0629,0.353
7120,758,743,34.772,34.098,-0.0042,-0.0189,9.8053,0.1202,0.2342,-0.4237
7125,760,743,34.758,34.049,-0.0071,-0.0235,9.7122,0.5266,0.6154,-0.1237
7130,762,733,34.767,34.09,0.0287,-0.0084,9.8072,-0.1645,-0.4246,0.572
7135,769,727,34.778,34.142,0.0532,-0.0371,9.6753,0.4966,-0.9826,0.2057
7140,769,721,34.76,34.15,-0.1777,-0.0433,9.7589,-0.34,-0.527,-0.6735
7145,772,718,34.804,34.009,-0.1083,0.0592,9.8498,-0.8393,-0.1301,0.9501
7150,778,711,34.71,34.055,0.039,-0.0257,9.7967,0.1062,-0.0575,-0.291
7155,796,705,34.886,34.112,-0.0256,0.0086,9.728,0.2783,0.4699,0.4107
7160,799,704,34.764,34.186,0.0165,0.0271,9.8208,0.8364,-0.4215,1.0538
7165,806,700,34.804,34.2,-0.02,-0.0221,9.8383,-0.247,-0.2794,0.3754
7170,826,687,34.727,34.077,-0.0031,-0.0181,9.81,0.0351,1.148,-0.9355
7175,833,690,34.706,34.081,-0.036,-0.0471,9.8177,-0.6865,-0.255,0.5721
7180,841,679,34.76,34.131,0.0052,0.0374,9.8891,-0.3717,-0.0416,0.8498
7185,859,680,34.669,34.106,-0.012,-0.0304,9.8081,-1.0006,-0.4434,0.6266
7190,861,675,34.793,34.026,0.0266,-0.0306,9.8319,-0.2674,-0.1669,-0.5416
7195,880,668,34.734,34.156,-0.0217,-0.0275,9.8693,-0.2374,-0.3459,-0.0632
7200,897,673,34.883,34.196,-0.002,-0.0242,9.7685,0.1207,-0.5452,-0.5138
7205,898,665,34.783,34.083,0.0689,-0.0065,9.8676,0.2749,-0.0678,0.6252
7210,924,665,34.764,34.053,-0.0468,-0.0377,9.8111,-0.1632,0.4399,-0.2587
7215,929,661,34.818,34.161,0.0516,-0.0739,9.7575,0.0145,-0.775,0.0911
7220,945,662,34.739,34.094,0.0191,0.0464,9.7769,0.5687,1.4741,-0.7877
7225,960,661,34.75,34.05,0.0059,-0.024,9.808,0.0038,0.4805,0.2947
7230,966,654,34.707,34.115,-0.0163,-0.0721,9.7939,-0.4946,0.2883,0.2071
7235,990,657,34.705,34.099,-0.0624,-0.0438,9.8155,-0.5832,0.5975,0.1729
7240,992,660,34.738,34.184,0.0359,0.0331,9.8802,-1.0677,-1.0962,-0.7921
7245,1011,657,34.825,34.116,-0.0424,-0.0155,9.8101,-0.2262,-0.0059,0.2748
7250,1029,657,34.804,34.121,-0.0518,-0.0835,9.7837,-0.405,-0.7872,-0.0483
7255,1037,665,34.65,34.198,0.01,0.0614,9.7437,0.7356,0.1837,-0.0041
7260,1048,662,34.825,34.169,0.0043,-0.0236,9.8361,0.1351,-0.0868,0.1515
7265,1063,669,34.75,34.083,0.0714,0.0935,9.8569,0.0459,0.3722,1.1669
7270,1072,671,34.737,34.099,-0.048,-0.0069,9.7591,-0.2658,0.214,0.0318
7275,1087,675,34.718,34.088,0.0913,-0.0155,9.835,-0.4583,-1.1367,0.3557
7280,1093,679,34.827,34.086,-0.0391,-0.0404,9.7945,0.0795,0.7043,1.1595
7285,1110,682,34.705,34.026,0.0174,-0.0144,9.7643,-0.3624,0.6595,0.475
7290,1113,692,34.703,34.097,0.0324,-0.0325,9.8642,0.933,-0.1968,0.5806
7295,1127,689,34.772,34.165,-0.0214,0.0486,9.7963,-0.1821,-0.0203,0.058
7300,1130,695,34.726,34.111,0.0242,0.0489,9.874,0.0725,-0.872,0.0441
7305,1140,705,34.789,34.073,-0.0107,0.0119,9.8291,-0.0015,-0.8045,-0.2002
7310,1145,706,34.798,34.172,-0.0737,0.0716,9.8496,0.2389,0.8638,0.2132
7315,1154,713,34.83,34.114,0.0128,-0.0286,9.8644,-0.2818,-0.8373,-0.696
7320,1156,720,34.67,34.067,0.0213,-0.0206,9.7839,-0.3391,-1.4897,-0.7079
7325,1171,731,34.684,34.136,0.0773,0.0477,9.7746,-0.1426,-0.3664,-0.1486
7330,1173,727,34.717,34.237,-0.0151,-0.0992,9.7878,-0.6214,0.5474,-0.5089
7335,1179,735,34.72,34.103,-0.0284,-0.0067,9.8079,-0.3715,-0.2129,-0.2722
7340,1174,751,34.784,34.028,0.0107,-0.0025,9.8425,-1.0117,-0.2596,0.5932
7345,1192,754,34.821,34.092,-0.0067,-0.0156,9.7509,-0.0022,-1.4401,-0.1543
7350,1180,762,34.748,34.01,0.0381,0.0582,9.8,0.0781,0.6746,-0.2325
7355,1183,767,34.728,34.067,0.0662,-0.0746,9.7719,-1.7217,0.1652,0.2538
7360,1187,775,34.716,34.179,0.0324,-0.0451,9.8893,0.0918,-0.2364,-0.082
7365,1191,780,34.796,34.113,-0.0768,0.0532,9.8359,0.2731,-0.6753,-0.0462
7370,1189,789,34.74,34.107,0.0157,0.036,9.7251,-0.8988,-0.054,0.4416
7375,1197,799,34.875,34.101,-0.0492,0.0476,9.8795,-0.205,-0.0012,0.0809
7380,1180,801,34.757,34.212,0.0078,-0.0288,9.7929,-0.5801,-0.4177,0.0381
7385,1187,814,34.79,34.091,0.0537,-0.0027,9.8379,-0.8195,-0.743,-0.2637
7390,1180,819,34.737,34.145,0.0011,-0.0404,9.8745,0.2072,-0.1788,-0.3749
7395,1185,827,34.8,34.015,-0.0933,0.0075,9.8273,0.0532,-0.1671,-0.0999
7400,1190,837,34.836,34.185,-0.0482,0.0343,9.8395,0.7812,0.8617,0.3537
7405,1186,840,34.74,34.163,-0.013,0.0765,9.8139,-0.5981,0.5776,0.2315
7410,1184,847,34.805,34.172,-0.0578,-0.0592,9.8132,-0.3032,-0.3996,0.4125
7415,1178,854,34.749,34.182,-0.01,-0.027,9.7455,-0.6547,0.5623,-0.6241
7420,1174,859,34.712,34.053,0.0093,0.0122,9.7786,-0.1084,1.1365,-0.5793
7425,1167,865,34.745,34.102,0.0576,0.0127,9.899,0.3402,-0.3237,0.0381
7430,1171,868,34.847,34.138,-0.015,0.0149,9.824,0.1387,0.7989,0.3803
7435,1162,876,34.833,34.161,0.0343,-0.063,9.7861,-0.2346,0.7862,-0.6068
7440,1160,874,34.804,34.172,0.0548,-0.0031,9.736,0.8492,0.086,-0.0292
7445,1148,880,34.766,34.123,0.0266,-0.0118,9.8444,-0.3091,-0.2424,-0.2588
7450,1155,885,34.761,34.089,0.0251,0.0427,9.801,1.5224,0.3348,-0.1835
7455,1133,888,34.686,34.085,0.1101,-0.0022,9.7789,-0.6509,0.2575,-0.5251
7460,1144,896,34.812,34.114,-0.1075,0.0173,9.7985,0.6027,-0.1857,-0.6268
7465,1141,893,34.768,34.115,0.0595,-0.1157,9.7768,0.1273,-0.9234,0.4764
7470,1133,894,34.879,34.162,0.0617,-0.032,9.8474,0.1226,-0.5858,-0.0833
7475,1129,903,34.795,34.08,0.0043,-0.0024,9.7697,0.1436,-0.4258,0.006
7480,1120,907,34.743,34.208,0.0774,0.0706,9.8237,-0.3992,-0.0365,-0.2723
7485,1124,909,34.809,34.059,-0.0097,-0.0373,9.7369,-0.442,0.0993,0.1968
7490,1124,901,34.822,34.159,-0.0291,-0.0705,9.7255,-0.5774,-0.2289,-0.2269
7495,1120,904,34.921,34.104,0.0654,-0.0658,9.6671,0.2249,-0.8648,-0.0361
7500,1112,907,34.762,34.097,-0.0208,-0.013,9.7744,-0.2853,-0.0211,0.8966
7505,1109,907,34.72,34.206,0.0319,-0.0046,9.8319,0.1159,-0.4614,-0.51
7510,1114,905,34.813,34.255,0.0769,-0.0288,9.8573,0.029,0.3159,-0.7985
7515,1112,904,34.726,34.224,-0.0336,-0.031,9.7874,0.4719,-0.2295,-0.2271
7520,1099,905,34.86,34.161,0.005,-0.0923,9.8175,0.8198,0.592,0.2435
7525,1108,897,34.797,34.186,-0.0466,-0.0734,9.6914,0.5895,-0.1323,-0.1249
7530,1096,900,34.639,34.164,0.06,0.0203,9.8195,-0.3731,-0.2587,0.6146
7535,1096,899,34.765,34.185,0.0389,0.0511,9.812,0.8298,0.6303,-0.2352
7540,1098,897,34.769,34.052,-0.0256,-0.0146,9.754,0.299,-0.446,-0.5095
7545,1089,897,34.708,34.048,-0.0377,0.0079,9.785,-0.432,-0.6758,-0.1203
7550,1084,893,34.757,34.21,0.0423,0.0034,9.7809,-0.3581,-0.9712,-0.1438
7555,1089,898,34.769,34.122,-0.039,-0.0214,9.8017,0.0157,-0.3732,-0.0692
7560,1084,894,34.784,34.037,0.0522,-0.0088,9.7656,0.3049,0.5774,0.5304
7565,1078,898,34.817,34.108,-0.034,0.0498,9.9414,-0.8875,0.4066,-0.9103
7570,1075,890,34.822,34.079,0.089,-0.0223,9.841,0.0787,1.199,0.4946
7575,1075,884,34.762,34.075,0.0297,-0.0351,9.7465,-0.913,0.119,0.6402
7580,1078,882,34.812,34.075,0.0235,0.0748,9.8729,-0.059,-1.4019,0.0997
7585,1063,885,34.755,34.087,0.0199,-0.0201,9.819,-0.2468,1.3081,1.1981
7590,1071,877,34.788,34.147,-0.0123,-0.0462,9.807,-0.2405,0.0138,-0.8894
7595,1061,878,34.747,34.11,-0.0094,0.0658,9.8892,0.198,0.5594,1.3543
7600,1066,873,34.758,34.187,-0.0791,-0.0809,9.8305,0.0877,-0.0551,-0.5144
7605,1051,876,34.839,34.163,0.0109,0.0228,9.9228,-0.0961,-0.2901,0.2613
7610,1046,872,34.667,34.149,0.0392,-0.1463,9.8929,0.16,-0.0783,0.4405
7615,1045,866,34.879,34.151,-0.0167,0.0398,9.8177,-0.5662,-0.4356,0.2186
7620,1044,867,34.727,34.105,0.0049,-0.0508,9.8353,-0.3896,0.2426,0.6483
7625,1047,864,34.795,34.108,0.1107,-0.0137,9.7926,0.1566,-0.7356,-0.4282
7630,1040,866,34.75,34.088,0.0041,0.0152,9.8227,-0.2678,0.2592,-0.0462
7635,1028,866,34.777,34.189,-0.0719,-0.0749,9.8726,0.293,0.3361,0.0311
7640,1018,863,34.705,34.172,-0.0454,0.017,9.7766,0.2357,0.1886,0.2874
7645,1009,861,34.734,34.074,0.0095,0.0972,9.7932,-0.4905,0.4632,0.6696
7650,1011,860,34.708,34.099,-0.0581,-0.0235,9.8843,0.2191,-0.3312,0.1468
7655,998,857,34.728,34.123,0.0465,0.0181,9.8115,0.6996,-0.4994,0.3879
7660,996,854,34.776,34.135,-0.0255,-0.0803,9.8026,0.2221,-0.4243,-0.6698
7665,986,852,34.759,34.053,-0.0142,-0.0305,9.8597,0.4623,-0.2312,-0.228
7670,977,855,34.848,34.215,0.0513,-0.0552,9.8242,-0.08,-0.0017,-0.0123
7675,971,853,34.762,34.17,-0.0138,-0.0281,9.8672,-0.309,-0.7096,-0.4941
7680,957,853,34.794,34.094,0.0073,0.0642,9.7128,-0.3631,-0.0159,0.535
7685,956,847,34.771,34.077,0.0551,-0.0534,9.8356,0.1188,0.4459,-0.2415
7690,939,852,34.673,34.126,-0.0146,-0.0113,9.861,-0.0182,-0.1843,-0.0491
7695,935,849,34.79,34.11,-0.0139,0.0423,9.9444,0.2904,0.8973,0.4692
7700,921,847,34.739,34.1,0.0262,-0.0148,9.7003,-0.7814,0.1496,-0.2051
7705,922,846,34.782,34.159,-0.0575,-0.0713,9.7816,-0.2171,0.7001,-1.0791
7710,896,840,34.813,34.19,0.0019,-0.0003,9.8166,0.2371,0.2181,0.5695
7715,889,845,34.768,34.125,0.0029,-0.033,9.7793,-0.3557,0.7339,-0.1414
7720,879,838,34.722,34.199,-0.0281,-0.0667,9.7523,0.2608,0.6945,-0.3393
7725,869,837,34.721,34.166,0.0251,-0.0308,9.8897,-0.3009,-0.1921,0.415
7730,863,837,34.764,34.122,-0.0088,-0.1171,9.8357,-0.1231,-0.2041,-0.0909
7735,854,832,34.748,34.098,-0.1163,-0.0054,9.8554,-0.1335,0.1891,-0.1789
7740,849,833,34.682,34.099,0.0267,0.0543,9.8328,-0.6061,-0.4948,-0.4036
7745,830,829,34.834,34.172,-0.1175,0.003,9.7931,0.0631,0.3056,0.4177
7750,823,828,34.788,34.126,0.0223,0.046,9.7997,-0.5983,-0.7178,0.0645
7755,815,827,34.824,34.127,-0.0048,-0.0234,9.7535,0.0905,-0.2127,-0.2248
7760,812,826,34.786,34.151,0.0127,0.0261,9.824,0.7892,1.3623,-0.2368
7765,791,816,34.787,34.131,0.0064,-0.0301,9.8486,-0.7069,-0.1024,-0.5274
7770,783,816,34.759,34.056,-0.0281,-0.0189,9.8156,-0.3224,-0.3359,0.1062
7775,782,810,34.739,34.175,-0.0504,-0.0808,9.774,0.2514,0.0345,0.0333
7780,780,805,34.714,34.101,-0.012,-0.0464,9.81,-0.743,-0.1415,0.9174
7785,773,803,34.792,34.128,-0.0078,-0.0052,9.7582,-0.3101,-0.8205,0.4172
7790,769,798,34.723,34.135,-0.0439,0.0561,9.7874,0.0159,-0.7447,0.1917
7795,763,793,34.716,34.078,0.002,0.0383,9.8775,0.4503,-0.4929,-1.2054
7800,764,796,34.797,34.192,0.0047,0.0537,9.8049,0.18,-0.438,-0.2533
7805,757,789,34.723,34.068,0.0001,-0.0745,9.7485,0.2079,-0.6907,-0.0017
7810,749,784,34.849,34.149,0.1395,-0.065,9.8173,-0.0863,0.4201,-0.0023
7815,744,778,34.752,34.131,0.0108,0.0855,9.8484,0.4205,0.1698,-0.3176
7820,748,772,34.767,34.159,-0.0228,-0.0142,9.8467,0.0795,0.7817,-0.1949
7825,747,765,34.787,34.221,-0.0425,-0.0036,9.7993,-0.2571,0.2277,0.9357
7830,755,765,34.781,34.106,0.054,-0.0382,9.7716,-0.0829,0.3852,-0.5426
7835,744,758,34.841,34.079,-0.0026,-0.0962,9.817,-0.072,0.5292,0.1767
7840,756,756,34.747,34.072,0.059,0.0023,9.8298,-0.1059,-0.2009,-0.2948
7845,755,742,34.751,34.005,-0.0431,0.079,9.7613,-0.6221,-0.2503,0.1271
7850,762,738,34.789,34.162,-0.0042,0.067,9.8893,-0.3059,0.814,-0.0764
7855,772,728,34.715,34.145,-0.0305,0.0112,9.8122,-0.2017,0.561,-0.7395
7860,766,731,34.661,34.169,0.0226,-0.0113,9.8977,-0.2526,0.241,-1.0029
7865,778,722,34.75,34.1,-0.0322,-0.0328,9.7422,0.3161,-0.6503,0.3647
7870,786,719,34.726,34.122,-0.0628,-0.0323,9.8276,0.3295,-0.0678,0.5837
7875,796,716,34.835,34.053,0.0017,-0.0367,9.9305,0.1584,-0.6105,0.055
7880,795,704,34.758,34.142,-0.0767,0.0467,9.8505,1.657,0.4008,-0.1951
7885,812,708,34.724,34.094,-0.0006,-0.0193,9.7617,-0.1835,0.0361,-0.3216
7890,804,700,34.809,34.101,0.0036,-0.0476,9.7279,-0.5141,0.6741,-0.499
7895,824,694,34.788,34.171,-0.0244,-0.0521,9.7909,-0.7742,-0.1636,0.1837
7900,837,689,34.764,34.104,-0.0476,-0.0308,9.7349,0.353,-0.0698,0.171
7905,844,688,34.777,34.099,-0.0172,0.0369,9.8858,0.7643,0.0727,0.0603
7910,851,677,34.647,34.083,-0.0353,-0.033,9.7646,0.4458,-0.3576,0.1889
7915,868,680,34.713,34.174,-0.1084,0.0103,9.8618,-0.6774,0.3396,0.2417
7920,890,670,34.732,34.143,-0.0877,-0.0004,9.7291,-0.194,-0.448,-0.2483
7925,884,669,34.779,34.16,-0.0449,0.0259,9.7931,0.0275,0.4011,0.2879
7930,912,670,34.718,34.16,-0.0171,-0.0156,9.8265,-0.0468,0.18,-0.6725
7935,912,662,34.799,34.101,0.06,-0.0383,9.755,-0.062,0.541,0.6747
7940,932,663,34.861,34.107,-0.0504,0.0049,9.8005,-0.4822,-0.3045,-0.3085
7945,949,659,34.855,34.162,0.0348,0.0558,9.8177,-0.4891,-0.4569,0.8943
7950,957,656,34.816,34.198,0.029,0.0884,9.8662,0.8052,0.4184,-0.153
7955,967,659,34.73,34.095,0.0091,0.0778,9.7432,-0.2253,0.0273,-0.3363
7960,983,661,34.71,34.149,0.0343,-0.0916,9.8176,0.241,-1.0049,-0.3407
7965,1002,664,34.778,34.096,0.032,-0.0217,9.7731,0.434,0.1914,0.0048
7970,1014,659,34.804,34.153,-0.033,0.0018,9.8382,0.1419,0.0638,0.1355
7975,1031,661,34.833,34.225,0.0217,-0.0143,9.8516,-1.1655,0.5334,0.4554
7980,1038,660,34.811,34.126,-0.0463,-0.0197,9.7158,0.2869,0.0352,-0.2498
7985,1056,660,34.769,34.139,-0.0001,-0.029,9.7704,0.6904,-0.0522,0.0723
7990,1068,666,34.759,34.16,0.0661,0.0314,9.7834,0.2892,-0.6472,-0.2936
7995,1066,668,34.836,34.18,-0.0041,-0.0399,9.856,-0.0526,0.0347,0.106
8000,1085,670,34.754,34.118,-0.0144,0.0248,9.8548,0.8839,-0.3719,-0.226
8005,1088,673,34.673,34.022,0.056,-0.0459,9.7852,-0.0383,0.3731,-0.0074
8010,1107,679,34.755,34.105,-0.0195,-0.0193,9.8343,0.2037,-0.2558,0.3421
8015,1121,687,34.82,34.177,-0.0019,0.091,9.8501,0.599,0.7271,0.213
8020,1125,687,34.806,34.164,0.0915,-0.0719,9.8204,0.929,0.386,-0.3793
8025,1128,696,34.748,34.143,-0.0665,-0.0024,9.8482,0.3849,0.7617,-0.5844
8029,1142,695,34.774,34.089,0.031,-0.042,9.8902,-0.1607,-0.7013,-0.3246
8035,1144,701,34.793,34.112,-0.0213,-0.0941,9.9102,-0.2994,0.6708,-0.183
8039,1150,707,34.855,34.143,0.0065,-0.0043,9.7676,-0.9585,0.0703,-0.4983
8045,1168,714,34.773,34.194,0.0386,-0.0027,9.7335,0.0865,0.1788,0.566
8050,1165,721,34.696,34.173,-0.022,0.047,9.7787,0.5579,-0.0516,0.3689
8055,1172,734,34.708,34.118,-0.0425,-0.0418,9.821,-0.144,-0.2503,-0.7661
8060,1181,739,34.765,34.106,0.0203,-0.0291,9.8065,-0.5131,-0.7157,0.1813
8064,1176,740,34.832,34.104,0.0672,0.0334,9.7515,0.5423,-0.7928,-0.1213
8070,1180,758,34.715,34.086,0.0292,0.0269,9.8544,0.214,-0.89,0.2037
8074,1187,758,34.725,34.157,-0.0572,0.0078,9.8044,0.2891,0.4261,0.4677
8080,1191,768,34.7,34.151,0.014,0.0619,9.7697,-0.7165,-0.3236,0.1158
8085,1188,769,34.814,34.084,-0.0825,-0.0382,9.7678,-0.0848,0.0168,0.576
8090,1187,781,34.732,34.161,-0.0528,0.0035,9.8567,0.3037,0.0393,1.115
8095,1185,789,34.74,34.2,-0.0035,0.0103,9.8088,-0.3563,0.1415,0.0604
8100,1178,793,34.73,34.144,0.0642,0.0187,9.7288,0.1771,0.1377,0.2866
8105,1186,804,34.769,34.153,-0.0592,0.0343,9.8228,-0.2184,-0.5315,0.3138
8109,1186,812,34.85,34.115,-0.0157,-0.0262,9.773,-1.2215,-0.5039,-0.0673
8115,1185,816,34.772,34.097,0.0131,-0.0359,9.8601,-0.9271,-0.4981,0.0294
8119,1194,830,34.719,34.0,0.049,-0.0115,9.8328,0.2146,0.3345,0.7327
8125,1177,830,34.738,34.061,-0.0952,-0.0822,9.8156,-0.4675,0.3553,-0.188
8130,1180,840,34.705,34.129,0.0449,0.0916,9.7871,-0.262,-1.0602,-0.2023
8135,1169,842,34.733,34.007,-0.0921,0.025,9.8367,-0.251,-0.0871,0.808
8140,1179,856,34.774,34.091,0.0231,-0.0341,9.7916,-0.6647,0.0129,0.4849
8145,1173,856,34.785,34.195,0.0491,-0.0698,9.7542,-0.0605,0.252,-0.272
8150,1169,861,34.818,34.105,0.007,-0.0354,9.8774,-0.4474,-0.4024,-0.0095
8154,1164,869,34.712,34.066,-0.0657,0.0762,9.8117,0.0278,0.7456,0.2123
8160,1152,871,34.687,34.136,0.0192,-0.021,9.8194,0.0179,-0.1633,-0.9688
8164,1157,871,34.83,34.193,0.0996,-0.0015,9.7586,-0.2994,-0.185,-0.2129
8170,1155,874,34.807,34.109,-0.0777,0.007,9.7955,0.9807,-0.3959,0.44
8175,1150,888,34.809,34.057,-0.0637,0.0181,9.8207,0.0055,-0.5113,0.2115
8180,1142,888,34.676,34.075,0.0581,-0.0332,9.8352,0.1093,-0.3514,0.0558
8185,1146,894,34.792,34.065,0.0236,-0.0607,9.7482,1.0165,0.5498,0.032
8189,1133,892,34.761,34.103,-0.0299,0.0099,9.8052,-0.346,-0.3467,0.5656
8195,1144,896,34.814,34.181,0.0833,0.1279,9.8069,-0.613,0.2029,0.3747
8200,1132,898,34.811,34.118,0.0716,0.0395,9.7929,0.5171,-0.4225,-0.056
8205,1126,903,34.74,34.174,-0.0063,-0.0776,9.8315,0.8354,0.7147,0.7736
8210,1119,900,34.748,34.132,0.0393,0.0129,9.701,-0.5363,0.2799,0.6451
8215,1126,903,34.744,34.189,0.0047,-0.035,9.8717,0.1438,-0.3874,0.2468
8220,1125,905,34.852,34.051,0.0534,-0.0135,9.7756,-0.2584,0.0834,0.1327
8225,1110,905,34.751,34.15,-0.0785,0.0693,9.8953,-0.3139,-0.1374,0.3449
8230,1113,902,34.689,34.083,-0.0427,-0.0153,9.7307,0.8566,-0.3755,0.832
8235,1101,907,34.78,34.107,0.0107,0.031,9.7777,-0.0189,0.8661,-0.0192
8240,1105,904,34.729,34.064,-0.0504,-0.0021,9.8413,-0.3936,-0.2228,-0.0229
8245,1098,901,34.746,34.152,0.0339,-0.0221,9.7207,-0.5202,0.0543,0.4453
8250,1108,904,34.791,34.163,-0.0475,-0.0489,9.8189,0.4223,-0.9058,0.4278
8255,1100,899,34.781,34.149,-0.0246,-0.0353,9.7324,-0.2681,-0.4095,-0.2031
8260,1102,900,34.734,34.048,0.0657,0.0108,9.8133,-0.2654,0.0503,0.0021
8265,1103,901,34.796,34.229,0.0193,0.0264,9.8476,0.2213,0.6939,0.0399
8270,1095,904,34.878,34.149,-0.0594,0.0563,9.778,0.6938,-0.2677,0.3041
8275,1092,898,34.769,34.21,0.0905,0.0209,9.8249,-0.218,-0.1793,-0.1085
8280,1088,892,34.822,34.136,-0.0322,0.0019,9.8867,0.2891,0.9747,0.9065
8285,1083,898,34.761,34.134,-0.0464,0.0136,9.8775,0.2088,0.3786,-0.0158
8290,1089,887,34.806,34.123,-0.0121,-0.066,9.6988,0.4257,-0.0612,-0.4849
8295,1075,891,34.768,34.009,-0.0497,-0.0661,9.782,0.1558,-0.0035,-0.5272
8300,1075,886,34.817,34.108,-0.0458,-0.0046,9.8385,0.0942,0.1082,0.1255
8305,1073,883,34.752,34.145,0.0062,-0.0678,9.8435,0.4704,0.4706,-0.3489
8310,1070,879,34.82,34.13,0.149,-0.0013,9.8501,-0.6698,-0.0398,-0.12
8315,1069,878,34.753,34.093,-0.0553,0.0169,9.8491,0.1482,-0.0341,0.0226
8320,1060,880,34.828,34.134,0.0385,-0.0606,9.7645,-1.0378,0.1134,-0.2393
8325,1053,873,34.652,34.057,0.0321,0.0045,9.8138,0.1484,0.6005,0.3849
8330,1050,873,34.817,34.154,0.0058,-0.0818,9.8371,0.6347,0.7961,-0.2558
8335,1049,876,34.778,34.036,0.0213,0.0159,9.7527,-0.4498,0.0404,0.7412
8340,1044,872,34.73,34.206,-0.0194,0.0006,9.7947,-0.1285,0.2175,1.1665
8345,1038,865,34.766,34.149,-0.0547,-0.0142,9.8279,0.2887,-0.2175,-0.7387
8350,1034,867,34.742,34.072,0.0226,-0.0211,9.7626,0.098,0.588,-0.6613
8355,1036,868,34.812,34.144,-0.0566,-0.0491,9.7691,0.4462,0.1732,0.3173
8360,1021,862,34.83,34.036,-0.0281,-0.0626,9.832,0.4577,-0.2746,0.2283
8365,1026,865,34.671,34.146,-0.0095,0.1088,9.8064,-0.7417,0.3577,-0.5736
8370,1005,860,34.829,34.101,0.0154,0.0521,9.8323,-0.5203,-0.2573,0.2546
8375,1001,853,34.827,34.116,-0.0304,-0.0509,9.8334,-0.316,-0.1595,-0.1157
8380,996,864,34.671,34.11,-0.0589,0.0065,9.8466,-0.0325,1.1706,0.1645
8385,997,861,34.864,34.104,-0.0306,0.0629,9.7202,0.393,0.2721,0.2656
8390,985,851,34.775,34.105,0.0037,-0.0349,9.8433,0.7196,0.2382,-0.515
8395,978,851,34.809,34.128,0.0749,0.0795,9.8772,-0.4265,0.0425,-0.1902
8400,965,852,34.811,34.128,-0.0928,-0.1096,9.8433,0.4944,0.7982,-0.7734
8405,959,852,34.81,34.149,-0.0425,-0.0204,9.7423,-0.1139,0.4418,-0.1442
8410,946,852,34.751,34.133,-0.0305,-0.0392,9.8238,0.556,0.7255,0.9968
8415,942,844,34.756,34.025,0.1082,0.0747,9.7994,0.8771,0.1557,-0.3565
8420,931,841,34.841,34.092,0.0122,-0.0014,9.8687,1.2762,-0.0603,0.6606
8425,924,845,34.788,34.075,0.0061,-0.0489,9.8104,-0.509,-0.3641,0.2493
