timestamp_ms,ir_finger,ir_toe,temp_finger,temp_toe,ax,ay,az,gx,gy,gz
0,1039,770,33.453,28.102,0.0461,0.0245,9.8256,0.1718,0.3785,-0.6932
5,1056,769,33.479,28.241,0.0298,-0.0825,9.7949,0.1987,-0.0408,0.7979
10,1072,762,33.323,28.154,-0.017,0.0337,9.8234,-0.8325,0.2098,1.0357
15,1073,767,33.462,28.138,0.057,0.0312,9.8483,-0.3143,0.3802,0.2305
20,1090,761,33.465,28.134,0.0088,0.0288,9.8121,-0.0688,0.8116,-0.7749
25,1096,760,33.436,28.219,-0.0795,0.044,9.8612,0.4764,0.0321,-0.276
30,1114,762,33.424,28.225,-0.0043,0.0525,9.8515,-0.1494,0.0008,0.8016
35,1124,754,33.42,28.208,-0.0022,-0.0701,9.9477,0.0542,-0.4298,-0.1179
40,1123,758,33.43,28.19,0.0274,-0.0497,9.8164,-0.6649,0.1728,-0.5132
45,1132,752,33.294,28.086,0.0144,-0.0339,9.6873,0.6224,0.6644,-0.0586
50,1131,752,33.22,28.15,0.0582,0.0082,9.8263,-0.8096,-0.6848,0.8278
55,1142,749,33.41,28.175,-0.0027,0.0318,9.7928,-0.654,-0.2155,-0.0309
60,1159,748,33.413,28.198,-0.049,0.0475,9.8292,0.2237,0.2103,0.482
65,1161,744,33.399,28.214,0.0162,0.0008,9.8063,-0.2349,-0.3708,-0.3932
70,1166,746,33.305,28.136,0.0243,-0.0783,9.8353,-0.0425,0.5062,-1.2859
75,1169,750,33.354,28.206,0.0558,0.0336,9.8281,0.393,0.4965,0.0101
80,1171,742,33.491,28.186,0.0959,-0.0212,9.831,-0.207,1.3743,0.4126
85,1171,745,33.297,28.175,-0.1206,-0.0507,9.7371,-0.6408,-0.5598,-0.726
90,1176,747,33.367,28.198,0.0715,-0.0017,9.7853,-0.1669,-0.0075,-0.2454
95,1183,744,33.429,28.115,0.0269,0.0337,9.8021,0.2832,0.9319,0.2268
100,1185,746,33.395,28.267,0.0431,0.0796,9.7997,-1.2349,-0.1645,0.8408
105,1188,748,33.286,28.142,-0.1049,0.0157,9.8187,-0.1864,0.0383,0.186
110,1181,751,33.333,28.157,-0.0117,0.0008,9.7579,-0.8439,0.7281,0.0121
115,1181,744,33.347,28.153,0.0189,-0.0519,9.8588,0.701,0.5578,0.216
120,1190,745,33.455,28.202,-0.1004,0.0455,9.7913,-0.8554,-0.563,0.2974
125,1194,745,33.347,28.164,-0.0452,-0.0229,9.8575,0.1685,-0.0069,-1.2851
130,1194,743,33.365,28.169,0.0478,0.0231,9.8284,-0.7764,0.4466,0.2784
135,1181,748,33.42,28.236,0.1649,-0.0313,9.8361,-0.7049,-0.5089,0.2237
140,1183,752,33.427,28.246,0.0686,-0.0197,9.8726,-0.4539,0.0863,-0.0585
145,1181,752,33.432,28.233,0.0386,0.0174,9.8444,-0.74,0.3467,-0.2702
150,1177,751,33.323,28.251,-0.0171,-0.0951,9.816,-0.2619,0.6649,-0.1436
155,1179,752,33.329,28.26,-0.0375,0.065,9.7929,-0.1627,0.3227,-0.2084
160,1181,755,33.34,28.189,-0.0435,0.0459,9.8202,-0.1139,-0.1479,0.1708
165,1173,756,33.31,28.17,0.0462,-0.1034,9.7924,-0.2646,-0.1123,0.0328
170,1174,758,33.338,28.219,0.0727,0.0104,9.783,-0.0429,-0.7957,-0.0976
175,1169,764,33.434,28.305,-0.0051,0.0088,9.8158,-0.7503,-0.6646,0.047
180,1163,759,33.434,28.215,-0.0631,-0.0653,9.8545,-0.3021,0.1707,0.2459
185,1157,763,33.461,28.233,0.0608,-0.0384,9.7674,-0.1747,-0.3478,0.176
190,1150,766,33.345,28.187,-0.1756,0.0343,9.7923,-0.4918,-0.5387,0.1006
195,1156,771,33.323,28.161,-0.0309,-0.0102,9.8364,-1.2278,0.1978,-0.8769
200,1147,773,33.367,28.123,-0.0814,-0.0601,9.7818,0.5972,-0.7405,0.3801
205,1144,777,33.474,28.199,0.0838,-0.0093,9.8402,0.0133,-0.963,-0.9591
210,1144,775,33.326,28.212,0.0012,-0.0468,9.8254,-0.1383,0.6098,0.2928
215,1140,776,33.424,28.221,-0.0028,-0.0322,9.7502,0.3851,1.0451,-0.3641
220,1130,782,33.477,28.18,-0.0328,-0.1028,9.8184,-0.3138,-0.0095,0.6897
225,1141,784,33.413,28.198,0.0122,-0.0167,9.8498,0.6924,-0.1912,0.7699
230,1130,785,33.359,28.221,-0.0015,-0.0551,9.7383,0.1701,0.0217,0.4454
235,1125,795,33.403,28.301,0.0501,0.0367,9.717,0.2948,0.1302,0.1675
240,1128,795,33.326,28.283,0.0594,0.0022,9.8302,-0.108,0.5042,-0.7285
245,1110,794,33.356,28.295,-0.016,-0.0027,9.8321,0.5786,-0.5242,-0.6293
250,1123,801,33.319,28.162,-0.1134,0.0204,9.8463,-0.1855,0.0374,-0.8267
255,1119,792,33.435,28.173,-0.0547,-0.1037,9.7954,-0.1899,-0.5866,0.1361
260,1107,805,33.312,28.237,0.1321,0.0202,9.7708,-0.2269,0.2137,-0.0817
265,1111,806,33.331,28.217,0.0606,0.0492,9.8639,0.412,-0.4579,-0.2529
270,1108,808,33.342,28.226,0.0146,0.1012,9.8386,-0.98,-0.1538,-0.2314
275,1102,813,33.41,28.185,-0.0404,0.0101,9.7643,0.1793,-0.0355,-0.6047
280,1090,816,33.454,28.144,0.109,-0.0424,9.7607,-0.3626,-0.6272,0.1671
285,1101,822,33.339,28.249,0.0294,0.077,9.7499,-0.2042,0.679,-0.5881
290,1096,818,33.278,28.251,0.1176,0.0242,9.8152,0.2906,-0.5728,-0.1294
295,1099,822,33.346,28.139,0.0628,0.0367,9.7787,-0.0901,-0.0319,0.4066
300,1089,824,33.337,28.184,0.0298,-0.0262,9.8023,0.7806,0.4013,-0.0554
305,1089,824,33.409,28.307,-0.0561,-0.0007,9.7949,-0.0271,0.5507,0.514
310,1094,831,33.348,28.285,0.0338,-0.004,9.8807,-0.4031,0.6308,0.2406
315,1087,831,33.486,28.263,0.0489,0.0335,9.8491,0.6456,-0.8791,0.2477
320,1087,829,33.406,28.251,0.0364,0.0241,9.7939,-0.3906,0.1073,-0.5212
325,1083,833,33.437,28.235,-0.0649,0.0911,9.7691,0.3634,-0.2735,-0.0739
330,1078,830,33.473,28.269,0.0316,-0.0059,9.7959,0.3578,-0.443,-0.4471
335,1078,835,33.418,28.246,-0.0402,-0.0146,9.8222,0.2261,-0.7696,0.4249
340,1071,834,33.321,28.065,0.0118,-0.0678,9.7121,-0.5899,-0.5274,0.2219
345,1078,840,33.454,28.257,-0.0112,0.0501,9.8496,0.5558,-0.6117,0.5758
350,1070,836,33.429,28.24,-0.0233,0.0275,9.8251,-0.0383,0.2752,0.063
355,1063,839,33.445,28.215,-0.0851,0.0319,9.8827,-1.09,0.2188,-0.1468
360,1059,844,33.325,28.225,0.023,0.0534,9.7826,-0.1001,0.2125,-0.8422
365,1064,839,33.339,28.17,0.0268,0.0092,9.6702,-0.036,-0.4637,-0.6462
370,1053,840,33.329,28.206,-0.0707,-0.0049,9.8961,0.1825,-0.1649,-0.836
375,1053,838,33.369,28.184,-0.0256,0.0128,9.8169,-0.382,0.402,-0.3653
380,1045,835,33.394,28.225,0.052,-0.0165,9.9169,-0.7458,0.2846,-0.4591
385,1040,843,33.327,28.068,0.0338,-0.1218,9.758,0.1512,-0.0094,-0.533
390,1034,842,33.422,28.232,0.019,0.0154,9.7682,0.1417,0.1441,0.1209
395,1034,843,33.47,28.187,0.0916,0.022,9.7815,0.0688,-0.2039,-0.3768
400,1024,838,33.37,28.176,-0.0378,-0.0922,9.8032,-0.5696,-0.178,0.1487
405,1020,845,33.457,28.283,0.0344,0.0182,9.8565,-0.4572,-0.1783,-0.176
410,1015,834,33.425,28.139,-0.019,-0.0802,9.8363,0.5448,-0.0472,0.08
415,1005,835,33.47,28.203,0.0896,0.0118,9.7474,0.2318,-0.2107,0.6029
420,1000,841,33.297,28.156,-0.0078,-0.0163,9.7669,0.6061,0.2272,0.2617
425,994,838,33.377,28.241,0.01,-0.0349,9.8687,-0.2837,1.1083,-0.6114
430,981,843,33.385,28.227,0.0773,-0.022,9.8221,-1.1129,0.7841,0.1669
435,971,836,33.383,28.173,0.1327,0.0258,9.8413,-0.5837,-0.772,-0.0736
440,973,839,33.429,28.185,0.12,-0.0153,9.8412,-0.6583,0.421,-1.0063
445,955,838,33.426,28.276,-0.0486,-0.0361,9.8389,0.101,-0.4001,-0.5615
450,945,840,33.476,28.217,-0.0442,-0.0405,9.8409,-0.5623,-0.4915,0.3169
455,946,830,33.344,28.152,-0.0053,-0.0181,9.8624,0.3722,0.3375,-0.0813
460,945,834,33.398,28.227,0.0529,0.0116,9.8338,0.3856,-0.3793,0.3116
465,931,834,33.346,28.2,-0.0267,-0.1033,9.8941,-0.4041,-0.1315,0.6217
470,918,836,33.387,28.262,-0.0317,-0.0394,9.7635,-0.1436,-0.1917,-0.573
475,905,831,33.414,28.194,-0.0192,0.0187,9.8865,-0.0421,0.1202,0.9381
480,902,836,33.354,28.274,-0.0746,-0.0911,9.8203,0.6038,-0.7016,-0.7063
485,889,837,33.477,28.186,0.0117,0.0417,9.7775,-0.4619,0.2506,-0.8512
490,879,827,33.429,28.188,0.0006,-0.0331,9.8139,-0.1318,-0.2148,0.0196
495,868,829,33.375,28.307,-0.0424,-0.0378,9.8916,0.6518,-0.2077,0.7107
500,861,827,33.403,28.24,-0.0264,0.0071,9.6938,-0.6782,0.4389,-0.3148
505,855,833,33.32,28.253,-0.0242,-0.0583,9.7777,-0.221,-0.4293,0.0174
510,835,828,33.38,28.247,-0.014,-0.0078,9.8436,-0.1955,0.4832,-0.1568
515,838,823,33.406,28.192,-0.0049,-0.0051,9.8193,0.3226,0.1871,-0.7744
520,832,824,33.407,28.237,0.0596,-0.0707,9.867,0.3307,0.9158,-0.3276
525,822,825,33.362,28.152,0.0344,-0.0446,9.8053,0.0065,-0.6865,0.2548
530,807,823,33.451,28.183,0.1007,0.0322,9.8574,0.6617,-0.5142,-0.0972
535,805,827,33.378,28.24,-0.0421,0.0319,9.7527,0.4529,-0.1278,-0.4413
540,789,822,33.433,28.199,0.0696,-0.0689,9.8476,-0.0193,-0.6125,0.1156
545,794,822,33.439,28.199,-0.0255,-0.0069,9.8617,-0.9789,0.454,-0.7022
550,783,825,33.45,28.207,0.0436,0.0196,9.8373,-0.2716,-0.4202,0.7972
555,769,820,33.45,28.102,-0.008,-0.0765,9.8538,0.7899,-0.1787,0.0279
560,773,820,33.429,28.177,0.0083,-0.1053,9.8938,-0.6845,-0.5612,-0.0699
565,767,821,33.378,28.21,0.0489,-0.0219,9.8833,-0.0253,1.0179,0.1115
570,763,825,33.383,28.342,-0.0157,-0.018,9.8215,0.024,0.3153,0.0768
575,757,819,33.296,28.162,-0.0299,0.0382,9.8443,0.2001,0.3574,0.1628
580,759,820,33.506,28.3,0.0107,-0.0185,9.8288,-0.2624,-0.1461,0.0254
585,754,820,33.361,28.239,-0.0148,0.034,9.7613,0.3449,0.8456,-0.0131
590,743,818,33.412,28.191,-0.0344,0.0604,9.7027,-0.0602,-0.6064,0.0781
595,756,817,33.439,28.144,-0.0094,-0.0172,9.8886,0.4778,-0.0206,0.1422
600,744,816,33.316,28.22,-0.0608,-0.0886,9.796,0.3878,-0.1224,-0.4443
605,753,820,33.393,28.247,-0.024,-0.0334,9.7968,-0.0611,-1.0696,-0.5213
610,756,817,33.245,28.143,-0.0325,0.0264,9.7698,0.4785,0.5214,-0.046
615,757,818,33.404,28.278,0.0463,-0.0022,9.8626,-0.4176,-0.045,-0.1021
620,755,812,33.473,28.247,-0.017,-0.0111,9.8646,-0.2829,0.5873,0.3739
625,760,810,33.378,28.161,0.007,-0.0356,9.8739,0.5992,0.0806,0.4035
630,756,812,33.403,28.316,-0.0402,-0.052,9.7804,1.0954,0.128,0.0483
635,762,811,33.459,28.184,-0.019,-0.0232,9.91,-0.0436,0.2632,-0.7379
640,773,813,33.342,28.12,0.0567,-0.0148,9.7958,-0.7277,-0.6042,-0.2167
645,778,812,33.301,28.19,-0.0123,0.0181,9.8266,-1.1784,-0.8522,-0.096
650,791,805,33.352,28.123,0.0315,0.0065,9.7808,0.1176,0.3047,-0.4209
655,794,807,33.389,28.249,-0.0491,-0.1285,9.9037,-0.5431,0.0797,0.0161
660,805,806,33.421,28.251,-0.092,-0.0642,9.8379,0.1594,0.1782,0.4059
665,803,809,33.501,28.196,0.0414,-0.0306,9.8166,0.1458,0.916,0.5073
670,813,804,33.386,28.229,0.0467,-0.0624,9.8448,0.4737,0.839,-0.1512
675,823,800,33.374,28.144,-0.0134,-0.0391,9.8023,-0.5599,0.25,0.1183
680,840,804,33.387,28.276,0.0136,0.0805,9.7563,0.4496,0.0407,-0.6779
685,854,803,33.3,28.212,-0.0068,0.0383,9.8623,0.7109,-0.5401,-0.1105
690,861,791,33.404,28.179,-0.0254,-0.0007,9.821,0.4808,0.5657,-0.0427
695,869,799,33.448,28.13,0.0115,-0.0165,9.817,0.0928,0.3277,-0.5338
700,879,795,33.364,28.299,-0.0019,0.0143,9.7416,-0.0572,0.213,0.285
705,897,789,33.337,28.23,-0.0126,0.0385,9.7398,0.1688,-0.4578,0.3161
710,909,793,33.387,28.262,-0.0694,0.0049,9.8404,0.3505,0.1503,0.3257
715,918,788,33.361,28.244,-0.0419,0.0516,9.847,0.2591,-0.1459,0.3314
720,926,789,33.417,28.285,0.045,0.1208,9.8667,-0.2198,1.0675,0.7281
725,939,783,33.393,28.19,0.0097,0.0488,9.8389,-0.1643,0.7602,-0.5584
730,953,786,33.308,28.261,-0.0427,-0.0306,9.7983,-0.4044,-0.4146,-1.1275
735,963,779,33.367,28.163,0.1001,0.0158,9.7592,0.2035,-0.5542,-0.3444
740,983,786,33.37,28.269,-0.0535,-0.0513,9.8152,0.361,0.7106,0.8507
745,999,776,33.407,28.158,-0.0149,-0.0573,9.8777,0.8899,0.2532,0.7468
750,1005,781,33.426,28.162,0.0372,0.0848,9.8956,0.1203,-0.4711,0.35
755,1002,772,33.416,28.298,0.0024,-0.0197,9.7353,-0.5826,-1.1083,-1.075
760,1031,765,33.363,28.272,-0.0621,0.0007,9.9409,-0.9001,1.4008,-0.4185
765,1047,771,33.429,28.197,-0.0425,0.0297,9.7699,-0.0296,-0.6332,0.9999
770,1053,766,33.435,28.251,-0.0715,-0.0083,9.829,-0.3841,0.1216,0.454
775,1065,759,33.421,28.149,-0.035,0.045,9.8074,0.4776,-0.3181,-0.2865
780,1076,768,33.407,28.168,-0.0282,-0.0144,9.7031,0.0587,-0.1108,0.0798
785,1085,766,33.49,28.187,0.0059,0.0362,9.7909,0.7516,0.8254,0.7131
790,1088,760,33.489,28.171,0.0833,-0.0947,9.835,-0.7032,-0.3926,0.047
795,1104,760,33.334,28.119,-0.0236,0.0305,9.7809,-0.2698,0.1646,-0.46
800,1111,758,33.389,28.183,0.0047,0.05,9.7744,0.457,0.2082,-0.5549
805,1127,749,33.328,28.129,0.0206,0.1185,9.8278,-0.4639,0.1106,-0.3147
810,1122,748,33.468,28.188,0.1088,-0.0132,9.8521,0.1361,0.058,-0.1127
815,1134,752,33.454,28.17,-0.0053,0.0219,9.7859,0.2067,0.1669,0.3168
820,1145,745,33.268,28.229,0.0272,-0.0057,9.7157,0.3074,0.5115,-0.0395
825,1142,752,33.398,28.165,0.0076,-0.0626,9.7906,-0.5554,-0.174,-0.1231
830,1162,755,33.478,28.131,-0.0043,-0.0082,9.8189,0.4776,-0.3696,-0.717
835,1159,749,33.48,28.184,-0.1245,-0.0287,9.8472,0.0879,0.2873,0.2288
840,1161,743,33.356,28.23,0.0118,0.0007,9.6682,0.4844,-0.6451,-0.5405
845,1171,747,33.491,28.199,-0.0689,0.0277,9.7619,-0.5591,-0.3659,0.3468
850,1178,740,33.377,28.171,0.0022,0.0499,9.845,-0.149,-0.2375,-0.5652
855,1182,739,33.364,28.181,-0.0753,0.0888,9.7937,0.2738,0.1589,-0.9023
860,1181,744,33.414,28.186,0.0077,-0.0954,9.7541,0.8731,0.3386,-0.7938
865,1179,747,33.48,28.27,-0.0482,0.096,9.7952,0.006,-0.4458,-0.6318
870,1180,745,33.401,28.293,-0.0705,0.0677,9.7732,0.0345,-0.7059,-0.4751
875,1195,751,33.34,28.171,-0.0041,0.0652,9.8445,-0.7722,-0.0037,0.1279
880,1187,748,33.33,28.176,-0.0111,-0.0311,9.832,-0.3985,-0.5174,0.7846
885,1187,742,33.38,28.232,0.0397,-0.003,9.7561,-0.1259,-0.729,-0.6583
890,1198,743,33.395,28.267,0.0613,0.0747,9.7642,0.538,-0.3539,0.609
895,1188,750,33.446,28.157,-0.0219,0.0143,9.7019,-0.1151,0.5766,0.6323
900,1186,742,33.408,28.182,0.0622,0.0586,9.8154,0.2594,0.3384,0.0662
905,1184,749,33.459,28.284,0.018,0.009,9.831,-0.0511,-0.309,0.5589
910,1184,746,33.321,28.194,0.0041,0.0073,9.8731,-0.6043,0.0813,0.2126
915,1180,752,33.428,28.165,-0.018,0.0089,9.7479,-0.1324,0.331,0.9973
920,1175,756,33.518,28.227,0.02,0.0302,9.7144,-0.2679,0.5444,0.0004
925,1181,750,33.351,28.235,0.0275,0.0014,9.802,-0.0026,-0.2175,0.0201
930,1173,755,33.413,28.225,-0.0045,0.0036,9.8656,-0.3215,0.2433,-0.1384
935,1182,760,33.398,28.229,-0.0035,-0.02,9.9046,-0.116,0.8223,-0.0721
940,1173,762,33.521,28.174,0.0598,0.0277,9.8163,-0.3281,0.8886,-0.8813
945,1170,762,33.407,28.17,0.043,0.0543,9.8803,0.3351,0.8852,0.1279
950,1160,761,33.453,28.313,-0.0291,0.0263,9.8046,0.6866,-0.1482,-0.3286
955,1159,759,33.448,28.224,-0.0169,-0.0254,9.7841,-0.038,0.4834,-0.1493
960,1164,766,33.45,28.13,-0.0236,-0.0847,9.88,-0.069,1.0451,0.4022
965,1153,764,33.431,28.136,-0.0357,0.0254,9.7733,0.6294,0.0555,0.5438
970,1145,769,33.402,28.237,0.0469,0.005,9.7863,-0.2621,0.3162,0.0386
975,1153,777,33.358,28.297,-0.0162,-0.0028,9.805,-0.747,-0.0207,0.9634
980,1147,778,33.379,28.154,0.0908,0.0659,9.844,0.1771,-0.2956,-0.3204
985,1142,784,33.38,28.189,-0.0173,-0.0207,9.7913,0.2705,-0.6666,-0.7931
990,1140,787,33.32,28.166,-0.0253,0.0495,9.88,-0.2044,0.6082,0.615
995,1142,786,33.434,28.217,-0.0361,-0.052,9.7845,-0.4229,-0.7832,-0.345
1000,1130,788,33.504,28.219,0.0842,0.004,9.7488,0.1504,-0.2404,-0.2636
1004,1121,793,33.556,28.232,-0.0865,-0.0594,9.8857,0.0183,0.5498,0.0044
1010,1122,798,33.364,28.257,0.002,-0.012,9.8558,0.1561,0.1264,-0.2688
1014,1115,798,33.422,28.28,0.0014,-0.0423,9.8299,-0.3368,0.3323,-0.9447
1020,1111,803,33.373,28.198,-0.0193,-0.084,9.7603,0.0088,1.2025,1.0296
1025,1113,804,33.464,28.21,0.0374,0.0202,9.8261,-0.396,-0.942,0.1716
1030,1117,805,33.306,28.177,0.0308,-0.1126,9.9056,0.1811,-0.233,-0.9056
1035,1107,806,33.419,28.308,-0.0422,-0.0356,9.7569,-0.2734,0.3861,0.0974
1040,1099,809,33.437,28.11,-0.0672,-0.0307,9.868,0.009,-0.3942,-0.0602
1045,1105,813,33.316,28.151,-0.014,-0.0934,9.8526,0.6114,0.1412,0.8236
1050,1101,816,33.464,28.22,-0.0476,-0.0221,9.7489,-0.383,0.5615,-1.0822
1055,1096,822,33.426,28.24,-0.0333,-0.001,9.9065,0.5313,-0.0888,0.0182
1060,1093,819,33.343,28.254,0.0249,0.0238,9.7948,0.5902,-0.2415,-0.2786
1065,1092,826,33.402,28.189,0.0143,-0.0101,9.7815,0.722,-0.4425,-0.0355
1070,1091,826,33.354,28.201,0.0302,0.0594,9.7585,1.0296,0.4456,0.3113
1075,1079,829,33.359,28.257,-0.0477,-0.0272,9.8222,0.5012,-0.1453,0.3908
1080,1086,827,33.3,28.255,-0.0098,-0.0276,9.9158,0.4645,-0.2519,0.0458
1085,1088,831,33.349,28.232,-0.0738,-0.0104,9.8188,1.4067,0.5881,0.1179
1090,1073,832,33.492,28.155,0.016,-0.0374,9.8487,-0.1286,-0.065,-0.4928
1095,1083,830,33.382,28.202,0.0006,0.038,9.7621,0.5606,-1.4481,-0.3067
1100,1078,836,33.266,28.216,0.0027,-0.0515,9.7295,0.8976,0.2024,-0.3154
1105,1072,839,33.395,28.222,0.0044,0.0445,9.919,0.0872,-0.6017,-0.6269
1110,1076,845,33.437,28.257,-0.0153,0.026,9.7892,0.5762,-0.2834,-0.8055
1115,1072,833,33.508,28.295,0.0399,-0.0654,9.7871,0.567,-0.5982,-0.4054
1120,1061,843,33.403,28.205,-0.0473,0.0338,9.735,0.6307,0.2559,0.7819
1125,1061,829,33.431,28.151,-0.0851,0.0709,9.82,-0.5986,-0.7406,0.3271
1130,1055,842,33.414,28.177,-0.0643,-0.0817,9.8426,-0.0889,-0.9882,-0.1479
1135,1052,838,33.328,28.109,0.0253,-0.0251,9.8591,0.187,-0.6483,0.8553
1140,1053,839,33.415,28.136,0.0189,0.0006,9.8486,0.8529,0.5151,-0.3716
1145,1049,846,33.434,28.173,0.0194,0.0487,9.7898,-0.5721,-0.2284,-0.1837
1150,1053,836,33.448,28.246,0.0031,-0.0104,9.8673,0.3947,-0.0291,0.5485
1155,1034,843,33.382,28.265,0.061,-0.0474,9.8295,-0.5465,-0.3167,0.2318
1160,1027,839,33.339,28.258,0.0485,-0.062,9.7329,-0.3422,0.2174,1.1115
1165,1033,842,33.491,28.235,0.0715,-0.0111,9.878,-0.476,-0.0071,0.6
1170,1017,843,33.431,28.263,0.0275,-0.0714,9.8094,-0.0131,0.1858,-1.3757
1175,1012,839,33.383,28.234,-0.0606,0.0461,9.8766,-0.5347,0.4045,-0.1411
1180,1006,836,33.465,28.233,-0.0296,0.0028,9.8083,-0.114,-0.2777,-0.39
1185,1007,837,33.365,28.181,0.0215,-0.0296,9.8129,-0.0002,0.0845,-0.423
1190,990,839,33.442,28.281,0.0225,-0.0205,9.8595,0.1624,-0.9284,0.2603
1195,998,840,33.39,28.244,0.0241,0.0038,9.7909,-0.2422,-0.0737,0.2972
1200,978,833,33.337,28.214,-0.0478,-0.0072,9.7237,0.9092,-0.5178,0.8971
1205,977,844,33.424,28.219,-0.0073,0.0184,9.8557,0.5119,-0.1365,-0.5254
1210,957,833,33.397,28.222,0.0429,0.0318,9.7856,0.2292,-0.1191,-0.1344
1215,961,833,33.507,28.176,0.0687,0.0369,9.8007,-0.3011,-0.5098,1.5416
1220,945,840,33.483,28.206,0.0305,0.0307,9.8168,0.5277,-1.0405,0.0306
1225,931,835,33.35,28.17,0.0054,-0.029,9.7994,0.6455,0.0693,0.6189
1230,932,836,33.488,28.308,-0.0248,-0.0045,9.8819,0.4189,-0.5487,-1.0163
1235,931,835,33.426,28.235,-0.0255,-0.0356,9.8037,-0.578,-0.1685,-0.1378
1240,910,829,33.404,28.29,-0.0186,-0.024,9.8716,-0.1484,-0.2402,0.8617
1245,904,828,33.484,28.203,-0.026,-0.0166,9.8469,-0.2174,-0.6786,-0.8653
1250,891,832,33.431,28.238,0.0637,0.0492,9.8163,-0.5781,0.6455,0.4618
1255,890,831,33.399,28.22,0.0363,0.0403,9.7667,0.0161,-0.0236,-0.0166
1260,873,821,33.403,28.241,0.0458,0.0737,9.79,0.5428,-0.586,0.001
1265,870,825,33.448,28.228,-0.0402,-0.0524,9.827,-0.4543,-0.4471,0.2737
1270,855,831,33.415,28.29,0.0131,0.0063,9.7851,0.313,0.1854,-0.2499
1275,846,826,33.402,28.188,0.0895,0.1049,9.7673,-0.501,-0.2461,1.0459
1280,839,827,33.445,28.182,-0.0188,0.0479,9.8105,-0.1376,-0.7016,0.5258
1285,822,823,33.38,28.285,0.0204,0.051,9.84,0.2165,-0.6378,-0.5334
1290,826,828,33.443,28.132,-0.0022,-0.0313,9.7462,-0.132,0.4427,0.0393
1295,809,827,33.464,28.206,-0.0608,0.0202,9.8529,-0.2289,-1.1066,0.1975
1300,802,823,33.397,28.173,0.0148,-0.0518,9.8,1.5004,-0.3941,-0.2383
1305,793,823,33.381,28.237,0.0948,-0.0179,9.818,-0.1096,0.2691,-0.8398
1310,782,817,33.459,28.219,0.0549,0.0329,9.8208,-0.464,-0.0606,-0.4601
1315,782,828,33.471,28.286,-0.0281,0.0497,9.8335,-0.3261,-0.8787,0.3232
1320,771,824,33.328,28.189,0.0186,0.0191,9.8187,-0.5451,-1.0157,0.3602
1325,765,823,33.425,28.219,-0.0325,0.0422,9.7587,0.0197,0.1808,-0.2404
1330,767,821,33.406,28.294,0.0518,0.0119,9.8842,0.7316,-0.114,-0.2809
1335,767,821,33.383,28.214,-0.0057,0.0433,9.8288,-0.5999,0.5353,0.0892
1340,759,821,33.46,28.131,0.0302,-0.0108,9.7662,-0.206,0.5135,0.1338
1345,751,819,33.384,28.193,-0.0825,0.0096,9.7563,-0.3448,0.2714,-1.4604
1350,751,819,33.421,28.258,0.0283,0.0723,9.8116,0.3452,0.26,0.0418
1355,744,819,33.404,28.213,-0.0397,0.0805,9.7974,-0.9222,0.1393,-0.3069
1360,748,815,33.438,28.216,0.0634,0.0171,9.7354,-0.3106,-0.4952,-0.3472
1365,749,815,33.366,28.129,-0.004,0.0225,9.8715,0.2868,-0.5152,-0.5375
1370,751,816,33.419,28.14,-0.024,-0.071,9.7954,0.6215,-0.2768,0.7402
1375,743,817,33.402,28.19,0.0658,-0.0638,9.8908,0.4452,-0.3454,-0.9892
1380,752,811,33.412,28.233,0.0376,0.0049,9.7837,0.2193,0.1631,-0.4318
1385,746,816,33.436,28.268,-0.0051,0.0323,9.8007,0.808,-0.695,-0.0751
1390,753,815,33.394,28.19,-0.068,-0.026,9.7641,0.4367,-0.3954,-0.1159
1395,759,812,33.387,28.095,0.0283,-0.076,9.8747,0.1915,-1.0182,-0.2074
1400,765,811,33.387,28.181,-0.0354,-0.0843,9.8348,-0.6441,-0.3296,0.2068
1405,767,809,33.348,28.255,-0.0426,0.0408,9.7999,1.3552,0.4198,0.085
1410,777,818,33.298,28.141,0.0826,0.046,9.7567,0.0898,0.532,0.9643
1415,783,809,33.375,28.22,0.0034,-0.0765,9.8281,0.1951,-0.9504,-0.332
1420,775,809,33.329,28.264,0.014,0.0454,9.8142,-0.311,-0.8197,0.0228
1425,797,808,33.37,28.222,0.0791,-0.0802,9.7196,0.171,0.4329,0.6877
1430,805,809,33.404,28.321,-0.0583,0.035,9.7598,0.4453,-0.2484,0.4843
1435,809,804,33.316,28.173,-0.0188,-0.0436,9.8665,0.3336,-0.5583,-0.4857
1440,817,802,33.391,28.165,-0.0096,0.0006,9.9392,0.129,-0.1109,0.5441
1445,831,801,33.362,28.202,0.0982,0.0233,9.7846,-0.0185,0.5326,0.1384
1450,847,799,33.551,28.144,0.0158,-0.0153,9.8125,-0.179,-0.4184,0.8152
1455,857,796,33.38,28.188,0.072,-0.0615,9.773,-0.1465,0.1503,-0.0828
1460,872,792,33.455,28.241,-0.0316,0.0155,9.6917,0.6685,-1.2682,0.2287
1465,876,794,33.444,28.189,0.0955,0.0245,9.7036,0.6716,0.3418,0.3212
1470,881,797,33.376,28.25,0.0374,0.032,9.7547,0.9099,-0.3246,-0.2522
1475,901,794,33.452,28.126,-0.0216,-0.0745,9.7906,-0.1232,0.0512,0.8628
1480,903,792,33.318,28.281,0.054,0.0073,9.8358,-0.0796,-0.4854,-0.8814
1485,929,785,33.348,28.208,0.1003,-0.012,9.8234,-0.0506,-0.0799,-0.1878
1490,942,785,33.439,28.263,-0.0598,-0.0083,9.8113,0.1297,0.1438,-0.4147
1495,948,788,33.442,28.269,0.0252,-0.059,9.8992,0.4794,-0.5287,-0.2421
1500,962,781,33.512,28.136,-0.0904,0.0223,9.8619,-0.5104,-0.588,-0.1938
1505,977,784,33.434,28.295,0.022,0.0052,9.7524,0.0953,0.6534,0.2425
1510,991,778,33.413,28.194,-0.0174,0.0354,9.8015,0.2041,0.6409,-0.5245
1515,999,781,33.412,28.153,0.018,-0.0143,9.8171,0.0426,0.2722,0.0333
1520,1008,773,33.386,28.242,0.0641,-0.0712,9.797,0.0446,-0.4732,0.439
1525,1020,769,33.425,28.254,0.023,-0.0206,9.8796,-0.8059,0.4105,0.6857
1530,1042,773,33.438,28.271,-0.027,-0.0605,9.8579,0.2843,0.0442,-0.3898
1535,1043,770,33.54,28.214,0.0594,-0.0738,9.8359,-0.9205,0.5081,0.1215
1540,1058,766,33.425,28.248,0.0184,0.0584,9.7079,0.0063,-0.1134,0.2619
1545,1064,760,33.455,28.307,0.0154,0.0602,9.8704,-1.2361,0.7279,-0.4172
1550,1083,763,33.416,28.285,0.0296,-0.038,9.7471,0.971,0.8933,0.4568
1555,1086,763,33.424,28.197,0.0601,-0.0427,9.8136,-0.973,1.0308,-0.5636
1560,1097,756,33.402,28.257,0.0758,-0.0462,9.7836,-0.2166,-0.3803,0.4615
1565,1110,759,33.437,28.234,0.0097,-0.0601,9.8845,1.1558,0.5631,-0.0899
1570,1117,758,33.437,28.224,0.0637,0.0276,9.8364,-0.0381,-0.2162,-0.0391
1575,1134,755,33.416,28.231,-0.0262,-0.0609,9.757,0.1329,0.9204,-0.4941
1580,1141,756,33.547,28.258,0.0431,-0.0326,9.725,-0.1807,-0.4384,-0.3544
1585,1136,747,33.409,28.253,-0.024,0.0084,9.8382,-0.8806,0.1098,0.0903
1590,1145,751,33.397,28.201,-0.0118,-0.0409,9.9235,-0.74,0.4815,0.0136
1595,1152,748,33.353,28.165,-0.0132,0.047,9.8225,-0.1493,0.3467,0.964
1600,1154,752,33.439,28.169,-0.0055,0.0166,9.7513,0.4343,0.3789,-0.1374
1605,1160,751,33.415,28.232,-0.0251,-0.0074,9.797,0.2254,0.3941,-1.0718
1610,1173,753,33.537,28.248,-0.0107,-0.0004,9.8367,-0.0238,-0.003,-0.2435
1615,1180,744,33.451,28.274,0.0273,0.0708,9.8867,-0.7221,-0.9052,-0.2988
1620,1171,743,33.369,28.245,0.0186,-0.038,9.7821,-0.2335,-0.0224,-0.0469
1625,1184,748,33.399,28.239,-0.011,0.0431,9.8342,-0.5604,0.0123,-0.183
1630,1182,744,33.452,28.295,-0.0431,-0.0046,9.8074,-0.599,-0.3051,-0.1169
1635,1191,745,33.46,28.2,0.0988,0.0192,9.8188,0.1907,0.2683,-0.8069
1640,1186,740,33.343,28.134,0.0338,0.0677,9.7225,0.6183,0.1153,0.0008
1645,1189,740,33.378,28.216,0.0189,-0.0509,9.6909,0.2229,-0.1783,-0.5778
1650,1183,747,33.423,28.214,0.0135,-0.0828,9.8158,0.66,0.2427,1.0773
1655,1185,742,33.416,28.169,-0.1023,0.007,9.8437,-0.5163,-0.3977,0.4839
1660,1200,745,33.459,28.194,0.0067,-0.0366,9.7811,-0.624,0.0215,0.181
1665,1187,746,33.449,28.162,-0.0678,-0.0023,9.8446,0.5953,-0.4646,-0.4988
1670,1176,743,33.323,28.263,-0.0415,-0.0151,9.8193,-0.1652,0.1224,0.0962
1675,1174,745,33.341,28.192,0.0427,0.0144,9.8709,0.5508,0.3512,0.1937
1680,1185,750,33.378,28.226,0.0442,-0.0181,9.8093,-0.2896,-1.2564,0.0618
1685,1183,749,33.352,28.197,-0.0132,-0.0592,9.8154,-0.0444,0.3923,0.2463
1690,1182,749,33.407,28.236,0.0509,-0.073,9.7837,-0.0167,-0.1716,0.2362
1695,1169,760,33.315,28.184,0.0867,-0.0333,9.7837,-0.7085,0.5545,0.5276
1700,1177,757,33.408,28.242,-0.0185,-0.0523,9.8884,-0.0651,1.2385,0.0541
1705,1167,757,33.372,28.216,0.0587,-0.0305,9.8157,1.1699,0.1388,0.3459
1710,1166,759,33.394,28.193,-0.0081,-0.0386,9.8184,-0.1764,0.0779,-0.7268
1715,1165,766,33.405,28.256,0.0611,0.0482,9.8743,-0.3036,-0.0767,0.3742
1720,1161,767,33.293,28.221,-0.0696,-0.0419,9.7056,0.6106,0.8106,0.296
1725,1154,768,33.447,28.303,-0.0094,0.057,9.9095,0.4319,0.0153,0.1614
1730,1152,767,33.485,28.239,0.0099,0.072,9.8512,-0.284,-0.1745,0.6524
1735,1161,770,33.525,28.246,-0.0813,-0.0045,9.7866,0.4746,0.2235,-0.0195
1740,1155,776,33.462,28.234,0.0018,-0.031,9.8203,0.2562,-0.1931,0.9232
1745,1138,782,33.369,28.236,0.0293,0.0417,9.7756,-0.249,0.1665,0.6367
1750,1148,782,33.423,28.194,-0.0365,-0.0168,9.7943,0.0715,-0.1278,-0.7568
1755,1138,792,33.415,28.179,0.0355,-0.0931,9.8479,0.5613,-0.1983,0.206
1760,1131,785,33.374,28.208,0.0435,-0.0272,9.8656,-0.4464,-0.008,-0.4874
1765,1130,788,33.297,28.223,0.0008,0.0461,9.8444,0.1117,-0.3596,0.8788
1770,1120,796,33.339,28.153,-0.0621,0.041,9.8055,-0.4997,-0.7225,0.6435
1775,1117,796,33.357,28.286,0.0145,-0.0066,9.789,1.2441,-0.9066,-0.5312
1780,1117,798,33.363,28.174,-0.0244,-0.0678,9.8521,-0.283,0.5683,-0.1318
1785,1125,802,33.415,28.207,-0.0224,-0.0186,9.8292,-0.0258,-0.4471,-0.6667
1790,1107,803,33.387,28.252,-0.0328,0.0432,9.8298,-0.3659,-0.8536,1.3946
1795,1102,809,33.335,28.18,-0.0615,-0.0249,9.7462,0.9855,0.7636,-0.3975
1800,1105,809,33.369,28.248,-0.0422,-0.0255,9.8511,-0.0777,-0.0299,0.3076
1805,1110,812,33.473,28.126,-0.0137,-0.0571,9.8305,0.2637,1.2277,0.0962
1810,1100,815,33.446,28.253,-0.0503,0.006,9.8643,1.1007,-0.3644,-0.3088
1815,1101,819,33.44,28.244,0.0008,-0.0088,9.8231,0.7459,-0.2067,-0.1981
1820,1098,818,33.428,28.239,-0.0636,0.032,9.8169,0.3243,0.4002,-0.1553
1825,1091,823,33.508,28.206,0.0191,0.0209,9.7119,0.222,0.6354,-0.0676
1830,1101,821,33.467,28.214,-0.0738,-0.0652,9.8433,0.1044,-0.1924,-0.28
1835,1099,820,33.471,28.233,0.067,0.0653,9.8565,-0.1855,-0.1505,0.1133
1840,1091,824,33.489,28.151,0.0254,-0.0199,9.775,-0.9551,0.0435,0.628
1845,1080,823,33.444,28.157,0.0551,-0.0241,9.7605,-0.6179,-0.4202,-0.3757
1850,1089,832,33.413,28.195,-0.0056,0.04,9.821,-0.3212,-0.1358,-0.4664
1855,1088,831,33.349,28.2,0.0153,-0.0731,9.816,0.1088,0.3578,-0.6389
1860,1077,828,33.488,28.356,0.0869,-0.0433,9.7336,0.0031,-0.2035,0.5073
1865,1077,828,33.446,28.271,-0.0607,0.0818,9.7626,-0.1474,-0.4629,-0.2118
1870,1071,832,33.375,28.275,0.0243,-0.1272,9.8903,-0.708,0.2787,0.0282
1875,1071,836,33.443,28.236,-0.0216,0.1056,9.7709,-0.2725,0.0531,-0.7187
1880,1069,836,33.376,28.238,-0.0455,0.097,9.8131,-0.3195,-0.1489,-0.5936
1885,1070,837,33.378,28.225,-0.0651,0.0073,9.6789,0.052,-0.3726,-0.0352
1890,1063,840,33.417,28.254,-0.0053,0.0468,9.8106,-0.2046,0.1258,0.235
1895,1064,842,33.531,28.252,0.0255,-0.0261,9.8762,-0.4601,-0.1519,0.9545
1900,1058,840,33.38,28.283,-0.011,-0.0076,9.8257,0.4471,0.8347,0.4173
1905,1051,845,33.41,28.251,0.0498,0.0193,9.8005,0.5604,-1.0731,0.8478
1910,1055,843,33.354,28.131,0.0282,-0.095,9.8281,-0.0977,-0.6249,-0.2783
1915,1040,835,33.514,28.311,-0.0308,-0.0181,9.8846,0.6322,-0.0544,-0.7728
1920,1039,841,33.426,28.205,-0.0321,0.0565,9.8195,0.3232,1.1193,0.0973
1925,1029,842,33.44,28.154,-0.053,-0.038,9.8378,-0.0177,0.0233,0.2826
1930,1037,844,33.354,28.221,0.0555,0.0034,9.7603,-0.0707,-0.0665,-0.7582
1935,1021,844,33.324,28.284,0.0289,-0.0334,9.7322,0.1145,-0.6013,0.1133
1940,1017,836,33.477,28.324,-0.0888,-0.0028,9.8084,-0.3106,0.074,0.4114
1945,1004,842,33.361,28.18,-0.0005,0.0159,9.7597,-0.5753,0.0351,-0.0815
1950,1000,837,33.342,28.324,-0.0247,-0.0188,9.8446,0.1666,0.1759,0.1143
1955,992,842,33.447,28.268,-0.1354,-0.0153,9.7947,-1.0242,-0.0708,-0.2506
1960,981,840,33.412,28.2,-0.0302,-0.0212,9.8878,0.4998,-0.5327,-0.338
1965,982,841,33.402,28.172,0.0193,-0.0461,9.7977,0.6418,-0.12,0.6971
1970,977,839,33.444,28.143,0.0155,0.0089,9.7671,0.9868,-0.0561,-0.5503
1975,969,838,33.337,28.17,-0.0087,-0.0364,9.8665,-0.4634,0.5846,-0.5851
1980,951,832,33.327,28.215,0.0094,-0.0532,9.9595,0.439,-0.7996,-0.1915
1985,946,837,33.415,28.229,-0.0001,0.1072,9.822,0.2299,-0.5241,0.3002
1990,940,842,33.372,28.135,-0.0168,-0.0515,9.7939,-0.3569,0.0328,-0.0629
1995,921,833,33.394,28.209,0.0679,0.0498,9.7863,-0.2177,-0.2435,0.5187
2000,912,842,33.43,28.212,-0.0514,0.0953,9.8025,0.2224,-0.3514,-0.9379
2005,920,831,33.394,28.206,0.0717,0.0239,9.8231,0.6023,-0.1021,0.5158
2009,909,838,33.428,28.211,0.0192,-0.001,9.8396,0.6449,0.1635,-0.1678
2015,888,823,33.468,28.208,0.0282,0.1498,9.7792,-0.0384,-0.6695,0.3886
2020,887,829,33.424,28.183,0.002,-0.016,9.7388,-0.0583,-0.7301,-0.1798
2025,889,827,33.473,28.216,-0.0405,0.0083,9.8833,-0.4832,0.6732,-0.6939
2029,858,829,33.285,28.249,0.0274,0.0597,9.7716,0.835,-0.2116,-0.3305
2035,858,823,33.456,28.226,0.0078,-0.0121,9.8908,-0.502,-0.1693,-0.1796
2040,847,829,33.511,28.201,0.028,-0.0393,9.8134,-0.4421,1.0466,0.7768
2045,835,826,33.365,28.191,0.0038,-0.0256,9.8474,-0.023,-0.0383,0.0379
2050,830,826,33.458,28.195,0.105,-0.1098,9.8949,-0.4564,-0.2086,0.882
2055,818,830,33.448,28.233,-0.0195,0.0054,9.7322,0.0969,-0.5259,-0.2243
2060,821,826,33.492,28.329,0.0124,0.018,9.8247,1.0275,0.1026,0.6505
2065,805,821,33.379,28.25,-0.0815,0.0346,9.851,-0.4997,-0.1941,-0.727
2070,795,826,33.411,28.325,0.0091,-0.0114,9.8701,-0.0854,-0.0088,0.3303
2075,796,823,33.469,28.242,0.011,-0.0442,9.7736,-0.9723,0.075,0.9058
2080,780,823,33.435,28.229,-0.1129,-0.0341,9.7851,0.0593,0.0276,-0.2657
2085,773,821,33.389,28.273,-0.055,0.0645,9.7706,0.3302,0.1712,0.0793
2090,770,818,33.42,28.275,-0.0231,-0.0052,9.87,1.4904,0.1694,-0.0616
2095,759,822,33.334,28.174,0.0008,-0.0192,9.8661,-0.5202,0.1411,-0.325
2100,756,822,33.426,28.273,-0.0861,0.0259,9.7369,0.1677,-0.1274,1.2173
2105,766,827,33.414,28.136,-0.0301,-0.0529,9.8442,0.2136,0.3638,0.1122
2110,750,821,33.455,28.197,-0.0292,0.0098,9.7452,0.2217,0.5743,-0.2171
2115,750,816,33.547,28.222,-0.0278,-0.0111,9.7818,-0.2244,0.5374,0.3349
2120,745,821,33.357,28.144,-0.0723,-0.1243,9.7814,0.3704,0.2251,0.0541
2125,756,821,33.399,28.291,0.0649,0.02,9.7919,-0.3096,0.0656,-0.2525
2130,742,822,33.478,28.298,-0.0926,0.0097,9.7939,0.7143,0.0763,-0.375
2135,748,814,33.343,28.192,-0.05,0.0134,9.8641,-0.3516,0.6227,-0.6124
2140,745,811,33.416,28.23,-0.0286,0.0426,9.7983,0.5036,-0.3324,-0.2592
2145,752,817,33.474,28.194,-0.023,-0.1331,9.8353,0.9527,-0.4984,0.4916
2150,758,818,33.394,28.339,-0.0311,-0.0146,9.7498,-0.3267,-0.0812,-0.6863
2155,761,818,33.437,28.2,0.0157,-0.0074,9.8312,0.6836,-0.3601,-0.0564
2160,756,816,33.496,28.263,-0.0364,-0.0017,9.8283,-0.5984,0.2514,0.0135
2165,766,815,33.472,28.101,0.0168,0.0197,9.7978,-0.1463,0.1422,-0.2571
2170,773,806,33.338,28.175,0.0215,-0.049,9.8885,-0.0959,-0.0727,0.4752
2175,781,811,33.452,28.165,0.0573,0.0058,9.7048,0.3406,0.1529,-0.6717
2180,782,812,33.41,28.264,-0.0927,0.0273,9.7588,0.7566,-0.3068,0.0622
2185,789,809,33.424,28.161,0.083,0.0889,9.8015,0.1515,0.3437,-0.9033
2190,796,809,33.477,28.259,-0.0374,0.017,9.8523,0.1702,0.5081,-0.082
2195,800,802,33.468,28.229,0.0277,0.0216,9.7628,0.464,0.2153,-0.6635
2200,812,808,33.413,28.193,0.0745,-0.0319,9.9232,-1.1419,0.0957,-0.8509
2205,818,800,33.377,28.148,-0.0595,-0.0201,9.9821,0.075,0.4781,0.3327
2210,836,803,33.375,28.305,-0.0815,0.1004,9.7618,-0.2241,-0.7879,0.5391
2215,846,802,33.383,28.204,-0.0192,0.0798,9.7666,0.2676,-0.2826,0.3541
2220,846,803,33.483,28.25,-0.0571,-0.0202,9.6808,0.2425,0.9561,-0.488
2225,865,801,33.39,28.222,-0.07,0.0735,9.7929,-0.3594,-0.0705,0.3276
2230,877,792,33.389,28.208,-0.0053,-0.0348,9.8362,0.5925,-1.2002,-0.6921
2235,885,796,33.471,28.233,0.0281,0.0023,9.8528,-0.4249,0.3577,-0.415
2240,904,793,33.383,28.253,0.0573,-0.0221,9.7828,0.4681,0.114,-0.4905
2245,899,785,33.426,28.15,-0.0002,-0.0179,9.7519,0.3389,-0.45,0.0872
2250,918,792,33.462,28.265,0.1358,-0.0515,9.7644,-0.3733,-0.2622,-0.3335
2255,941,796,33.428,28.18,0.0597,0.1055,9.7916,0.3357,-0.3138,0.0093
2260,946,787,33.475,28.181,0.0402,0.0914,9.826,-0.2786,0.4796,-0.3731
2265,951,780,33.284,28.278,0.0804,-0.0112,9.8305,0.1386,-0.0336,-0.3328
2270,969,776,33.374,28.221,-0.0556,-0.0637,9.7191,0.8573,0.2093,-0.5334
2275,988,786,33.428,28.161,0.0084,-0.097,9.8551,0.2474,-0.2578,-0.5199
2280,1000,782,33.344,28.254,0.0253,0.0164,9.8022,-0.2066,-0.9293,1.0641
2285,1014,782,33.502,28.271,0.1303,-0.1058,9.8664,-0.4885,0.2568,0.1836
2290,1023,770,33.513,28.233,-0.029,-0.0035,9.8294,0.3339,0.5499,-0.2581
2295,1033,768,33.456,28.172,-0.0131,0.0039,9.9289,0.0561,-0.2417,-0.1139
2300,1041,765,33.433,28.225,0.0582,0.0101,9.7837,-0.1973,-0.4915,-0.4162
2305,1059,764,33.421,28.165,0.0085,-0.0696,9.8676,0.0862,-0.4238,0.2307
2310,1071,767,33.446,28.258,0.0159,0.0133,9.8333,-0.2786,-0.1322,-0.4522
2315,1078,764,33.385,28.203,-0.052,0.0212,9.8555,0.0797,-0.3602,1.0781
2320,1089,759,33.405,28.204,0.0466,0.0462,9.8682,-0.0533,0.0453,0.7972
2325,1097,760,33.338,28.227,0.0293,-0.0617,9.7932,0.2784,-0.254,0.0243
2330,1113,755,33.49,28.257,0.0171,-0.0348,9.8241,0.1127,-0.7535,-0.0022
2335,1108,758,33.481,28.229,-0.0642,0.0279,9.8256,-0.448,0.0705,0.5699
2340,1128,754,33.47,28.248,0.0798,-0.0224,9.8036,-0.0678,-0.1435,0.3351
2345,1134,751,33.415,28.269,-0.0675,-0.0273,9.8325,0.089,-0.1366,-1.2573
2350,1149,754,33.389,28.215,0.0004,-0.1055,9.7817,-0.0054,0.4244,0.0982
2355,1152,751,33.451,28.213,-0.0588,-0.0202,9.8362,-0.546,-0.3676,-0.6665
2360,1146,746,33.334,28.221,0.0253,0.0533,9.7272,0.167,-0.4928,-0.5716
2365,1154,750,33.307,28.262,0.0052,0.0086,9.8004,-0.761,0.718,-0.4883
2370,1161,745,33.365,28.2,0.0211,-0.0846,9.853,-0.0113,0.1966,0.9251
2375,1175,743,33.401,28.197,-0.0729,-0.0538,9.8239,-0.0656,0.3961,-0.7812
2380,1182,748,33.325,28.17,0.1029,0.0441,9.8555,0.2734,0.1565,-0.4547
2385,1166,744,33.404,28.27,0.0577,-0.1009,9.847,0.1968,-0.1314,0.2513
2390,1177,745,33.368,28.226,-0.0178,0.0075,9.8569,0.3771,-0.235,0.1124
2395,1181,747,33.431,28.224,0.0388,-0.027,9.8187,-0.056,-0.829,-0.6587
2400,1183,744,33.437,28.25,0.0399,-0.0152,9.8416,-0.3964,0.0349,-0.6759
2405,1190,745,33.354,28.243,-0.0189,0.0365,9.8663,0.9259,0.4773,0.627
2410,1183,749,33.435,28.269,0.0294,-0.0494,9.806,-0.5125,-0.6918,-0.0769
2415,1180,743,33.397,28.246,0.0378,0.0835,9.7616,-0.3253,0.0144,-0.6856
2420,1192,741,33.429,28.269,0.0814,0.0473,9.7575,0.0366,-0.1303,0.0207
2425,1187,745,33.406,28.29,0.0321,-0.0375,9.7613,0.1262,-1.2533,0.502
2430,1178,746,33.438,28.219,-0.0076,-0.0569,9.7993,0.4656,0.1203,1.4015
2435,1182,746,33.417,28.145,-0.064,-0.036,9.8021,-0.1612,-0.1932,-0.1157
2440,1191,751,33.339,28.145,0.0216,0.0316,9.8421,0.526,-0.0029,0.6293
2445,1183,748,33.383,28.218,-0.0061,-0.065,9.8227,-0.5502,0.7447,0.6374
2450,1173,747,33.409,28.109,-0.0111,-0.0542,9.7827,0.3372,0.621,0.0272
2455,1184,753,33.39,28.244,0.0017,0.033,9.7809,0.3396,-0.5582,-0.1749
2460,1173,755,33.457,28.244,0.0259,0.01,9.823,-0.092,0.0465,1.3761
2465,1164,758,33.41,28.239,-0.0406,-0.0078,9.8584,-0.1594,0.5433,0.4602
2470,1173,760,33.499,28.252,-0.0202,0.0244,9.7689,-0.4788,0.0846,-0.8173
2475,1160,762,33.373,28.093,0.0343,-0.0075,9.8093,-1.3323,-0.3173,0.7399
2480,1166,765,33.413,28.233,0.068,-0.0027,9.7461,-0.2236,0.8193,-0.7356
2485,1164,771,33.414,28.264,0.1261,-0.0081,9.8319,-0.1959,0.1721,-0.1376
2490,1158,765,33.515,28.245,0.0805,-0.0487,9.7997,-0.1929,0.1403,-0.8899
2495,1156,768,33.419,28.316,0.0017,-0.0745,9.7916,-0.1731,-1.2674,-0.3465
2500,1154,772,33.455,28.262,0.0112,-0.0147,9.7589,-0.6873,-0.3465,-0.79
2505,1145,777,33.42,28.193,-0.0246,0.0677,9.8245,0.1458,-0.1103,1.0249
2510,1151,780,33.419,28.199,-0.0656,-0.0539,9.8071,0.3528,0.7187,0.1366
2515,1129,782,33.412,28.199,-0.0284,0.0564,9.848,-0.3699,0.6926,-0.0599
2520,1147,781,33.345,28.264,0.0626,0.0524,9.8898,0.2799,-0.2707,-0.5071
2525,1134,789,33.337,28.225,-0.0294,-0.0245,9.7895,0.1485,0.2183,0.0861
2530,1126,783,33.357,28.273,-0.0213,-0.0472,9.7672,-0.6135,0.0798,0.4046
2535,1125,787,33.547,28.202,-0.0673,0.0477,9.8473,0.0188,0.0448,-0.7048
2540,1122,796,33.437,28.255,0.0418,-0.0509,9.8296,0.3022,-0.766,0.6249
2545,1119,796,33.391,28.334,-0.051,0.0107,9.7513,0.0652,-0.0218,0.2848
2550,1119,795,33.428,28.29,0.0477,0.1163,9.898,-0.04,0.7328,0.0739
2555,1112,800,33.443,28.288,-0.0527,0.0617,9.7659,-0.3026,-0.7825,0.5325
2560,1111,803,33.452,28.161,-0.0345,-0.0334,9.7744,-0.5048,0.2506,-0.7338
2565,1118,812,33.442,28.303,-0.003,0.07,9.772,-0.7554,0.2199,0.3488
2570,1107,807,33.358,28.213,-0.0201,-0.0091,9.9231,0.2687,0.2096,0.0462
2575,1101,812,33.385,28.207,0.0209,-0.0097,9.9109,-0.9446,0.535,0.7043
2580,1098,823,33.471,28.179,-0.0026,-0.0532,9.8629,0.8449,0.3248,0.3143
2585,1097,820,33.444,28.213,0.0315,0.0695,9.8302,0.0539,-0.2954,-0.6191
2590,1096,820,33.414,28.182,-0.029,0.0187,9.7686,0.1243,0.2534,0.4547
2595,1092,823,33.415,28.166,-0.0595,0.0108,9.8111,0.4209,0.5341,0.2744
2600,1090,825,33.335,28.244,-0.0001,-0.0459,9.7918,-0.1351,0.9874,-0.3188
2605,1101,824,33.43,28.239,-0.0354,-0.015,9.7928,0.2094,0.6237,0.1789
2610,1081,834,33.496,28.103,-0.0054,-0.0049,9.7828,-0.2661,0.2981,0.2779
2615,1088,831,33.444,28.187,0.0223,0.0371,9.7916,0.3094,0.1749,0.1085
2620,1088,831,33.511,28.156,-0.0195,-0.0147,9.7195,-0.2932,-0.091,0.1758
2625,1079,837,33.411,28.192,0.0843,0.0102,9.8017,-0.0072,0.3761,-0.1205
2630,1080,836,33.433,28.258,0.0541,-0.0234,9.8406,0.1341,-0.574,0.3762
2635,1066,834,33.434,28.149,0.075,-0.0487,9.8252,-0.3464,-0.1756,0.5525
2640,1075,837,33.308,28.306,-0.0512,0.0367,9.7952,-0.7459,0.1749,-0.3177
2645,1073,837,33.366,28.189,0.0481,-0.0479,9.828,0.1612,0.3087,-0.137
2650,1071,839,33.498,28.208,0.0121,0.077,9.7162,0.1507,0.0696,-0.0185
2655,1061,840,33.414,28.193,0.0613,0.0977,9.7358,0.352,0.7117,-0.4616
2660,1063,841,33.424,28.265,0.108,0.0093,9.8364,-0.0521,-0.2062,-0.2267
2665,1063,841,33.346,28.195,0.0014,0.0117,9.8386,0.6635,0.3749,-0.0423
2670,1057,839,33.469,28.24,-0.0699,0.0367,9.7472,0.1029,-1.5796,0.6412
2675,1050,841,33.428,28.328,-0.0496,-0.0132,9.8347,0.6991,-0.1684,0.7609
2680,1047,841,33.421,28.215,0.1143,0.0332,9.8085,-0.3101,-0.0638,0.3071
2685,1042,844,33.485,28.273,0.0223,-0.0305,9.7437,-0.7616,0.0565,0.7635
2690,1041,843,33.396,28.137,-0.0508,-0.0015,9.7168,-0.0794,0.7639,-0.5803
2695,1034,841,33.36,28.243,0.0057,0.0231,9.8278,-0.0555,0.6681,0.1092
2700,1015,840,33.398,28.169,-0.0409,-0.0371,9.7417,0.7784,-0.3127,0.719
2705,1013,840,33.404,28.285,0.0269,-0.0274,9.7631,0.6537,0.2435,-0.8256
2710,1013,841,33.395,28.149,-0.1239,0.0948,9.7921,0.7152,0.338,0.0422
2715,1011,835,33.464,28.242,-0.0255,0.0406,9.826,1.0562,0.4783,0.4247
2720,1004,837,33.394,28.276,-0.031,0.0184,9.7409,0.2686,-0.037,0.393
2725,993,841,33.456,28.315,-0.0714,0.0628,9.8547,0.2066,-0.3896,-0.7748
2730,974,837,33.432,28.277,0.1011,0.0618,9.7883,-0.3001,-0.2976,-0.5271
2735,972,833,33.405,28.266,-0.0596,0.0453,9.8255,-0.0557,0.322,0.1198
2740,965,839,33.339,28.208,0.0911,0.0153,9.8658,0.8012,-0.5861,-0.2114
2745,964,839,33.444,28.237,0.0731,-0.0136,9.818,-0.0279,0.8044,0.2166
2750,950,840,33.467,28.303,0.0518,0.0509,9.8971,0.5434,0.4633,0.7063
2755,940,837,33.427,28.138,0.0057,-0.0045,9.8305,0.1222,-0.9074,0.2847
2760,931,838,33.382,28.306,0.0102,0.069,9.7941,0.569,-0.7902,0.4059
2765,922,832,33.42,28.242,-0.0281,0.0548,9.8168,-0.9615,-0.4551,0.0483
2770,920,829,33.419,28.22,0.0539,0.0716,9.85,-0.7964,-0.4674,-0.2023
2775,897,833,33.441,28.201,-0.006,0.0485,9.7445,0.035,0.0398,-0.4925
2780,898,833,33.418,28.231,0.0038,0.0507,9.8195,-0.9132,-0.3661,0.4041
2785,884,831,33.383,28.252,0.0465,0.0532,9.798,-0.4234,-0.1011,0.6354
2790,871,831,33.471,28.226,-0.0401,0.0847,9.8262,0.0792,-0.4026,-0.5213
2795,864,829,33.407,28.188,-0.005,0.0508,9.7482,-0.8935,0.6672,0.6979
2800,860,834,33.424,28.178,-0.0414,-0.0459,9.7849,0.5499,0.7883,0.1541
2805,854,825,33.406,28.125,0.0352,0.0334,9.8951,-0.2325,0.3588,0.8105
2810,841,828,33.354,28.254,-0.0065,-0.0124,9.8297,-0.4152,0.1477,-0.249
2815,837,830,33.351,28.219,0.007,-0.0362,9.8519,-0.8177,-0.601,0.1324
2820,825,821,33.306,28.189,-0.0822,-0.0731,9.8075,-0.3844,-0.0467,0.4226
2825,813,817,33.393,28.228,-0.0547,0.0011,9.7544,-0.433,-0.5827,-0.5203
2830,809,826,33.395,28.226,-0.0255,-0.0759,9.8474,-0.4982,-0.5894,-0.326
2835,803,826,33.468,28.296,0.0119,0.0865,9.7759,-0.9829,-0.4761,0.512
2840,803,821,33.486,28.175,-0.1565,-0.0002,9.8128,-0.1971,-0.0518,0.6771
2845,788,819,33.396,28.268,-0.0603,-0.1134,9.7685,0.4193,0.3194,0.28
2850,789,821,33.375,28.239,0.0679,0.0553,9.8026,-0.0243,1.2951,0.6835
2855,773,822,33.365,28.226,0.0545,0.0026,9.8703,0.8574,-0.1729,0.0653
2860,769,823,33.376,28.197,-0.0785,0.0511,9.8771,0.4902,-0.4703,-0.8115
2865,759,823,33.3,28.253,-0.0174,0.0131,9.9223,-0.2371,0.2698,-0.1818
2870,762,822,33.44,28.285,0.0293,-0.066,9.8199,0.774,0.4779,-0.5095
2875,760,819,33.407,28.23,-0.0407,-0.0943,9.8017,0.2575,-0.2423,0.6556
2880,750,814,33.449,28.314,-0.0126,-0.0262,9.783,0.3112,0.5468,0.3724
2885,754,814,33.472,28.208,-0.069,0.0523,9.8404,-0.3661,-0.0668,-1.1567
2890,763,819,33.378,28.268,-0.0732,0.0153,9.8101,0.1198,0.5376,0.4267
2895,747,818,33.496,28.169,0.0166,0.0913,9.7665,-0.3141,-0.4699,-0.5403
2900,752,817,33.354,28.221,-0.1276,0.0289,9.856,0.5968,-0.7655,-0.8797
2905,750,821,33.486,28.316,0.0208,-0.0159,9.844,-0.4827,0.2835,0.1345
2910,748,815,33.452,28.233,-0.0518,0.0304,9.8179,-0.018,-0.3194,-0.4025
2915,755,815,33.327,28.267,0.0365,-0.0152,9.8477,-0.5205,-0.4806,0.7274
2920,760,812,33.516,28.281,-0.0371,-0.0405,9.8134,-0.5433,-0.4811,-0.3958
2925,766,809,33.412,28.223,-0.0327,-0.0878,9.8209,0.125,-0.0608,-1.0876
2930,770,811,33.47,28.164,0.0222,0.0109,9.8554,-0.6344,-0.0599,-0.6219
2935,774,816,33.523,28.163,0.0236,0.0628,9.7928,0.5531,-0.5625,0.4867
2940,773,808,33.398,28.164,0.0356,0.0575,9.8565,0.1854,-0.0777,-0.4768
2945,773,807,33.402,28.303,0.0399,-0.053,9.858,1.0856,-0.0631,0.0753
2950,795,814,33.368,28.267,0.0089,-0.0454,9.912,-0.2362,0.2231,-0.6016
2955,793,809,33.459,28.27,-0.0684,0.0928,9.7446,-0.3203,0.0454,0.5503
2960,803,811,33.422,28.185,0.0808,-0.0006,9.8269,0.1644,-0.1866,0.2281
2965,810,808,33.383,28.205,-0.0198,0.0306,9.7621,-0.2622,0.7945,-0.631
2970,815,805,33.454,28.189,0.0245,0.0116,9.8033,-0.0836,0.2831,-0.4895
2975,828,806,33.411,28.212,0.0591,-0.0653,9.818,-0.4593,-0.1479,0.2882
2980,836,802,33.472,28.216,0.0853,-0.0754,9.8508,0.6473,-0.7088,0.3705
2985,850,798,33.366,28.165,-0.032,-0.0342,9.7736,0.7046,-0.8465,0.3579
2990,863,791,33.382,28.203,-0.0063,0.0083,9.7436,-0.3683,-0.224,-0.4289
2995,869,793,33.451,28.202,0.0424,0.0461,9.8602,-0.7197,0.3138,-0.3001
3000,880,795,33.404,28.276,-0.02,0.0737,9.8738,0.0092,0.1238,-0.2426
3005,895,791,33.459,28.256,0.0355,0.0592,9.8487,-0.9616,-0.4984,-0.145
3010,908,794,33.388,28.158,-0.0887,0.0141,9.856,-0.1924,0.4233,0.2931
3015,922,785,33.405,28.247,0.0639,0.073,9.6715,1.0594,-0.2623,0.7993
3020,930,788,33.419,28.279,0.012,-0.091,9.7887,0.2416,-1.6137,-0.1598
3025,943,791,33.377,28.172,0.0015,-0.014,9.7847,0.5064,-0.9983,-1.281
3030,961,784,33.435,28.273,0.08,-0.0147,9.7207,0.2058,-0.7167,-0.1439
3035,957,783,33.494,28.211,-0.0906,-0.0036,9.7585,0.362,0.4371,-0.2461
3040,982,778,33.425,28.22,0.0491,-0.0385,9.8577,0.5648,0.2663,1.4812
3045,984,773,33.418,28.226,-0.0473,0.018,9.8033,0.0888,0.0569,0.003
3050,1012,779,33.406,28.195,0.0435,-0.0299,9.827,-0.4791,-0.4374,-0.7507
3055,1024,779,33.418,28.235,0.0037,0.0186,9.7601,0.0481,-0.1886,-0.4294
3060,1032,776,33.378,28.213,-0.085,0.008,9.8738,-0.0087,-0.5727,-0.1556
3065,1033,772,33.369,28.143,-0.0212,-0.0155,9.8422,0.3772,-0.2496,-0.2976
3070,1054,768,33.489,28.247,0.1238,0.0804,9.8414,0.3945,-0.2946,-0.2924
3075,1061,765,33.361,28.192,-0.0159,0.0122,9.7739,-0.6524,0.3471,1.2607
3080,1078,761,33.41,28.363,-0.053,0.0005,9.7823,0.2196,0.1019,-0.2998
3085,1086,764,33.462,28.196,-0.0236,0.0311,9.7716,0.2679,0.1796,0.7554
3090,1096,760,33.532,28.27,-0.0203,0.0143,9.837,0.4355,-0.6093,0.0677
3095,1117,755,33.424,28.227,-0.0725,-0.0325,9.7825,-0.1826,0.1315,0.0831
3100,1111,758,33.333,28.259,-0.0231,0.0532,9.8333,0.0951,0.5632,-0.576
3105,1120,754,33.467,28.191,0.1028,0.0016,9.8753,-0.6732,-0.3439,-0.5308
3110,1132,754,33.566,28.194,-0.0842,0.0846,9.7319,-0.4424,-0.4366,-0.1108
3115,1140,757,33.342,28.146,-0.0074,0.039,9.8266,-0.2161,-0.6135,0.2705
3120,1144,749,33.473,28.39,-0.0735,0.0415,9.8411,-0.1719,0.0426,0.3122
3125,1153,750,33.398,28.237,0.0306,0.0005,9.9179,0.4677,0.5556,-1.201
3130,1158,743,33.298,28.261,0.018,-0.0193,9.7882,-0.012,1.1974,0.3077
3135,1155,747,33.456,28.136,0.0259,0.0674,9.7497,0.1675,-0.253,-0.0577
3140,1170,747,33.485,28.249,0.0195,0.0649,9.8128,-0.245,0.7273,-0.4084
3145,1177,744,33.419,28.287,-0.0278,-0.0661,9.836,-0.0568,-0.5423,-0.3562
3150,1178,748,33.404,28.132,-0.0134,-0.044,9.8584,0.1218,0.2377,-0.3199
3155,1188,748,33.427,28.26,0.0082,-0.1367,9.7842,-0.0351,-0.0539,-0.7336
3160,1177,743,33.334,28.19,-0.0143,0.0281,9.8092,-0.0637,0.2652,0.3731
3165,1181,744,33.47,28.207,0.0283,0.0045,9.8623,-0.2978,-0.7995,0.2681
3170,1187,738,33.396,28.212,0.0192,-0.0818,9.7652,0.083,-0.3098,0.3957
3175,1189,745,33.388,28.185,0.0238,-0.1064,9.7727,0.2496,-0.5128,-0.3385
3180,1187,748,33.428,28.189,-0.0265,0.0086,9.8825,0.6679,-0.6802,-0.1963
3185,1188,740,33.413,28.233,-0.034,0.003,9.8657,-0.1212,0.1358,0.9235
3190,1196,745,33.492,28.197,0.0012,-0.1022,9.7938,0.7374,0.4152,0.4081
3195,1191,751,33.495,28.291,0.0343,0.0119,9.8505,-0.0878,-0.372,0.548
3200,1188,744,33.314,28.286,0.0776,0.0268,9.853,-0.1419,-0.5088,0.3944
3205,1182,748,33.354,28.224,0.0465,-0.127,9.8327,0.235,-0.1191,-0.4464
3210,1188,746,33.43,28.324,0.1045,0.0094,9.8177,-0.9434,0.3118,-0.2973
3215,1184,753,33.385,28.214,0.0359,0.0147,9.7856,-0.3191,0.7455,0.2157
3220,1170,752,33.465,28.295,0.0532,-0.0875,9.8671,1.2937,-0.296,-0.7429
3225,1183,752,33.33,28.259,-0.0534,0.0571,9.8285,0.1273,-0.2595,-0.6503
3230,1170,749,33.522,28.307,0.0326,0.0354,9.7429,0.4088,1.2133,0.2957
3235,1184,758,33.409,28.273,-0.0042,0.0072,9.7954,-0.0078,0.6215,0.1068
3240,1161,758,33.425,28.256,-0.0528,0.0308,9.7589,-0.4148,-1.254,-0.4511
3245,1165,757,33.455,28.186,0.0212,-0.015,9.9325,0.1157,0.3525,0.9572
3250,1153,767,33.334,28.302,-0.0331,-0.0323,9.7709,-0.6293,0.1528,-0.044
3255,1157,769,33.434,28.212,0.0064,-0.0041,9.7631,0.526,0.5047,0.2116
3260,1158,770,33.433,28.249,0.0178,0.0491,9.8137,-0.3815,0.157,0.6534
3265,1147,767,33.384,28.248,0.0387,0.0056,9.8208,-0.5689,0.2183,-0.4197
3270,1155,783,33.385,28.239,0.0017,-0.0036,9.8945,0.7596,0.1765,-0.1171
3275,1142,783,33.436,28.319,0.0128,0.015,9.7642,-0.1682,-0.4518,0.5367
3280,1139,773,33.5,28.217,0.0208,-0.0257,9.8071,0.0278,0.0925,0.3293
3285,1129,780,33.447,28.297,-0.0147,-0.0196,9.8048,0.3892,0.3356,0.0444
3290,1130,789,33.409,28.267,0.0088,-0.0921,9.8451,-0.6799,-0.7182,0.289
3295,1138,785,33.461,28.261,0.0605,0.022,9.8786,0.6002,-0.6026,-0.3151
3300,1127,790,33.356,28.153,-0.0195,-0.0282,9.8961,0.0685,-0.3105,-0.4802
3305,1124,793,33.401,28.186,-0.1125,-0.01,9.8531,-0.3141,0.0955,0.3405
3310,1129,796,33.493,28.237,-0.0529,-0.0163,9.7281,-0.0765,0.7132,0.3555
3315,1126,803,33.43,28.267,0.0544,0.0016,9.826,-0.4607,0.2379,0.3341
3320,1113,802,33.38,28.297,0.0838,0.0268,9.7469,-0.6256,0.4289,-0.3153
3325,1119,799,33.454,28.267,-0.0177,0.0376,9.7982,-0.1972,0.5525,-0.0286
3330,1111,805,33.465,28.226,0.0447,-0.0856,9.8621,0.647,0.2824,-0.6356
3335,1108,813,33.404,28.289,-0.0925,-0.0048,9.815,1.3523,-0.8336,-0.4588
3340,1108,813,33.36,28.249,0.0831,0.0037,9.8571,-0.3001,0.3094,-0.8468
3345,1107,818,33.445,28.157,-0.0479,0.0155,9.9007,0.7905,-0.9944,-0.355
3350,1098,820,33.445,28.23,0.0643,-0.005,9.6509,-0.2028,0.243,0.6894
3355,1100,818,33.439,28.234,0.0195,0.0078,9.7574,-0.7679,0.1055,-0.1855
3360,1099,818,33.416,28.24,0.0437,0.0415,9.794,0.4275,0.1807,0.5687
3365,1103,826,33.416,28.232,0.0335,0.0591,9.8903,-0.3607,-0.4234,0.5444
3370,1093,827,33.414,28.182,-0.0284,-0.0501,9.8143,0.1597,-0.1478,-0.1521
3375,1089,832,33.416,28.275,0.0485,0.0514,9.8006,0.1866,-0.4849,-0.5379
3380,1084,829,33.431,28.152,-0.039,-0.0016,9.6407,0.1087,0.2542,-0.3904
3385,1080,832,33.396,28.194,-0.0772,-0.0148,9.7463,0.1416,0.0622,0.2511
3390,1081,830,33.528,28.24,0.0956,-0.0052,9.7771,0.0348,0.1223,-0.1798
3395,1072,830,33.378,28.225,0.0122,0.0457,9.7735,-0.0866,-0.3628,0.494
3400,1074,831,33.428,28.148,-0.056,0.034,9.8131,0.6644,-0.5989,-0.5323
3405,1076,837,33.404,28.234,-0.0179,0.0419,9.825,0.862,-0.2689,0.2891
3410,1082,836,33.429,28.254,0.0213,-0.0196,9.9058,0.1364,-1.1447,0.1469
3415,1066,839,33.389,28.195,-0.0206,0.0003,9.7826,0.771,-1.4103,-0.3054
3420,1064,838,33.341,28.262,-0.0615,-0.0179,9.8144,0.5867,0.2866,0.3593
3425,1064,838,33.378,28.263,0.0416,0.0491,9.8124,-0.409,-1.5298,0.2658
3430,1062,845,33.347,28.259,0.1056,0.0589,9.7517,-0.0469,-0.4743,0.1323
3435,1057,841,33.312,28.24,0.0325,0.025,9.8451,-0.0611,-0.3213,0.236
3440,1041,840,33.478,28.304,0.0022,-0.0185,9.7892,-0.0726,-0.6507,0.8359
3445,1042,839,33.34,28.203,0.0129,-0.0596,9.8796,-0.8129,-0.2756,0.1305
3450,1055,843,33.347,28.276,0.104,0.0117,9.8079,-0.6168,-0.2979,0.0193
3455,1033,841,33.415,28.277,-0.0163,-0.0852,9.8138,0.104,-0.0141,-0.084
3460,1031,840,33.469,28.268,0.0671,0.0853,9.8576,-0.5102,-0.406,0.1982
3465,1022,838,33.526,28.197,0.0106,-0.0138,9.7157,-0.4706,-0.7024,1.1382
3470,1007,836,33.46,28.271,0.0764,-0.0558,9.9512,0.0547,0.6929,0.6408
3475,1008,842,33.42,28.186,-0.0648,0.0,9.6822,-0.5287,0.047,0.0318
3480,1007,841,33.402,28.189,-0.0402,-0.0081,9.88,-0.0989,0.1074,0.0332
3485,1001,840,33.381,28.222,0.0263,-0.035,9.8066,0.6486,0.0566,0.0398
3490,994,836,33.463,28.194,0.105,-0.0516,9.8099,0.0654,-0.4433,-0.3844
3495,990,844,33.475,28.162,-0.0529,-0.0016,9.8805,-0.3202,-0.6525,-0.3158
3500,981,839,33.424,28.28,0.048,0.0045,9.7818,0.3696,0.5823,-0.0454
3505,964,839,33.437,28.239,-0.0107,0.02,9.8322,-0.6829,0.5692,-0.3677
3510,952,838,33.435,28.281,0.0071,-0.0742,9.711,0.4047,-0.5795,0.053
3515,952,833,33.389,28.125,-0.0385,0.0228,9.8079,-0.0949,0.0835,0.3218
3520,939,835,33.473,28.22,0.0658,0.007,9.8351,0.6337,-0.0803,-0.7137
3525,936,835,33.429,28.288,-0.0667,-0.005,9.8855,-0.3579,0.3614,-0.049
3530,925,836,33.382,28.238,-0.0006,-0.0678,9.7182,0.098,-0.5598,0.6013
3535,923,830,33.448,28.292,-0.0452,0.0015,9.7951,-0.409,0.1501,0.428
3540,910,831,33.393,28.265,-0.057,-0.0044,9.891,0.5122,0.1209,-0.2218
3545,897,827,33.435,28.216,0.0296,-0.097,9.802,-0.9297,-0.0325,-0.9021
3550,892,834,33.359,28.324,-0.0127,0.0661,9.7893,-0.2582,0.4289,0.0993
3555,885,831,33.384,28.263,0.016,-0.0521,9.796,0.7877,-0.1212,0.3133
3560,868,828,33.428,28.256,0.0408,-0.0604,9.8287,0.4953,0.542,-0.3415
3565,869,829,33.323,28.261,0.0104,0.0338,9.9084,-0.4049,-0.6699,0.2038
3570,842,830,33.423,28.342,0.0155,0.0527,9.7314,0.1972,-1.3183,0.0777
3575,846,823,33.445,28.232,-0.0322,-0.0166,9.7921,0.6834,-0.2493,-0.2039
3580,836,830,33.374,28.179,-0.062,-0.0417,9.7596,0.2712,0.1648,0.6505
3585,820,826,33.423,28.269,0.0918,-0.0626,9.804,0.0499,0.378,-0.7764
3590,822,819,33.491,28.215,0.0168,-0.028,9.8028,-0.3347,-0.6273,-0.3775
3595,813,824,33.439,28.233,0.0204,-0.0743,9.851,0.0888,0.6405,0.3533
3600,805,827,33.381,28.226,0.0467,-0.0025,9.7849,0.1256,0.3046,-0.1782
3605,796,821,33.394,28.251,0.0271,-0.0361,9.7918,-0.7095,0.1549,-0.183
3610,792,820,33.361,28.246,0.0652,0.059,9.8498,-1.4213,1.2066,0.09
3615,781,825,33.473,28.267,-0.036,-0.0207,9.798,-1.1178,-0.2157,0.2743
3620,775,822,33.362,28.197,0.0603,0.037,9.8176,-0.6937,0.1666,-0.0961
3625,766,822,33.451,28.303,0.0308,0.0573,9.8758,0.5724,-0.2748,-0.9136
3630,765,823,33.357,28.353,0.0009,-0.0154,9.7959,0.1842,-0.1558,-0.8989
3635,769,819,33.43,28.316,0.0224,-0.0014,9.7306,0.2966,0.1237,-0.0375
3640,764,814,33.422,28.215,-0.0514,-0.061,9.7993,-0.5345,0.5729,0.7652
3645,760,817,33.424,28.337,-0.0068,0.0336,9.7383,0.2565,0.7205,0.1119
3650,756,820,33.465,28.189,-0.0163,0.036,9.8114,0.1737,0.1441,-0.1258
3655,749,814,33.489,28.234,0.0597,0.0199,9.855,-0.3283,-0.9314,0.2901
3660,737,814,33.452,28.285,-0.0176,0.0611,9.7568,-0.4423,0.2312,-0.1461
3665,748,819,33.36,28.321,0.0193,0.0737,9.9183,0.7829,-0.3449,-0.5904
3670,749,813,33.44,28.258,0.0197,0.1569,9.8316,-0.0785,-0.712,0.2378
3675,747,818,33.365,28.185,0.0064,0.0277,9.8147,-0.7684,0.76,0.4088
3680,744,812,33.401,28.21,-0.0127,-0.1079,9.8562,0.401,-0.1587,0.2522
3685,750,816,33.42,28.269,0.0559,0.0336,9.7918,0.4356,-0.2097,-0.3354
3690,749,813,33.392,28.201,-0.0034,-0.0134,9.755,-0.2742,0.6857,-0.6299
3695,767,807,33.453,28.232,0.0119,-0.0328,9.8511,0.1692,0.1384,-0.4044
3700,759,816,33.468,28.274,-0.0625,-0.0111,9.8302,0.4456,0.2468,-0.4232
3705,774,818,33.428,28.273,-0.0237,0.0344,9.7964,0.1284,0.129,1.0538
3710,776,813,33.442,28.151,0.0645,0.0234,9.6884,0.0962,-0.1666,-0.1675
3715,783,807,33.425,28.233,-0.023,0.0307,9.787,0.3194,0.3116,-0.5412
3720,793,806,33.48,28.269,-0.0651,0.0398,9.8848,0.1915,-0.1311,-0.1814
3725,797,810,33.515,28.188,0.0319,-0.0502,9.7542,0.556,-0.9376,-0.7796
3730,792,809,33.371,28.272,0.0269,-0.0026,9.8342,0.235,-0.398,-0.0657
3735,814,805,33.445,28.233,-0.0624,0.0144,9.7602,0.8523,-0.5966,-0.3551
3740,819,802,33.394,28.193,-0.0267,-0.0604,9.7769,0.1032,-0.1379,0.837
3745,841,798,33.4,28.222,-0.0101,0.0568,9.8061,0.9154,-0.4366,-0.3324
3750,847,801,33.406,28.256,-0.0935,-0.0057,9.7968,-0.1494,-0.1799,0.6025
3755,870,794,33.377,28.172,-0.046,-0.0051,9.7608,-0.1254,0.0247,0.3306
3760,870,795,33.419,28.161,0.0314,0.0138,9.8236,0.3603,0.0552,0.1738
3765,871,793,33.379,28.228,0.0036,-0.018,9.7956,-0.2285,0.1941,-0.1148
3770,895,795,33.442,28.18,-0.001,-0.0418,9.789,0.3832,0.6617,-0.4436
3775,895,794,33.537,28.191,-0.0438,-0.011,9.824,-0.3551,0.7177,0.2154
3780,918,787,33.376,28.224,0.0385,0.0434,9.7695,0.2911,0.1662,-0.1739
3785,935,792,33.373,28.32,0.0723,-0.0096,9.921,0.3297,0.0268,-0.0132
3790,927,787,33.367,28.232,0.0435,-0.0388,9.7757,0.2571,1.0373,-0.6929
3795,951,786,33.454,28.222,-0.0496,0.0315,9.7767,0.2655,0.0109,0.7458
3800,966,784,33.454,28.248,0.037,-0.0407,9.8157,0.6169,-0.6798,-0.3816
3805,982,780,33.388,28.218,-0.0026,-0.0201,9.8107,-0.5229,0.8351,0.6066
3810,985,779,33.362,28.231,-0.0194,-0.0405,9.7714,-0.1761,-0.425,0.2673
3815,992,774,33.478,28.181,0.0027,-0.0261,9.8178,-0.1759,-0.4507,0.678
3820,1017,773,33.415,28.266,-0.0743,-0.0089,9.8409,-0.0324,0.7357,0.0862
3825,1025,776,33.468,28.288,-0.0815,-0.073,9.7601,0.264,-0.0461,0.2758
3830,1029,766,33.419,28.141,0.0356,-0.0096,9.8191,0.5625,0.9713,-0.3049
3835,1042,764,33.559,28.21,0.0881,-0.0269,9.8911,0.3022,0.4303,-0.2587
3840,1069,767,33.499,28.31,-0.0805,-0.0423,9.7651,1.0007,0.8117,-0.1031
3845,1080,763,33.417,28.256,0.0701,0.0183,9.7438,0.0921,0.0618,0.6864
3850,1084,763,33.458,28.217,0.0592,0.0282,9.8979,-0.0838,-0.3023,-0.0312
3855,1092,765,33.504,28.205,-0.0109,-0.0089,9.8023,-0.4796,-0.3703,-0.0194
3860,1106,764,33.465,28.238,-0.0229,0.0343,9.8022,-0.2464,0.3152,0.2236
3865,1108,752,33.41,28.294,0.0684,-0.0435,9.8045,-0.0379,-0.7639,-0.1055
3870,1116,757,33.405,28.244,-0.0546,-0.0194,9.8292,0.4201,-0.5634,-0.1933
3875,1117,752,33.403,28.254,-0.0036,-0.0754,9.8523,-0.5174,0.1327,-0.3403
3880,1132,752,33.417,28.266,0.0004,0.0198,9.8192,0.0403,0.1678,0.0513
3885,1140,751,33.454,28.159,0.0256,-0.0135,9.8362,-0.4289,-0.8765,0.131
3890,1149,746,33.374,28.215,0.0066,-0.0421,9.8457,-0.5761,0.3228,-0.3132
3895,1161,745,33.398,28.222,-0.0339,-0.0785,9.7803,0.0964,-0.9701,0.0921
3900,1165,745,33.355,28.233,0.015,0.0179,9.8542,0.1495,0.1691,-0.8936
3905,1173,743,33.495,28.221,0.0334,0.0641,9.818,-0.4973,0.9155,-0.5704
3910,1176,751,33.468,28.13,-0.0131,-0.0235,9.699,0.0835,-0.3668,0.2277
3915,1178,740,33.534,28.181,0.1259,0.0027,9.8021,-0.0907,0.3881,-0.9756
3920,1181,747,33.434,28.163,0.0336,-0.0569,9.8671,0.5083,0.8005,-0.6789
3925,1191,739,33.394,28.295,0.0117,-0.0288,9.7149,0.4974,0.0731,0.4988
3930,1196,744,33.52,28.276,0.0765,-0.0285,9.8449,0.0492,-0.2349,0.1973
3935,1185,746,33.42,28.293,-0.0055,-0.0288,9.7309,-0.341,0.3744,-0.399
3940,1187,747,33.346,28.294,-0.0277,0.0511,9.8282,-0.7433,-0.2532,0.092
3945,1190,746,33.408,28.191,0.0779,-0.01,9.8146,-0.8472,0.5714,-0.2335
3950,1188,743,33.329,28.259,-0.0388,-0.1396,9.8049,0.0263,-0.0178,0.3243
3955,1188,745,33.453,28.289,-0.0928,0.0771,9.7783,-0.0126,0.1476,-0.8929
3960,1192,745,33.4,28.273,0.0232,0.0627,9.8101,0.1615,-0.3427,0.0207
3965,1186,747,33.425,28.276,-0.0199,-0.0183,9.8345,-0.363,-0.471,-0.4053
3970,1192,751,33.482,28.24,0.0262,-0.0141,9.708,0.4263,-0.4046,-0.1542
3975,1194,750,33.361,28.276,-0.0111,0.0386,9.9079,0.866,0.6189,0.2886
3980,1184,749,33.391,28.274,0.0663,-0.0531,9.7785,-0.1233,-0.3182,-0.0233
3985,1179,753,33.413,28.33,0.0391,0.0351,9.8877,1.3478,-0.0113,-0.157
3990,1173,753,33.417,28.273,0.0048,0.0805,9.7258,-0.2776,0.9168,0.4729
3995,1178,755,33.435,28.178,0.0127,0.001,9.7985,0.4949,0.6128,0.8291
4000,1168,755,33.452,28.249,-0.0154,0.0445,9.8061,-0.8636,0.9268,-0.1196
4005,1169,754,33.487,28.26,0.0793,0.0191,9.7388,0.2089,-0.061,0.1002
4010,1165,765,33.354,28.232,-0.0198,-0.0354,9.8519,-0.8446,0.1735,-0.3475
4014,1161,766,33.422,28.18,-0.065,-0.0204,9.7773,-0.3201,0.4349,-0.213
4019,1163,769,33.395,28.231,-0.0335,0.0,9.7696,0.1271,0.1922,-0.3612
4025,1164,768,33.4,28.226,-0.0026,-0.059,9.8277,0.1143,-0.304,0.6711
4030,1146,776,33.362,28.217,0.0992,0.029,9.8312,-0.2684,-0.3051,-0.0416
4035,1160,773,33.437,28.181,0.0077,-0.0538,9.8304,-0.1259,-0.0442,-0.2043
4040,1142,777,33.447,28.169,-0.0604,-0.048,9.8572,0.415,0.7257,-1.0157
4045,1145,776,33.466,28.218,0.0297,-0.1137,9.8433,0.1644,0.0389,0.0625
4050,1146,781,33.409,28.306,0.1178,0.0181,9.8991,0.0584,-0.2763,0.0083
4054,1130,779,33.496,28.254,0.019,0.0053,9.867,0.1792,-0.8632,0.0281
4059,1129,790,33.442,28.189,0.0525,0.0152,9.855,-0.2272,0.5333,0.9862
4065,1139,788,33.416,28.238,0.0672,0.064,9.8261,-0.1599,-0.0174,-0.5494
4070,1136,793,33.393,28.232,-0.1127,0.0327,9.8468,-0.0115,-0.4147,0.2855
4075,1121,792,33.472,28.199,0.0658,-0.0616,9.7936,-0.2433,-0.076,-0.3615
4080,1111,799,33.428,28.322,0.0595,0.0774,9.7133,0.0427,0.1196,-0.0697
4085,1112,803,33.395,28.138,0.0798,0.0583,9.8534,0.2476,0.1717,0.2912
4090,1109,798,33.513,28.376,-0.0392,-0.0422,9.7494,-0.1565,-0.2264,0.1185
4094,1108,804,33.418,28.18,0.0453,-0.0196,9.8822,0.3214,-0.0237,-0.149
4100,1105,810,33.309,28.258,0.0074,-0.0255,9.8334,0.4657,-0.4581,0.3784
4105,1108,810,33.424,28.305,0.0639,0.0373,9.8346,-0.0361,-0.0127,0.4607
4110,1098,809,33.438,28.267,0.0904,0.0007,9.7837,-0.0588,0.1085,0.415
4115,1113,816,33.475,28.205,-0.0491,0.0073,9.7728,-0.1977,0.0197,-0.3898
4120,1102,819,33.394,28.246,0.0027,0.0015,9.7884,-0.0188,0.7531,-0.7862
4125,1101,814,33.473,28.219,-0.0253,0.0098,9.8587,-0.1867,0.3096,0.6211
4130,1095,822,33.389,28.238,-0.02,0.0294,9.7938,0.8531,0.2958,-0.2696
4135,1089,828,33.378,28.235,-0.0464,0.0079,9.8991,0.1082,-0.9443,-0.1317
4140,1102,827,33.44,28.255,0.0295,-0.0066,9.7901,-1.173,-0.4298,0.4404
4145,1089,823,33.456,28.234,-0.0272,0.0154,9.7744,0.1925,0.3251,-0.1155
4150,1088,830,33.409,28.216,0.0397,-0.0218,9.7799,-1.2494,0.2943,0.4343
4155,1088,830,33.473,28.125,-0.0489,0.0188,9.7866,-1.2657,-0.3892,0.1642
4160,1069,832,33.528,28.21,-0.0004,0.0707,9.7797,-0.1914,0.4751,0.0953
4165,1077,829,33.488,28.249,0.0849,-0.0531,9.8533,0.0919,-0.2927,1.274
4170,1080,836,33.42,28.276,0.016,0.0957,9.8532,0.004,-0.4862,0.4366
4175,1071,837,33.362,28.266,0.0165,0.0059,9.7848,0.9261,0.8139,-0.1793
4180,1074,837,33.432,28.291,0.1009,0.0573,9.7532,0.097,0.2318,0.6505
4185,1069,833,33.409,28.214,0.0527,-0.0438,9.6833,0.8824,0.5607,0.5383
4190,1072,841,33.422,28.327,0.0185,-0.0203,9.8408,-0.0895,-0.2628,0.3987
4195,1060,842,33.503,28.316,0.0289,0.0006,9.785,0.0631,0.1323,-0.1596
4200,1052,841,33.477,28.238,0.0849,0.0455,9.8974,0.4331,-0.1335,-0.0191
4205,1055,837,33.403,28.21,-0.0224,-0.034,9.7696,0.8309,0.4981,-0.1693
4210,1043,838,33.482,28.178,0.0438,-0.0427,9.8805,1.0929,0.006,-0.3354
4215,1044,842,33.481,28.3,0.0487,-0.0344,9.7911,-0.106,0.7776,0.5025
4220,1039,846,33.409,28.199,0.0468,-0.0612,9.7895,-0.9761,0.3983,-0.561
4225,1033,842,33.45,28.242,-0.0338,0.0273,9.7773,0.3235,0.0507,0.9328
4230,1024,841,33.407,28.255,-0.0626,-0.0075,9.7897,0.284,0.1042,0.6205
4235,1026,842,33.438,28.195,-0.028,-0.0253,9.7821,-0.3713,-0.0191,0.6123
4240,1011,837,33.468,28.283,0.0826,0.0182,9.8919,-0.2924,-0.1905,-0.1457
4245,1010,842,33.422,28.287,-0.043,0.0474,9.7946,0.5245,0.4181,0.1608
4250,1002,839,33.528,28.201,-0.0464,0.0035,9.6863,0.2969,0.6791,0.5956
4255,992,840,33.375,28.259,0.0078,0.0021,9.8241,1.1693,0.7966,-0.0368
4260,982,842,33.492,28.264,0.0157,0.0915,9.7876,0.037,0.4624,0.2271
4265,983,842,33.491,28.119,-0.0332,-0.0724,9.7896,-0.6813,-0.0996,0.4983
4270,973,839,33.44,28.233,-0.0732,-0.034,9.7634,-0.1551,0.2763,-0.1988
4275,967,837,33.409,28.284,0.042,-0.0176,9.7432,0.3219,0.5282,0.0112
4280,960,833,33.498,28.196,0.0741,0.0439,9.8648,-0.5509,0.4662,-0.6968
4285,953,835,33.399,28.232,0.0031,0.0415,9.8465,0.1273,-0.1842,0.5814
4290,936,832,33.425,28.204,-0.0923,0.0102,9.8489,-0.1155,-0.4927,0.5099
4295,934,832,33.453,28.225,-0.0306,-0.0021,9.8023,0.0903,0.3266,0.0761
4300,916,838,33.446,28.248,-0.0198,-0.0405,9.7813,-0.2375,1.2444,1.4667
4305,915,831,33.414,28.308,0.0346,0.0026,9.6957,-0.1506,-0.2117,-0.2617
4310,906,833,33.456,28.237,-0.0295,-0.0076,9.7894,0.3888,0.7186,-0.1254
4315,888,829,33.456,28.203,-0.0616,0.0196,9.8013,0.2517,0.5269,-0.389
4320,885,835,33.36,28.249,-0.0545,0.0262,9.7855,0.4898,0.0202,-0.5839
4325,878,830,33.45,28.257,-0.0195,0.1293,9.7459,-0.0619,-0.807,0.2767
4330,872,827,33.391,28.164,-0.0411,-0.0688,9.7521,0.8551,-0.6115,-0.4453
4335,852,824,33.419,28.285,0.0107,-0.0507,9.9141,0.3296,0.4634,0.6143
4340,843,828,33.407,28.175,0.0045,0.0019,9.8286,0.9908,0.0261,0.2691
4345,843,831,33.483,28.266,-0.0408,0.0106,9.801,0.1267,0.1,-0.1035
4350,822,825,33.549,28.296,-0.055,-0.0447,9.9116,-0.3796,-0.7577,0.1437
4355,819,825,33.396,28.278,0.0683,0.1086,9.8282,0.413,0.5976,0.5252
4360,815,822,33.393,28.311,0.0276,0.0105,9.8092,0.591,0.763,-1.0614
4365,801,825,33.324,28.228,0.05,-0.0815,9.7986,-0.68,0.307,-0.1119
4370,800,830,33.367,28.194,-0.0458,0.129,9.7422,0.1357,0.1915,-0.1322
4375,787,822,33.417,28.193,-0.0249,0.0094,9.7557,1.2611,0.4983,1.1125
4380,782,827,33.433,28.275,0.0718,0.0155,9.7625,-0.3508,0.3434,-0.7296
4385,777,822,33.458,28.327,-0.0536,0.0039,9.7534,-0.5566,0.3548,-0.0514
4390,768,819,33.413,28.268,0.013,0.0018,9.7197,-0.3156,-0.3854,-1.3335
4395,763,819,33.461,28.131,-0.0647,0.0075,9.8019,0.5981,-0.327,-0.5987
4400,761,819,33.508,28.219,-0.1433,-0.0306,9.829,-0.0216,-0.3902,0.329
4405,757,823,33.45,28.183,0.0506,-0.0568,9.7289,-0.0792,-0.384,0.6557
4410,757,818,33.364,28.163,0.0259,0.0716,9.7353,0.2643,-0.863,-0.6909
4415,744,821,33.438,28.165,0.0283,0.0373,9.7862,-0.8015,-0.7747,-0.4344
4420,751,820,33.468,28.217,-0.0028,-0.0188,9.7831,-0.6905,-0.1122,0.5824
4425,748,821,33.447,28.198,0.0948,0.0557,9.83,1.0649,-0.4462,1.1227
4430,748,819,33.461,28.271,0.0008,-0.0811,9.7433,-0.9465,-0.214,-0.1364
4435,739,812,33.397,28.283,0.0049,0.0087,9.7709,1.0791,0.1053,-0.3544
4440,749,812,33.388,28.231,-0.0201,-0.0328,9.7903,-0.2798,1.0195,-0.1376
4445,751,812,33.442,28.249,0.0115,0.009,9.7129,-0.7613,-0.6756,0.2477
4450,741,819,33.569,28.216,-0.0705,-0.0184,9.8543,-0.1737,-0.2218,0.3133
4455,750,815,33.417,28.18,0.0261,-0.029,9.7317,0.4044,0.6096,0.4155
4460,753,818,33.414,28.288,-0.0119,0.0039,9.7914,-0.1658,-0.3024,-0.3015
4465,764,817,33.432,28.232,0.006,-0.0438,9.8251,-0.3096,-0.4236,-0.4292
4470,773,813,33.482,28.208,-0.0082,-0.0009,9.6629,0.4478,-0.4562,-0.0131
4475,778,814,33.422,28.154,-0.027,-0.0141,9.7971,1.1101,0.143,0.4825
4480,787,812,33.404,28.288,0.0301,-0.0521,9.7994,-0.2995,0.3403,0.7623
4485,785,807,33.457,28.255,-0.1122,-0.0394,9.7683,0.6228,0.7825,0.3217
4490,797,808,33.466,28.167,0.0056,0.0417,9.8091,0.0416,0.458,-0.5025
4495,799,807,33.408,28.204,-0.0153,0.0216,9.7379,0.4067,0.6644,-0.4742
4500,820,806,33.398,28.227,0.0911,-0.091,9.9229,-0.448,-0.5092,-0.187
4505,823,803,33.479,28.271,-0.0859,0.0032,9.79,-0.1323,0.8965,-0.6318
4510,833,802,33.416,28.226,-0.0528,-0.0597,9.7541,0.4013,-0.3389,0.0042
4515,845,804,33.434,28.229,0.0575,-0.0135,9.8089,-0.5028,0.9313,-0.5028
4520,859,800,33.415,28.259,0.0418,-0.0047,9.8477,0.9117,-0.1571,0.4557
4525,857,798,33.474,28.264,-0.1295,-0.026,9.7819,0.7073,-0.3227,-0.6387
4530,881,795,33.402,28.268,0.0191,0.0614,9.785,-0.2668,-0.0526,1.338
4535,895,799,33.353,28.286,0.0525,0.0006,9.8476,0.136,0.6017,0.4709
4540,896,795,33.397,28.225,-0.0201,0.0417,9.7993,-0.0301,-0.0542,-0.3471
4545,913,786,33.494,28.264,0.0215,0.0363,9.7945,0.1167,-0.5211,-0.0707
4550,929,784,33.411,28.181,0.0931,-0.0679,9.8271,-0.285,-0.565,-0.2823
4555,933,789,33.468,28.306,-0.0194,0.0272,9.8223,0.5894,-0.1536,0.5823
4560,954,781,33.381,28.296,-0.0023,-0.0197,9.7454,0.7127,0.3101,0.9232
4565,965,786,33.444,28.269,0.0403,0.0436,9.7984,-0.0918,0.6179,0.2305
4570,975,783,33.37,28.178,0.0201,-0.025,9.8287,0.1202,-0.2598,-0.3581
4575,987,777,33.491,28.216,-0.0107,0.065,9.8533,0.1943,-0.8283,-0.5167
4580,998,779,33.52,28.207,-0.0012,-0.0509,9.9208,-0.3047,-0.4959,-0.4009
4585,1014,775,33.507,28.279,-0.1048,0.0748,9.8449,-0.1868,0.0755,0.3285
4590,1029,779,33.495,28.25,0.0419,0.0599,9.7951,0.7983,0.7698,0.0904
4595,1033,769,33.424,28.222,-0.0444,0.0166,9.8514,0.4624,-0.0951,-0.4856
4600,1057,773,33.472,28.257,-0.0471,0.1632,9.8812,-1.0019,0.5061,0.4402
4605,1053,770,33.592,28.189,-0.0524,0.0355,9.8618,-0.1031,0.439,-0.2505
4610,1071,765,33.413,28.318,0.0547,0.0453,9.8167,0.2238,0.2995,0.1533
4615,1081,766,33.495,28.265,-0.0334,-0.0295,9.7654,-0.5724,-0.357,-0.5274
4620,1087,762,33.458,28.163,-0.0547,0.0423,9.73,-0.1519,-0.1486,-0.3811
4625,1104,759,33.451,28.371,0.0578,0.0305,9.7552,-0.3914,-0.5121,-0.1408
4630,1112,765,33.439,28.13,-0.0267,0.0103,9.8682,0.8673,0.9235,0.2409
4635,1117,760,33.42,28.288,0.0658,-0.0,9.8048,-0.5815,0.3906,0.649
4640,1121,758,33.404,28.197,0.0259,-0.0352,9.686,0.436,0.9445,-0.6247
4645,1133,752,33.415,28.253,-0.0619,0.0317,9.8092,0.45,0.8491,-0.3738
4650,1139,748,33.488,28.172,0.0156,-0.0868,9.8503,0.7294,0.0961,0.1469
4655,1151,747,33.441,28.284,-0.0621,-0.1199,9.7568,-0.1596,0.0254,-0.384
4660,1151,743,33.439,28.295,-0.0186,-0.011,9.7898,-0.7145,0.0386,-0.1013
4665,1170,749,33.418,28.219,0.0297,0.0119,9.7945,-0.499,-0.3961,0.1527
4670,1166,746,33.488,28.208,-0.0119,0.0436,9.7611,-1.0801,0.1078,-0.2068
4675,1165,748,33.411,28.351,0.0141,-0.0185,9.7364,-0.4476,0.246,-0.2259
4680,1174,743,33.496,28.148,-0.0022,-0.0701,9.8776,-0.5395,-0.896,-0.9484
4685,1176,743,33.379,28.23,-0.0279,0.0101,9.8962,-0.3911,-0.4654,0.0163
4690,1181,745,33.549,28.259,0.0711,-0.0347,9.9007,-0.0905,-0.4052,-0.6912
4695,1182,744,33.413,28.226,0.0424,0.049,9.8449,0.619,0.669,-0.3564
4700,1183,745,33.441,28.248,0.0684,0.0291,9.8332,-0.0635,-0.2425,0.0947
4705,1187,742,33.36,28.24,-0.0097,0.003,9.7861,0.1133,-0.3403,-0.5643
4710,1185,742,33.45,28.314,-0.0611,-0.0817,9.8592,0.4156,-0.0302,-0.3947
4715,1190,738,33.492,28.155,-0.1342,0.0433,9.8032,-0.501,-0.016,-0.5266
4720,1191,746,33.439,28.214,0.0312,-0.096,9.7813,0.0691,0.1582,-0.2323
4725,1185,745,33.438,28.223,0.1039,-0.0247,9.7988,0.303,-0.3784,1.2297
4730,1191,749,33.44,28.218,0.0451,-0.0574,9.7649,0.6363,0.869,-0.6171
4735,1180,749,33.425,28.275,0.0403,0.1229,9.8401,-0.463,-0.4356,-0.0431
4740,1188,745,33.456,28.228,0.0328,-0.0526,9.8349,0.8356,-0.1102,-0.1404
4745,1178,754,33.514,28.22,-0.0228,0.0033,9.8218,-0.8762,0.6063,-0.0268
4750,1182,748,33.386,28.251,0.0349,-0.019,9.8432,0.4384,-0.4798,0.4115
4755,1179,754,33.491,28.215,0.0317,0.0988,9.7762,-0.1142,0.1176,0.0741
4760,1178,751,33.469,28.202,0.0116,0.0321,9.8609,0.4546,0.0811,0.6377
4765,1169,755,33.418,28.322,0.0465,-0.0774,9.7917,0.1394,-0.162,-0.1803
4770,1177,758,33.397,28.254,-0.0764,0.0214,9.7879,0.3204,0.6837,0.4056
4775,1173,760,33.451,28.184,-0.0459,-0.0485,9.8149,0.6825,0.2005,1.2435
4780,1169,762,33.449,28.232,0.043,-0.023,9.7321,-0.4479,0.3496,-0.0605
4785,1159,762,33.418,28.235,0.0433,-0.0377,9.809,-0.7997,-0.7638,-0.251
4790,1157,768,33.415,28.193,-0.0514,-0.0043,9.8786,0.2194,-1.4573,-0.656
4795,1152,770,33.485,28.239,-0.017,-0.0102,9.8344,0.5437,0.0787,-1.2344
4800,1149,775,33.393,28.26,0.0147,-0.0256,9.8205,-0.2919,0.3052,0.749
4805,1141,782,33.391,28.262,0.045,-0.0063,9.8094,0.875,-0.1982,0.7892
4810,1136,777,33.477,28.347,0.0271,0.0136,9.702,0.1746,0.1343,0.2659
4815,1146,779,33.464,28.235,-0.0307,0.0518,9.6641,-0.8594,0.3673,1.1732
4820,1138,779,33.4,28.214,-0.0249,0.0292,9.7692,0.3855,-0.0268,0.6407
4825,1123,791,33.349,28.195,0.0641,-0.0208,9.8245,-0.497,-0.2307,-0.2724
4830,1133,794,33.51,28.232,-0.0033,-0.0258,9.8231,-0.1798,0.9677,-0.1895
4835,1126,796,33.517,28.221,-0.0427,0.0288,9.8351,-0.3628,0.6182,-1.0362
4840,1111,789,33.436,28.236,-0.0814,-0.0065,9.8799,-0.5057,0.1708,0.0714
4845,1112,797,33.369,28.264,-0.0602,0.0651,9.7738,0.4371,0.0987,-0.6889
4850,1127,802,33.444,28.203,-0.057,0.0456,9.7817,0.2334,0.0222,0.4254
4855,1114,799,33.497,28.165,0.0016,-0.0426,9.7724,-0.4206,-0.1391,0.8576
4860,1107,807,33.427,28.21,-0.0472,0.0123,9.7733,0.3438,0.2365,0.407
4865,1108,807,33.418,28.303,-0.0166,-0.0537,9.7393,0.465,0.8018,0.2584
4870,1105,815,33.495,28.239,-0.0566,0.0468,9.7838,0.6045,0.0971,0.584
4875,1108,812,33.475,28.206,-0.1248,0.05,9.8634,0.143,0.1116,-0.5452
4880,1105,809,33.403,28.289,0.0445,0.0314,9.7651,-0.5792,0.8622,-0.1876
4885,1104,818,33.525,28.338,0.0239,-0.0072,9.8237,-0.0925,-0.5514,0.0191
4890,1093,818,33.403,28.225,-0.0425,-0.0199,9.8136,-0.2113,-0.7081,0.1144
4895,1087,819,33.432,28.218,0.0079,-0.0048,9.7372,0.2715,-0.282,0.6517
4900,1098,822,33.459,28.216,0.1004,0.0182,9.8465,-0.0325,0.6319,0.0727
4905,1088,828,33.453,28.278,0.0096,-0.0954,9.8524,-0.586,0.4168,-0.2707
4910,1080,826,33.414,28.22,-0.0101,-0.0164,9.7861,0.2733,-0.6071,-0.8398
4915,1085,831,33.462,28.262,-0.0081,0.091,9.8723,-0.655,-0.4754,-0.0631
4920,1083,830,33.51,28.316,0.0084,-0.0533,9.7777,-0.0175,-0.1669,-0.1443
4925,1090,828,33.43,28.114,0.0071,0.0583,9.6859,0.4064,0.6942,-0.4896
4930,1087,835,33.501,28.309,0.129,0.0055,9.8194,-0.6326,0.2008,-1.0603
4935,1074,837,33.463,28.288,0.0409,0.0525,9.8683,-0.0586,0.3727,-0.5313
4940,1070,840,33.419,28.351,0.0403,-0.0533,9.8491,0.3148,0.1041,0.2382
4945,1065,837,33.517,28.227,0.0512,-0.0002,9.8562,-0.8388,0.0649,-0.2986
4950,1062,840,33.49,28.204,0.0298,-0.0214,9.8206,0.4433,-0.5035,-0.309
4955,1058,841,33.419,28.247,0.072,-0.0014,9.8021,-0.0605,-0.2189,0.673
4960,1066,840,33.489,28.17,-0.0426,0.0029,9.8388,-0.6733,-0.0376,1.0117
4965,1062,842,33.383,28.169,-0.0585,0.002,9.7539,-0.1753,-0.7041,0.1111
4970,1052,835,33.466,28.289,0.0373,0.0661,9.8231,-0.2859,-0.4492,0.7202
4975,1053,840,33.427,28.267,-0.0336,0.066,9.8722,1.2229,-0.5026,-0.9172
4980,1039,839,33.479,28.295,-0.1031,-0.0477,9.7616,0.6079,-0.7298,0.9888
4985,1045,844,33.523,28.243,-0.0237,0.0155,9.7969,-0.3469,0.711,-0.5185
4990,1030,841,33.514,28.303,-0.0591,-0.009,9.7862,0.2505,0.5557,0.7517
4995,1028,841,33.452,28.363,-0.0181,-0.0348,9.7773,0.1278,0.0498,-0.1461
5000,1014,843,33.481,28.288,-0.1623,-0.0058,9.7574,0.1118,0.3012,-0.1978
5005,1011,839,33.454,28.257,0.0431,0.0197,9.7885,-0.1953,-0.2389,0.2434
5010,1009,840,33.451,28.289,-0.0287,-0.1089,9.7685,-0.3787,0.0369,-1.0913
5015,1000,844,33.412,28.318,-0.0275,0.0816,9.8332,-0.7816,-0.2582,0.7425
5020,993,840,33.543,28.226,0.0432,-0.0526,9.829,-0.0874,-0.3307,0.0061
5025,991,840,33.4,28.297,-0.0301,0.0066,9.8545,-0.6104,-0.4868,-0.3152
5030,985,838,33.452,28.258,0.0601,-0.0089,9.8354,0.7971,-0.2577,0.2781
5035,980,843,33.497,28.263,0.0565,-0.0216,9.8339,0.0329,0.152,-0.8674
5040,964,840,33.436,28.233,0.0607,0.0234,9.764,-0.7891,-0.3885,-0.668
5045,962,840,33.402,28.304,0.0365,0.0281,9.7626,-0.3944,-1.3176,0.2236
5050,954,838,33.387,28.239,0.0055,-0.0187,9.849,0.754,-0.1122,-0.8152
5055,944,830,33.483,28.198,0.002,-0.0313,9.7961,-0.4139,0.5855,0.9245
5060,929,829,33.48,28.192,0.0103,-0.0003,9.7066,0.4988,0.1977,0.5143
5065,929,839,33.539,28.281,0.0213,-0.0287,9.8244,-0.2079,0.2319,0.073
5070,911,837,33.437,28.241,-0.0191,0.0024,9.7777,-0.2223,-0.2381,0.4947
5075,909,833,33.452,28.234,0.1364,-0.1022,9.7602,0.9625,0.7795,0.017
5080,886,830,33.475,28.247,-0.0166,0.0462,9.8062,0.0052,-0.3958,0.6343
5085,881,830,33.432,28.264,-0.0645,-0.0029,9.8472,0.7047,0.0608,0.2023
5090,877,826,33.434,28.153,-0.0116,-0.0199,9.8668,0.1298,0.7542,-0.6594
5095,866,834,33.419,28.156,-0.0222,-0.0053,9.8313,0.2096,-1.0733,0.393
5100,855,830,33.548,28.323,0.0224,0.0136,9.8654,-0.2986,-0.7032,-0.2937
5105,848,829,33.486,28.258,0.0116,-0.0527,9.8111,0.4855,-0.7908,0.574
5110,845,830,33.433,28.224,0.0037,0.0461,9.8413,-0.258,0.2546,0.2479
5115,829,822,33.385,28.272,0.0447,-0.0053,9.8162,0.3047,-0.493,-0.0775
5120,821,820,33.382,28.296,0.039,0.0091,9.8263,-0.2247,0.6824,0.8762
5125,805,828,33.405,28.199,0.0068,-0.0968,9.7462,-0.3953,0.0984,0.1604
5130,798,826,33.346,28.254,-0.0199,0.0131,9.8903,-0.6933,0.9703,0.8932
5135,792,823,33.462,28.262,-0.0485,0.0184,9.802,0.4314,0.3804,-0.0738
5140,791,821,33.455,28.291,-0.0554,-0.0513,9.7243,-0.0986,0.2141,-0.5643
5145,789,820,33.448,28.316,-0.0031,0.0386,9.8117,0.4366,0.4513,-0.1262
5150,780,820,33.478,28.271,-0.1381,0.0492,9.89,-0.661,-0.3518,-0.6452
5155,778,813,33.491,28.283,-0.0261,0.0137,9.8547,0.2585,0.8046,-0.0876
5160,770,815,33.408,28.302,0.034,0.06,9.8338,0.4432,-0.0072,-0.286
5165,763,816,33.415,28.276,-0.0591,-0.058,9.837,-0.1852,-0.0436,-0.5828
5170,767,823,33.429,28.262,-0.0793,0.0762,9.8702,-0.5308,-0.5073,0.4528
5175,756,824,33.432,28.169,0.0306,-0.0129,9.8223,-0.0922,-0.0667,-0.3851
5180,759,822,33.53,28.27,0.0731,-0.0127,9.8991,-1.2271,-0.7841,-0.415
5185,753,822,33.496,28.245,0.0069,-0.0666,9.8412,0.1187,-0.5549,-0.2603
5190,750,818,33.41,28.325,-0.0122,-0.0021,9.8447,0.4415,0.0741,0.5226
5195,746,813,33.522,28.254,0.0317,0.0451,9.8216,0.7613,0.6228,-0.2843
5200,745,818,33.473,28.301,-0.0571,-0.0435,9.7639,0.1575,-0.0263,0.2321
5205,759,808,33.606,28.218,0.065,-0.0574,9.8517,0.7223,0.3818,-0.459
5210,744,816,33.491,28.288,-0.0017,0.0855,9.8276,0.1126,-0.1266,0.1163
5215,751,821,33.478,28.314,0.0067,-0.0495,9.9001,0.5138,0.3636,-0.1012
5220,757,813,33.389,28.196,0.0129,0.0355,9.846,-0.0787,0.1566,0.9672
5225,763,815,33.456,28.248,0.0322,-0.0034,9.7005,-0.1488,-0.1533,-0.4419
5230,760,810,33.437,28.274,0.0423,-0.054,9.7337,0.1473,0.027,0.3698
5235,771,809,33.42,28.296,-0.0513,0.0686,9.7769,-0.8401,-0.1815,-0.1221
5240,773,812,33.333,28.253,-0.0297,-0.0294,9.8713,-1.0765,0.2661,-0.3767
5245,784,809,33.473,28.166,0.0152,-0.0361,9.7967,0.6455,-0.4079,-0.6126
5250,784,806,33.408,28.239,0.0112,-0.0106,9.8473,0.8588,-0.6502,0.4456
5255,791,807,33.479,28.296,-0.008,0.0769,9.8116,0.5153,-0.1695,0.0706
5260,810,813,33.415,28.236,0.0008,0.0216,9.8713,-1.3904,0.4691,-0.2093
5265,813,807,33.388,28.35,0.046,0.0247,9.7488,0.8239,-0.0175,-0.2635
5270,818,801,33.432,28.272,-0.0444,0.0604,9.8235,-0.5047,-0.4633,-0.5352
5275,832,805,33.438,28.217,0.0214,0.0359,9.8243,-0.2842,-0.4816,-0.145
5280,838,806,33.437,28.344,-0.0214,-0.025,9.7977,-0.4106,-0.4908,-0.0524
5285,846,801,33.439,28.18,-0.0539,0.0044,9.7848,-0.3751,-0.051,-0.7328
5290,860,799,33.436,28.302,-0.0344,-0.039,9.9669,0.385,-0.9432,-0.4992
5295,873,798,33.519,28.175,-0.0365,0.0044,9.7878,-0.2292,-0.4928,0.2162
5300,885,790,33.502,28.241,0.079,0.0086,9.7812,-0.0629,-0.1846,-0.1899
5305,895,794,33.441,28.26,-0.1135,0.0165,9.7333,1.1691,-0.6292,0.6838
5310,917,795,33.493,28.258,0.0002,0.0457,9.8619,0.2962,-0.1271,0.6289
5315,918,789,33.547,28.333,0.0053,-0.05,9.7772,-0.5349,1.0908,0.2847
5320,934,790,33.37,28.329,0.0427,-0.01,9.7562,-1.0054,-0.0573,0.5212
5325,956,786,33.455,28.165,0.0384,0.0367,9.8207,0.321,0.5985,0.2872
5330,957,783,33.519,28.283,-0.0049,0.0309,9.7965,1.0363,0.3394,-0.1325
5335,965,784,33.462,28.279,0.0385,-0.0016,9.7877,-0.5151,0.1667,0.5144
5340,985,782,33.496,28.33,0.0179,0.0002,9.7324,-0.2127,0.8788,0.4814
5345,993,781,33.468,28.276,-0.1573,-0.0055,9.7811,-0.5071,0.4015,-0.3757
5350,1001,781,33.542,28.322,0.0094,-0.0181,9.7294,0.6737,0.5896,0.2938
5355,1018,773,33.416,28.269,0.0265,0.0508,9.7037,-0.6819,0.382,-0.2726
5360,1028,773,33.455,28.261,0.0569,-0.0094,9.7509,-0.5049,0.5273,0.078
5365,1047,773,33.43,28.277,0.0002,-0.0174,9.7622,0.4953,0.3355,-0.369
5370,1050,762,33.493,28.216,0.0082,0.0571,9.8506,0.1436,0.3115,0.7399
5375,1066,768,33.506,28.358,0.0414,-0.0689,9.8553,-0.4049,0.498,-0.0721
5380,1074,767,33.397,28.217,0.0706,-0.0307,9.8397,-0.4686,0.8626,0.094
5385,1090,766,33.383,28.384,-0.0851,-0.0138,9.8132,0.0549,-0.635,0.6077
5390,1097,761,33.486,28.292,-0.0009,-0.0897,9.8494,0.4195,-0.8566,0.0348
5395,1107,758,33.428,28.305,0.0047,0.0205,9.8667,-0.2541,0.0527,0.6881
5400,1124,751,33.451,28.248,0.0438,0.0295,9.7391,-0.3458,-0.2951,0.161
5405,1125,757,33.449,28.139,-0.0032,0.0291,9.8718,-0.3176,0.2925,0.2661
5410,1135,759,33.454,28.304,0.0006,0.0966,9.8545,-0.4109,-0.0081,-0.343
5415,1138,752,33.51,28.302,-0.0877,0.0367,9.7763,-0.463,0.3805,-0.3274
5420,1142,752,33.401,28.21,-0.0047,-0.0116,9.7969,0.3919,0.5346,0.4862
5425,1153,749,33.511,28.222,-0.0753,-0.037,9.805,-0.1902,0.2428,0.0965
5430,1162,739,33.534,28.252,-0.0336,0.0302,9.8395,-0.4609,-0.3458,0.1738
5435,1161,747,33.433,28.301,-0.0855,-0.0399,9.7469,-0.2791,0.4617,0.3673
5440,1165,747,33.523,28.231,-0.0169,-0.0717,9.9124,1.1565,-0.1603,-0.4107
5445,1184,741,33.451,28.239,0.035,0.0387,9.7693,-0.3567,-0.2278,0.5224
5450,1178,744,33.455,28.196,-0.0481,0.0451,9.7557,-0.5633,-0.6818,-0.1906
5455,1178,743,33.426,28.271,0.0551,0.0391,9.7412,-0.8802,-0.2311,0.5791
5460,1178,743,33.387,28.262,-0.0894,-0.0121,9.8252,0.3058,0.101,-0.2714
5465,1184,737,33.409,28.307,0.0066,-0.0166,9.8679,-0.1221,-0.7544,-0.4623
5470,1178,738,33.444,28.155,0.122,0.0349,9.8019,-0.3519,0.4168,0.137
5475,1196,743,33.433,28.289,0.0135,0.013,9.7141,0.0504,-0.2806,-0.6968
5480,1188,740,33.393,28.231,-0.0029,0.0153,9.7917,-0.4021,-0.3889,0.453
5485,1196,744,33.417,28.284,-0.0323,0.0975,9.8348,0.3903,-1.017,0.8179
5490,1189,737,33.41,28.255,-0.0103,-0.0234,9.801,0.0863,0.472,-1.5661
5495,1183,745,33.39,28.229,-0.0838,-0.0359,9.7505,-0.2428,0.8162,0.3036
5500,1194,748,33.407,28.254,0.0429,0.0522,9.7552,0.4379,0.0559,-0.7924
5505,1182,748,33.382,28.253,0.0123,0.0417,9.7716,-0.2078,-0.6524,0.3646
5510,1181,751,33.54,28.203,0.1334,0.101,9.8338,0.6116,0.6689,-0.2261
5515,1185,747,33.54,28.281,-0.0007,-0.0374,9.8889,0.3712,0.1913,-1.0353
5520,1178,751,33.452,28.337,-0.009,0.029,9.8564,0.2008,0.1136,-0.8309
5525,1163,756,33.508,28.389,-0.0234,0.1127,9.7617,-0.4913,-0.147,0.323
5530,1176,758,33.443,28.169,0.0037,-0.0273,9.8446,0.054,-0.0042,0.4922
5535,1162,760,33.353,28.221,0.0186,0.0111,9.7916,-0.1799,-0.1863,0.1884
5540,1165,759,33.514,28.307,-0.0771,0.0419,9.8771,0.0928,1.337,0.0008
5545,1160,756,33.539,28.345,0.0366,0.0387,9.696,0.8607,0.7223,-1.2784
5550,1157,769,33.468,28.287,-0.0009,0.01,9.7832,-0.1521,0.6444,0.5772
5555,1157,769,33.405,28.262,-0.0089,-0.0393,9.8755,-0.0663,-0.5642,0.0463
5560,1140,769,33.382,28.243,0.0087,0.0119,9.8397,-1.029,-1.5152,-1.0319
5565,1154,773,33.451,28.293,-0.0274,0.007,9.8195,-0.3421,-0.7407,0.4126
5570,1145,770,33.433,28.224,-0.03,0.0545,9.7968,0.1853,0.735,-0.2448
5575,1140,780,33.399,28.295,-0.0143,-0.1274,9.8988,0.6821,-1.1021,0.1929
5580,1131,773,33.478,28.289,0.0486,-0.0008,9.7665,-0.3017,-0.7055,0.1606
5585,1150,786,33.482,28.303,0.1136,-0.0666,9.8949,0.4776,0.4878,-0.1873
5590,1125,787,33.537,28.334,-0.0701,-0.004,9.8447,-0.3876,0.3054,0.6218
5595,1130,788,33.386,28.275,-0.0554,-0.085,9.8859,0.4076,-0.0702,-0.367
5600,1130,793,33.399,28.178,-0.0005,0.0521,9.874,0.1293,0.2646,0.5644
5605,1127,795,33.408,28.262,-0.0534,-0.1204,9.7569,0.1995,-0.2141,-0.0118
5610,1121,802,33.561,28.221,0.0754,0.0148,9.7691,-0.3182,-1.0775,-0.2055
5615,1118,802,33.381,28.194,0.0001,-0.0499,9.7865,-0.3922,-0.0993,0.3905
5620,1113,807,33.483,28.256,-0.0052,0.0781,9.8209,0.1093,-0.203,-0.1211
5625,1115,804,33.541,28.188,-0.0226,0.0454,9.8366,-0.5465,1.3055,0.0014
5630,1110,805,33.485,28.193,-0.0495,-0.0299,9.8485,-0.3569,0.4313,0.023
5635,1109,809,33.437,28.166,-0.0586,0.0246,9.7864,-1.3524,-0.0728,-0.4391
5640,1100,814,33.498,28.268,0.026,-0.0752,9.831,-0.6322,-0.0139,0.1592
5645,1103,814,33.458,28.229,-0.0414,-0.0474,9.9235,0.5988,0.039,0.7847
5650,1107,813,33.406,28.227,0.0645,0.0114,9.7853,0.2285,-0.4018,0.5254
5655,1100,820,33.469,28.199,0.0385,-0.011,9.8048,-0.1607,0.6423,-0.4426
5660,1097,825,33.402,28.327,-0.0205,0.0834,9.8253,0.332,0.5176,0.1753
5665,1091,823,33.422,28.197,0.1022,0.0076,9.7388,0.6077,0.5716,-0.0279
5670,1084,827,33.532,28.294,-0.0234,0.061,9.7256,0.169,0.3253,0.1515
5675,1091,826,33.454,28.311,0.027,-0.0264,9.7492,0.1318,-0.4358,0.5586
5680,1090,832,33.441,28.295,-0.0396,0.0568,9.8183,-0.7219,-0.6353,-0.4612
5685,1081,829,33.452,28.237,-0.0049,-0.0199,9.8119,0.7389,-0.2959,0.1311
5690,1082,830,33.503,28.197,0.0436,-0.0241,9.7257,0.0971,-0.4978,1.1819
5695,1087,833,33.472,28.282,-0.0626,0.0307,9.7919,0.2826,0.2501,-1.1466
5700,1066,837,33.389,28.281,-0.0427,-0.0335,9.7492,-0.1061,0.0485,-0.309
5705,1068,836,33.375,28.294,-0.0211,0.0245,9.8353,0.1578,0.956,-0.2008
5710,1066,837,33.432,28.224,0.0279,0.0819,9.8087,-0.8051,0.4578,-0.2979
5715,1082,838,33.499,28.315,-0.0528,0.0405,9.9003,0.1344,0.3564,-0.9207
5720,1067,838,33.444,28.252,-0.0776,0.1206,9.7821,-0.5086,0.0247,-0.0652
5725,1063,837,33.47,28.283,0.0197,0.0532,9.8507,0.8339,-0.3211,0.4712
5730,1060,838,33.453,28.25,0.0767,-0.0259,9.7522,-0.1154,0.5802,-0.7471
5735,1047,841,33.424,28.23,0.1364,-0.0512,9.8093,-0.8014,0.477,-0.0092
5740,1050,844,33.431,28.357,-0.0068,0.0512,9.7563,0.9138,-0.0369,-0.2545
5745,1044,840,33.411,28.204,0.0015,0.0116,9.821,0.1429,-0.0338,-0.2109
5750,1036,839,33.457,28.312,-0.0343,0.0917,9.7815,-1.0241,0.2076,-0.2338
5755,1034,837,33.444,28.201,0.0648,-0.0191,9.8246,-0.0609,0.3869,-0.075
5760,1025,839,33.482,28.278,0.0778,0.0315,9.8497,0.3525,0.7068,0.3743
5765,1022,840,33.45,28.261,-0.0487,-0.0457,9.7939,-0.1131,0.2071,0.2496
5770,1009,843,33.358,28.245,-0.0986,-0.0431,9.763,-0.3733,0.8869,-0.5532
5775,1018,839,33.389,28.301,0.065,0.0007,9.7934,0.2881,-0.0623,-0.5821
5780,1000,840,33.422,28.18,0.1206,0.0623,9.7523,-0.2884,0.8504,0.0025
5785,996,843,33.397,28.278,-0.0207,0.0562,9.8512,-0.4607,0.1952,0.6691
5790,996,840,33.399,28.21,0.0111,-0.0522,9.8033,0.3685,0.0352,-0.478
5795,983,836,33.407,28.366,0.024,0.0249,9.8521,-0.4204,1.5403,0.4447
5800,971,834,33.402,28.241,0.0071,-0.0233,9.8115,-0.1323,-0.5297,-0.2441
5805,971,837,33.5,28.318,0.1008,-0.1409,9.849,0.6783,-0.3702,0.3053
5810,956,838,33.462,28.301,-0.0213,0.0494,9.8835,0.1171,-0.2865,-0.3505
5815,946,835,33.536,28.326,0.0503,0.0474,9.856,0.1025,0.8452,-0.5772
5820,939,830,33.432,28.284,-0.0281,-0.0048,9.8275,0.957,-0.0449,0.263
5825,933,832,33.354,28.248,0.1073,-0.042,9.7956,-0.66,0.1071,0.0143
5830,921,831,33.404,28.265,0.0085,-0.059,9.8255,-0.0921,0.0942,0.0051
5835,919,831,33.492,28.266,0.0362,-0.1413,9.7943,-0.2637,-0.0329,0.8737
5840,912,835,33.518,28.275,0.0288,-0.0023,9.803,-0.4485,0.1561,1.2253
5845,898,830,33.559,28.274,0.0259,0.0438,9.7269,0.6388,0.7321,0.2654
5850,895,836,33.537,28.261,-0.0009,0.0187,9.8815,-0.4215,-0.5215,-0.7603
5855,879,827,33.369,28.361,0.0197,0.0636,9.761,-0.2017,-0.3189,0.1676
5860,860,830,33.384,28.237,-0.0033,-0.0702,9.8621,-0.2995,-0.4646,-0.4288
5865,858,829,33.473,28.17,-0.0803,0.025,9.7408,-0.0518,0.2039,-0.6747
5870,848,826,33.436,28.288,0.0152,0.0229,9.6975,-1.2962,-0.2013,-0.3215
5875,844,831,33.343,28.272,-0.0293,0.0164,9.8106,0.7668,-0.0336,0.7709
5880,837,829,33.424,28.222,0.0445,-0.0687,9.8183,-0.1294,-0.0178,0.093
5885,829,823,33.401,28.337,0.0512,-0.1136,9.9015,0.3711,-0.6033,-0.9266
5890,819,825,33.461,28.247,-0.0001,0.0434,9.8376,-0.5057,1.0081,-0.2118
5895,815,820,33.418,28.273,0.0147,0.0645,9.8145,-0.1931,0.3881,0.4566
5900,803,821,33.521,28.224,0.0091,0.0081,9.79,0.096,-0.2761,-0.0383
5905,787,816,33.514,28.259,-0.0359,-0.0026,9.874,0.2977,0.4023,-0.2652
5910,788,824,33.431,28.215,-0.0388,0.1176,9.8246,0.0653,-0.3227,0.2859
5915,780,826,33.514,28.296,0.0355,0.038,9.757,-0.0439,0.2507,-0.303
5920,775,818,33.503,28.323,-0.0071,0.0682,9.8464,0.8827,0.1939,0.3073
5925,767,827,33.548,28.297,0.0082,0.0209,9.7608,-0.5015,-1.3029,-0.3187
5930,763,815,33.559,28.25,-0.0457,0.0892,9.8264,-0.5679,-0.2824,0.0244
5935,765,818,33.398,28.203,-0.0257,0.0809,9.7952,-0.6722,0.1046,-0.34
5940,752,815,33.381,28.286,0.02,0.0744,9.8066,0.3807,-1.1609,-0.2806
5945,746,824,33.435,28.325,-0.0099,-0.082,9.821,-0.2684,-0.1704,0.7326
5950,758,815,33.452,28.308,0.0878,-0.0138,9.7637,0.0376,0.646,-0.2827
5955,749,818,33.424,28.288,-0.0483,0.0675,9.7519,-0.1659,-0.2605,1.1135
5960,743,818,33.519,28.204,0.0837,-0.0772,9.7966,0.6461,0.5127,-0.8063
5965,747,816,33.38,28.245,0.0222,0.0612,9.8809,0.4712,-0.5079,-0.1182
5970,752,820,33.413,28.301,0.0492,-0.0039,9.8233,0.2762,0.5695,0.3694
5975,751,816,33.364,28.193,0.049,0.005,9.8493,-0.5476,0.3931,-0.3944
5980,749,815,33.451,28.284,-0.0039,0.0086,9.7112,0.1523,0.7945,0.562
5985,755,813,33.451,28.291,-0.0166,0.0331,9.7895,-0.2132,0.5094,-0.4501
5990,769,816,33.484,28.315,0.0763,-0.0317,9.7659,0.0233,-0.4856,0.1842
5995,762,815,33.443,28.231,0.0325,0.009,9.8662,0.5239,-0.2516,-0.3956
6000,760,814,33.447,28.279,-0.0626,-0.0169,9.8438,-0.8908,-0.3092,0.0332
6005,770,812,33.466,28.215,0.0714,-0.0986,9.8509,0.2291,0.0556,-0.2734
6010,779,808,33.356,28.236,-0.0192,-0.0505,9.8368,0.0523,0.258,-0.1627
6015,786,816,33.369,28.231,-0.0129,-0.0416,9.9119,-0.312,-0.6211,1.6146
6020,796,808,33.413,28.367,-0.0218,-0.0768,9.9151,0.0104,-0.3898,0.3007
6025,793,809,33.526,28.291,0.047,-0.0432,9.8533,-0.2741,-0.1847,-0.0879
6030,807,808,33.437,28.261,-0.0084,0.077,9.8783,0.1943,0.1933,-0.1282
6035,815,811,33.417,28.316,0.0167,0.0075,9.7497,0.0744,-0.0921,-0.1513
6040,815,804,33.445,28.263,0.0406,-0.0944,9.7776,0.3769,0.1865,-1.1781
6045,841,799,33.443,28.225,-0.0137,0.0197,9.8248,0.2939,0.7153,0.1768
6050,842,803,33.501,28.167,-0.0319,-0.0456,9.8133,-0.0066,-0.0529,0.1484
6055,870,802,33.326,28.271,0.0229,0.0034,9.8199,0.6243,-0.6218,0.3471
6060,869,802,33.43,28.35,-0.0181,0.0047,9.8482,-0.5705,0.2438,-0.4592
6065,878,802,33.428,28.306,-0.0957,-0.0176,9.8902,0.4395,0.3132,-0.2922
6070,895,793,33.386,28.337,-0.1003,-0.0239,9.8482,-0.5618,-0.116,-0.1483
6075,908,790,33.48,28.306,0.0143,-0.0268,9.801,0.178,-0.1837,0.2966
6080,910,789,33.404,28.276,0.0116,0.018,9.7897,0.5307,0.0079,0.2539
6085,937,791,33.535,28.298,-0.0418,-0.0575,9.8625,-0.4344,-0.1941,0.2549
6090,944,782,33.437,28.276,-0.038,0.0186,9.8036,-0.2478,-0.464,-0.4301
6095,953,782,33.377,28.239,-0.0903,0.0748,9.7857,-0.1112,0.3736,-0.3035
6100,962,782,33.466,28.221,-0.0744,0.0925,9.8903,-0.0886,-0.0541,-0.3592
6105,979,779,33.39,28.255,0.024,0.0259,9.8803,-1.1282,1.0458,-0.1574
6110,992,778,33.473,28.269,0.0648,-0.0,9.8166,0.1697,-0.7536,0.4876
6115,1005,775,33.481,28.092,-0.0563,0.0364,9.7738,0.2521,0.1483,-0.0688
6120,1010,769,33.438,28.245,-0.0542,0.0456,9.8037,0.9952,-0.2267,0.9932
6125,1023,768,33.522,28.207,-0.0043,0.0351,9.8798,0.0845,0.3468,-0.2431
6130,1034,772,33.531,28.219,-0.0628,0.0082,9.9397,-0.0978,0.4067,0.8799
6135,1046,767,33.528,28.166,-0.008,-0.0079,9.7656,0.5229,-0.1941,-0.1259
6140,1065,763,33.397,28.27,-0.066,0.0221,9.7778,0.6077,0.5244,-0.2999
6145,1067,762,33.504,28.204,-0.1151,-0.0231,9.8414,-0.3744,1.0144,0.9298
6150,1097,765,33.428,28.336,0.0382,-0.0132,9.8301,-0.9233,-0.734,0.1429
6155,1099,758,33.487,28.302,0.0221,-0.0414,9.7682,-1.3456,-0.4677,0.2565
6160,1103,759,33.473,28.329,-0.0952,0.013,9.8083,-1.1567,-0.0627,0.0137
6165,1115,747,33.545,28.299,0.0566,0.0691,9.8394,0.1684,-0.8009,0.2079
6170,1125,755,33.428,28.192,-0.0315,-0.0435,9.882,-0.6249,1.2636,-0.7357
6175,1136,753,33.445,28.241,0.0166,-0.1257,9.8868,0.1391,0.6359,-0.1372
6180,1138,757,33.539,28.343,0.0607,-0.0394,9.7681,1.1031,0.7902,0.3604
6185,1145,753,33.47,28.149,-0.0097,0.0636,9.9082,-0.6929,-0.1191,-0.0304
6190,1149,751,33.393,28.267,-0.0744,0.0329,9.7474,0.253,-0.1547,0.4916
6195,1160,746,33.398,28.319,-0.0419,-0.0129,9.7993,0.4418,-0.0404,0.1517
6200,1157,745,33.537,28.327,0.1273,-0.0272,9.7937,-0.0811,0.4998,-0.0235
6205,1171,748,33.39,28.279,-0.0502,-0.0227,9.8062,-0.2276,0.3147,0.4382
6210,1176,740,33.474,28.36,0.0481,-0.0351,9.8638,0.5108,-0.5367,-0.2503
6215,1181,748,33.541,28.304,0.0622,-0.0165,9.866,0.0475,-0.5354,-0.0064
6220,1171,743,33.472,28.273,0.0723,0.0001,9.8445,0.5058,-1.0884,-0.4889
6225,1178,744,33.481,28.29,-0.1433,0.1063,9.7703,0.3357,0.837,0.8835
6230,1186,744,33.425,28.257,-0.0069,-0.0143,9.867,-0.3676,0.3256,-0.6112
6235,1190,743,33.454,28.319,-0.075,-0.0344,9.8253,0.0001,0.1573,1.1142
6240,1191,746,33.438,28.225,-0.0735,0.0398,9.938,-0.049,0.3367,0.3548
6245,1189,738,33.424,28.228,-0.0228,-0.0309,9.8055,-0.5582,0.2802,0.65
6250,1187,738,33.415,28.266,0.0242,0.002,9.8242,0.3451,-0.0765,0.5364
6255,1180,738,33.392,28.176,0.0165,-0.0021,9.7776,-0.3282,-0.4486,-0.5185
6260,1182,741,33.396,28.213,0.0565,-0.0533,9.7219,-0.7051,-0.1796,-1.0068
6265,1188,746,33.462,28.348,0.0053,0.0659,9.7804,0.4586,-0.8161,-0.7137
6270,1196,745,33.509,28.255,-0.0797,-0.0146,9.7796,-0.2858,0.0739,0.4264
6275,1179,750,33.521,28.303,-0.0519,-0.0282,9.8479,0.2905,-0.3473,1.0204
6280,1182,750,33.463,28.289,-0.0582,0.0922,9.7805,0.2774,0.2254,0.7612
6285,1180,753,33.488,28.32,0.0252,-0.0266,9.7343,-0.3429,0.0921,0.3337
6290,1177,756,33.457,28.23,-0.0322,0.0213,9.7693,-0.1228,-0.6135,0.5723
6295,1175,758,33.391,28.234,0.0821,0.0504,9.8355,-0.1156,-0.2298,-0.6213
6300,1166,755,33.585,28.353,0.028,-0.0188,9.7785,0.0076,0.2121,0.1249
6305,1167,757,33.386,28.375,-0.0175,0.0461,9.8098,-0.1307,-0.8887,0.2663
6310,1159,762,33.462,28.309,0.0076,0.0439,9.7252,0.5138,-0.4306,-0.8994
6315,1157,766,33.433,28.333,-0.012,-0.0133,9.7537,-0.3134,-0.6316,0.501
6320,1154,765,33.433,28.233,-0.028,-0.0102,9.8965,0.895,0.4971,1.4378
6325,1154,764,33.509,28.271,0.0805,-0.0681,9.8209,-0.5186,0.6486,0.4672
6330,1154,771,33.506,28.229,-0.004,0.0641,9.823,0.1678,0.1438,0.9334
6335,1146,774,33.392,28.26,-0.1005,0.06,9.8011,-0.2468,-0.2381,-0.1146
6340,1141,774,33.539,28.27,0.0127,0.0578,9.7671,-0.5285,0.4761,0.699
6345,1144,775,33.433,28.282,-0.0432,-0.0614,9.761,-0.3428,-0.0378,-0.4605
6350,1142,781,33.455,28.324,-0.0401,-0.0335,9.8149,-0.2698,-0.2234,0.043
6355,1132,784,33.485,28.235,-0.1431,-0.0364,9.8461,0.2866,-0.9357,-0.8047
6360,1131,785,33.49,28.305,0.0654,0.0203,9.805,0.2353,0.0413,-0.0274
6365,1128,790,33.519,28.255,0.022,-0.0259,9.8357,-0.4636,-0.047,1.2424
6370,1119,791,33.505,28.296,0.0163,-0.0482,9.7978,-0.287,-1.1434,-0.3356
6375,1119,795,33.423,28.219,0.0977,-0.0229,9.7889,-0.0138,-0.6465,0.1979
6380,1118,799,33.411,28.255,-0.0272,-0.0202,9.7687,-1.1402,-0.0749,0.6043
6385,1111,803,33.43,28.325,0.0234,-0.0506,9.7766,0.3689,-0.0691,0.1604
6390,1114,797,33.413,28.236,-0.0485,-0.0105,9.8553,-0.0463,0.4838,0.5179
6395,1114,808,33.464,28.186,-0.0721,-0.0354,9.8323,0.3086,-1.2642,-0.1932
6400,1107,803,33.461,28.209,-0.012,-0.0292,9.8423,-0.1321,-0.9606,0.6308
6405,1105,815,33.368,28.253,-0.0928,0.0465,9.7989,0.5547,-0.3788,-0.204
6410,1090,814,33.427,28.232,-0.0167,0.0166,9.812,-0.6953,0.1366,-0.2576
6415,1095,813,33.451,28.219,0.0273,-0.0322,9.8379,-0.5416,-0.4968,-0.0788
6420,1102,825,33.408,28.193,-0.0008,0.0272,9.7424,-0.0939,-0.7488,-0.1803
6425,1105,817,33.37,28.351,-0.0202,-0.0075,9.8266,0.5337,-0.5086,0.3082
6430,1097,821,33.464,28.271,-0.0187,-0.0026,9.8517,-0.6213,0.3252,1.1152
6435,1091,824,33.425,28.217,0.0015,0.0491,9.7914,0.5245,0.561,-0.4006
6440,1090,826,33.446,28.234,-0.0417,-0.0247,9.8406,-0.1115,-0.7447,0.4184
6445,1080,828,33.47,28.229,0.0047,-0.0255,9.829,0.2312,-0.6359,0.5061
6450,1083,828,33.453,28.322,0.059,0.051,9.7467,-0.7181,-0.3687,-1.1254
6455,1083,831,33.5,28.201,0.0197,-0.0086,9.8382,-0.0555,-0.3702,-0.7911
6460,1073,836,33.513,28.331,0.0263,0.0475,9.8209,-0.1347,0.3035,-0.0149
6465,1069,836,33.464,28.166,-0.0178,0.0148,9.7782,-0.4115,0.5588,0.0899
6470,1066,843,33.442,28.246,0.1241,0.0384,9.754,-0.0079,0.2027,-0.209
6475,1068,835,33.441,28.224,-0.027,0.0004,9.8594,-1.1802,0.53,-0.1184
6480,1067,834,33.433,28.258,-0.0223,0.0473,9.8422,-0.2609,0.3934,0.8616
6485,1066,846,33.495,28.222,0.0942,0.0268,9.8395,0.7488,-0.462,0.3584
6490,1059,840,33.574,28.281,0.0206,0.0085,9.7305,0.1201,-0.1945,0.5006
6495,1057,838,33.391,28.394,0.0402,0.012,9.8206,-0.5441,0.7237,0.4962
6500,1048,842,33.424,28.294,-0.0236,0.1349,9.8068,-0.4606,-0.2646,0.0239
6505,1048,843,33.498,28.359,-0.0138,-0.0382,9.7817,0.845,-0.1668,1.0973
6510,1047,839,33.351,28.326,-0.0238,-0.0655,9.8111,-0.0909,-0.3289,-0.1201
6515,1039,840,33.434,28.22,0.008,0.0203,9.9385,-0.929,0.3718,-0.3166
6520,1043,844,33.527,28.225,-0.0946,-0.0872,9.7895,0.3991,-0.2471,0.4462
6525,1031,844,33.409,28.274,-0.0734,-0.1138,9.8507,0.0423,-0.1773,-0.2364
6530,1024,840,33.413,28.306,-0.0024,0.0992,9.7665,-0.2231,-0.5563,-0.2164
6535,1015,848,33.531,28.303,-0.0242,-0.1729,9.7325,0.6319,-0.4051,0.3572
6540,1012,840,33.466,28.159,-0.0628,0.0736,9.829,0.6656,-1.144,-0.2179
6545,1007,837,33.426,28.325,-0.0715,0.0028,9.7463,-0.481,0.2487,-0.5328
6550,1006,837,33.407,28.302,-0.0404,0.0242,9.8888,0.506,0.103,-1.2571
6555,993,839,33.401,28.25,0.0547,0.0276,9.8244,0.115,-0.1769,-0.629
6560,977,838,33.446,28.236,0.1518,0.0713,9.9179,0.2291,-0.0577,-0.2036
6565,979,842,33.555,28.249,0.021,-0.0691,9.7994,0.0218,-0.0895,0.5344
6570,971,837,33.432,28.302,-0.0439,-0.0012,9.8821,-0.2666,0.4702,-0.2215
6575,960,839,33.446,28.237,-0.0371,-0.0628,9.7415,-0.2257,-0.2738,-0.9321
6580,950,837,33.473,28.217,0.0033,-0.0119,9.8369,0.6809,-0.7795,-0.5616
6585,953,837,33.355,28.21,-0.0332,0.063,9.7667,1.219,-0.1284,0.1425
6590,934,836,33.517,28.211,0.0008,-0.0717,9.7596,0.3521,0.0834,-0.3633
6595,924,837,33.493,28.268,-0.0242,0.0349,9.8483,-0.4114,1.3108,0.351
6600,923,834,33.391,28.21,-0.0324,-0.0147,9.7637,0.2275,0.4294,0.1302
6605,904,832,33.431,28.228,-0.0342,0.0292,9.7697,0.2308,0.6776,-0.0217
6610,899,832,33.451,28.249,0.0094,0.0393,9.8253,0.3696,-0.1314,0.929
6615,891,831,33.481,28.208,0.0521,-0.0775,9.8238,-0.1661,-0.0659,0.0673
6620,878,833,33.422,28.206,0.0633,0.0491,9.8686,-0.1194,0.2721,-0.795
6625,869,829,33.455,28.266,-0.0337,0.063,9.8673,0.294,0.2433,-0.3988
6630,872,828,33.368,28.188,0.0098,-0.0223,9.8444,0.0727,-0.6932,-0.1488
6635,852,825,33.453,28.276,0.0089,0.049,9.8197,0.2392,-0.1346,-0.1727
6640,852,820,33.436,28.177,0.0443,-0.0313,9.7625,-0.7695,0.2822,0.3237
6645,835,828,33.456,28.363,0.0343,0.0443,9.9232,-0.0749,0.3392,-0.1669
6650,829,823,33.457,28.173,0.0582,0.0007,9.7807,-0.133,-0.926,-0.2488
6655,815,827,33.463,28.201,-0.0115,0.0072,9.7887,-1.0888,0.5908,-0.1657
6660,804,827,33.461,28.254,-0.0258,-0.055,9.8175,-1.6747,-0.1566,-0.1967
6665,803,823,33.446,28.193,0.0171,0.0263,9.8389,-0.5206,-0.2595,-1.0562
6670,804,825,33.421,28.191,-0.0428,-0.0279,9.8342,0.4173,-0.0145,0.1763
6675,794,825,33.481,28.325,0.0167,0.0151,9.8416,0.5553,-0.1056,0.1089
6680,785,819,33.532,28.35,0.0366,0.0448,9.8591,-0.0512,0.2102,-0.7238
6685,769,821,33.418,28.291,0.0683,-0.0095,9.8479,-0.3902,-0.0556,0.2823
6690,775,820,33.38,28.217,-0.051,0.0295,9.8213,-0.2849,-0.2173,0.7102
6695,773,825,33.469,28.269,0.0514,0.0144,9.854,-0.1638,-0.1006,0.5714
6700,756,823,33.492,28.276,-0.0189,0.0251,9.8074,0.1253,0.675,0.1109
6705,758,823,33.48,28.341,-0.0268,0.0038,9.8551,0.2013,-0.3932,0.1204
6710,756,821,33.445,28.257,-0.0501,-0.0171,9.7957,-0.4927,0.9996,-0.1519
6715,756,813,33.503,28.259,0.0032,0.0603,9.8139,0.5228,0.8126,-0.0258
6720,746,817,33.431,28.277,0.0599,-0.0719,9.779,0.6425,0.0928,-0.4995
6725,752,814,33.516,28.284,-0.0506,0.0472,9.8191,-0.5203,-0.88,0.2304
6730,737,814,33.423,28.266,-0.0754,-0.0626,9.8637,-0.4697,0.7142,-0.0192
6735,746,814,33.513,28.294,-0.0394,0.0058,9.8599,1.0905,-0.4658,-0.2266
6740,754,816,33.456,28.297,0.002,0.0044,9.8207,-0.3952,0.8419,0.646
6745,756,820,33.439,28.217,-0.0062,0.0421,9.7987,-0.4414,0.0504,1.049
6750,748,819,33.346,28.227,-0.0168,0.0056,9.8727,0.565,-0.4005,-0.2337
6755,756,813,33.501,28.262,0.0463,0.0812,9.7711,-0.5939,-0.2639,0.214
6760,769,812,33.438,28.286,-0.0639,0.0138,9.8673,-0.091,-0.4157,0.2919
6765,771,810,33.453,28.248,-0.1114,0.0653,9.7693,-1.05,0.443,-0.4126
6770,766,812,33.429,28.268,-0.0264,0.04,9.7848,-0.3524,0.1729,-0.5082
6775,773,815,33.472,28.372,0.1049,-0.0929,9.7966,-0.1556,0.0652,-0.6886
6780,780,809,33.503,28.287,-0.0259,-0.0121,9.7788,-0.4291,0.62,0.2608
6785,794,808,33.522,28.186,-0.0575,-0.0186,9.8166,0.6525,0.5494,0.5924
6790,793,810,33.507,28.228,-0.084,-0.0584,9.8186,0.0445,1.3148,0.52
6795,812,803,33.461,28.235,-0.029,0.0135,9.7454,-0.1061,-1.0183,-0.5652
6800,811,810,33.426,28.238,0.0204,0.0023,9.8482,0.8287,0.2896,-0.028
6805,828,802,33.57,28.326,-0.0566,-0.0098,9.8686,-0.4319,-0.3589,-0.1425
6810,839,805,33.449,28.263,-0.0573,0.0531,9.8223,-0.5742,-0.2139,-0.1635
6815,851,799,33.437,28.181,0.0088,0.0037,9.8591,0.7373,-0.4614,-0.2592
6820,854,796,33.5,28.306,-0.0294,0.0396,9.7386,-0.2173,-0.0775,-0.0075
6825,870,798,33.462,28.276,-0.0206,0.0209,9.8474,0.0704,0.2028,0.0191
6830,878,795,33.416,28.194,0.1034,0.0279,9.8439,1.0565,0.8795,0.6126
6835,883,795,33.471,28.255,0.0419,-0.1156,9.7892,0.4738,-0.7943,0.593
6840,895,795,33.421,28.229,0.1051,-0.0424,9.7523,-0.2733,0.3859,-0.4891
6845,907,789,33.473,28.319,-0.02,0.047,9.8377,-0.481,0.2443,-0.0564
6850,926,788,33.424,28.232,-0.0627,0.0273,9.8248,-0.5572,0.0375,-0.419
6855,935,790,33.43,28.24,0.0022,0.0336,9.9349,0.5652,-0.0826,0.2616
6860,950,784,33.508,28.315,0.0263,0.0757,9.8679,0.3563,1.1199,-0.5946
6865,965,777,33.438,28.337,-0.0217,0.001,9.802,-0.2582,-0.2077,0.0674
6870,967,783,33.493,28.192,-0.1029,-0.062,9.7595,0.4959,-0.4687,-0.2839
6875,996,777,33.47,28.277,-0.0174,0.0452,9.8773,-0.0726,-0.0415,-0.9518
6880,996,781,33.521,28.24,0.0093,0.0204,9.8213,-1.261,0.0629,0.1261
6885,1017,773,33.538,28.263,0.0217,-0.0462,9.9247,0.5292,-0.7348,0.0219
6890,1024,770,33.549,28.293,-0.0497,-0.0369,9.8076,-0.6826,0.1347,-0.2432
6895,1038,770,33.499,28.246,0.0868,0.0093,9.7654,0.2216,-0.5577,0.9664
6900,1055,770,33.475,28.305,-0.0371,0.0382,9.7173,-0.2806,0.8864,1.2188
6905,1053,770,33.475,28.258,-0.0374,-0.0962,9.7856,-0.593,0.1453,1.2848
6910,1078,764,33.463,28.262,0.0332,0.0457,9.7977,-0.4325,0.0392,0.5002
6915,1086,763,33.412,28.184,-0.0245,0.0224,9.7742,0.2079,0.1435,-0.1266
6920,1094,766,33.459,28.209,0.0699,0.0197,9.8345,-0.5755,0.822,-0.6127
6925,1095,759,33.516,28.26,0.085,0.0403,9.8285,-1.1999,0.3654,0.8492
6930,1108,757,33.535,28.269,-0.0091,0.0397,9.8174,-0.1321,-0.4699,-0.6467
6935,1117,756,33.503,28.342,-0.0642,0.0275,9.8248,-0.5491,-0.642,-0.1279
6940,1128,751,33.489,28.254,-0.026,-0.0245,9.868,-0.1623,0.5886,0.5111
6945,1135,754,33.361,28.302,0.021,0.0652,9.7874,0.5138,-0.3339,0.4534
6950,1152,749,33.42,28.218,-0.0511,-0.0274,9.8064,-0.034,-0.1198,0.579
6955,1148,752,33.437,28.257,-0.0199,0.0137,9.7238,-0.2138,0.5994,0.2121
6960,1153,749,33.472,28.227,0.0142,0.0342,9.8347,-0.5052,0.2469,-0.0041
6965,1158,742,33.441,28.204,0.0179,0.0177,9.868,-0.1503,-0.2208,0.0061
6970,1173,745,33.489,28.274,0.0454,-0.1188,9.7129,-0.8795,-0.1606,0.9848
6975,1170,747,33.423,28.228,-0.0358,0.0179,9.686,0.7855,0.4924,-0.4094
6980,1180,744,33.467,28.295,-0.0087,0.082,9.8329,0.3045,-0.028,0.1198
6985,1190,745,33.448,28.376,-0.0002,0.0626,9.8109,0.1919,0.199,0.872
6990,1178,746,33.423,28.242,0.0389,0.0729,9.834,0.629,-0.6206,-0.1369
6995,1181,740,33.467,28.314,0.0095,-0.0134,9.8166,-0.1348,0.2559,0.0536
7000,1176,749,33.427,28.269,-0.0154,0.0856,9.7364,-0.208,0.0443,0.1849
7005,1185,745,33.469,28.213,-0.001,-0.0564,9.8513,0.1182,-0.5641,-0.7773
7010,1193,743,33.436,28.26,-0.1351,0.0564,9.8488,-0.3725,-0.0719,0.5763
7015,1196,748,33.415,28.251,-0.0106,-0.0291,9.7661,-0.1875,-0.1181,0.1962
7020,1195,743,33.447,28.271,-0.0448,-0.0338,9.7075,0.2123,0.1752,0.168
7025,1196,747,33.417,28.331,-0.056,-0.0387,9.8053,-0.3431,-0.2595,-0.5092
7030,1180,750,33.44,28.203,0.1137,-0.0278,9.8266,0.4341,-0.0942,-0.8658
7035,1185,752,33.463,28.178,-0.0246,0.0383,9.8034,0.2239,0.547,0.4692
7040,1170,751,33.476,28.279,-0.0767,-0.0236,9.6667,-0.6681,-0.4782,-0.4164
7045,1171,747,33.547,28.266,0.0178,-0.0278,9.8589,0.2409,0.589,-0.4778
7050,1177,756,33.54,28.307,0.0512,-0.0672,9.832,-0.428,0.5081,-0.2815
7055,1173,749,33.412,28.208,-0.0218,0.0174,9.8217,0.8437,-0.1707,-0.888
7060,1180,757,33.544,28.153,-0.0202,-0.0032,9.8575,-0.5682,-0.4883,0.4212
7065,1175,751,33.555,28.273,0.0673,-0.0128,9.8058,-0.1275,-0.2759,-0.2963
7070,1163,757,33.453,28.181,-0.0494,-0.0488,9.7536,-0.5258,-0.4397,1.0291
7075,1171,762,33.541,28.295,-0.0923,-0.0261,9.8273,-0.2615,-0.1826,0.9698
7080,1152,764,33.43,28.209,0.0822,0.0314,9.7511,-0.155,-0.0329,-0.1998
7085,1157,762,33.403,28.385,0.019,-0.0613,9.758,-0.1793,-1.1554,-0.6731
7090,1152,765,33.519,28.285,-0.056,-0.0296,9.7641,0.3276,-0.4814,-1.2911
7095,1148,771,33.562,28.217,0.1114,-0.0076,9.7521,0.1309,-0.3284,-0.2268
7100,1150,776,33.469,28.308,0.0259,0.0389,9.7387,0.0324,-0.1289,0.3138
7105,1139,777,33.452,28.301,-0.0314,-0.0183,9.8035,-0.6767,0.3409,-0.0473
7110,1140,772,33.437,28.322,-0.0669,0.0004,9.7716,-0.0238,0.2603,0.1368
7115,1135,780,33.53,28.315,-0.0221,-0.0096,9.8075,0.4459,-0.2912,-0.5823
7120,1139,783,33.535,28.193,0.0166,0.0362,9.7469,0.6343,0.7497,0.109
7125,1131,790,33.432,28.297,-0.001,0.0055,9.7849,-0.2333,-0.3775,-0.3093
7130,1132,790,33.4,28.188,-0.0123,0.0032,9.8809,0.2298,-0.1122,-0.7379
7135,1129,791,33.51,28.318,-0.1106,0.0646,9.8113,-0.0888,-0.3043,0.8292
7140,1117,793,33.43,28.352,-0.0481,-0.0835,9.8039,-0.4185,0.6163,-0.5554
7145,1120,802,33.468,28.236,-0.0782,-0.0372,9.7813,-0.224,0.1496,-0.5922
7150,1114,801,33.462,28.323,0.0738,-0.0319,9.8192,0.2382,-0.9266,-0.8454
7155,1113,801,33.39,28.282,0.0713,0.0544,9.8126,0.1864,-0.0748,-0.6875
7160,1104,810,33.458,28.253,-0.0698,0.0491,9.8566,0.4804,-0.3401,-0.5129
7165,1110,799,33.463,28.278,-0.0053,0.0326,9.7559,0.2885,0.2294,0.2455
7170,1099,812,33.446,28.262,-0.1191,-0.066,9.8583,-0.0089,0.4618,0.413
7175,1097,812,33.477,28.233,0.0673,0.0555,9.8213,-0.1322,-0.5168,0.1429
7180,1105,822,33.485,28.321,-0.0038,0.0039,9.777,-0.3068,0.6941,-0.4975
7185,1100,818,33.505,28.343,-0.0376,-0.0155,9.8687,0.4296,0.4482,-0.1549
7190,1101,816,33.52,28.32,-0.0388,-0.0071,9.8433,-0.0601,-0.5664,0.2619
7195,1094,828,33.382,28.327,0.0297,-0.014,9.8254,-0.1756,-0.0617,0.0088
7200,1092,835,33.398,28.214,0.0068,-0.0324,9.7819,-0.2031,-0.5252,0.3855
7205,1089,822,33.445,28.27,-0.0404,-0.0058,9.8327,-0.2986,-0.4814,0.2517
7210,1079,829,33.492,28.27,-0.1439,-0.0268,9.7397,-0.3336,-0.2059,0.6097
7215,1090,833,33.484,28.268,0.0916,-0.0096,9.8008,0.1145,0.3906,0.7809
7220,1089,828,33.439,28.259,-0.0733,-0.0384,9.7914,-0.6358,0.4098,-0.2074
7225,1069,833,33.453,28.236,-0.0296,0.0523,9.8189,-0.0167,0.0934,-0.3824
7230,1080,828,33.372,28.255,0.0114,-0.0216,9.9111,1.1999,-0.3031,0.7425
7235,1066,836,33.479,28.2,-0.0023,0.1227,9.8438,-0.4958,0.0189,-0.2425
7240,1070,836,33.505,28.245,0.047,0.0163,9.7914,-0.3715,0.2636,-0.0621
7245,1073,833,33.47,28.287,0.0282,-0.0579,9.782,-0.0387,0.0179,0.2649
7250,1059,844,33.487,28.285,-0.0702,-0.0132,9.7891,0.2809,-0.5789,-0.745
7255,1061,835,33.421,28.256,0.0136,-0.0404,9.8321,0.3158,-0.3964,0.4135
7260,1066,837,33.432,28.313,0.0443,-0.0041,9.8654,0.3971,-0.1896,-0.2791
7265,1057,840,33.385,28.221,0.0503,-0.1105,9.7499,-0.2608,-0.678,0.2619
7270,1049,838,33.487,28.267,-0.0875,0.0073,9.7537,-0.109,-0.255,-0.2557
7275,1054,845,33.491,28.283,0.009,-0.0149,9.8514,-0.0114,-0.3533,-0.5129
7280,1047,841,33.464,28.233,0.0339,0.0178,9.7894,0.3503,0.1471,-0.03
7285,1044,842,33.562,28.26,-0.1536,0.039,9.8115,-0.1353,0.6807,-0.6832
7290,1031,840,33.559,28.271,0.0238,-0.0056,9.8268,-0.3507,0.3532,0.0468
7295,1033,843,33.409,28.248,0.033,0.0487,9.7286,-0.2396,1.3841,-0.0676
7300,1021,842,33.411,28.272,0.0892,-0.002,9.8011,-0.019,0.3436,-0.2334
7305,1020,838,33.515,28.299,0.0203,-0.0111,9.8183,0.2464,0.8334,0.0354
7310,1009,843,33.407,28.263,-0.0105,0.0217,9.7805,-0.7334,0.7978,-0.3855
7315,1001,841,33.416,28.357,-0.0926,-0.0789,9.8551,-0.3884,0.4181,-0.2543
7320,995,838,33.453,28.325,-0.0588,-0.1051,9.7608,0.8714,0.4916,-0.124
7325,989,843,33.457,28.29,-0.0121,-0.0114,9.7831,0.0532,-0.2396,-0.5736
7330,976,835,33.353,28.283,0.0563,-0.0956,9.7659,0.8694,-0.0116,0.2867
7335,984,840,33.466,28.19,0.0546,-0.0151,9.8105,0.3532,-0.133,0.2054
7340,967,837,33.435,28.458,0.0159,-0.0119,9.8303,-0.4483,-0.0676,0.1108
7345,957,839,33.459,28.325,-0.0061,0.0158,9.7403,0.0866,-1.3308,-0.2576
7350,949,837,33.507,28.296,0.0035,0.01,9.845,0.158,0.1827,0.4725
7355,936,838,33.503,28.326,-0.0003,0.0213,9.8687,0.997,-0.2876,-0.5054
7360,931,833,33.452,28.22,0.0317,0.0608,9.7735,0.2884,-0.2827,0.4517
7365,917,834,33.489,28.257,-0.0265,-0.0646,9.7875,-0.7141,-0.2384,0.0045
7370,915,834,33.469,28.348,0.0389,0.0637,9.7885,0.2512,0.4298,0.0923
7375,906,830,33.454,28.302,-0.077,-0.0553,9.827,0.1469,-0.4357,0.2448
7380,898,828,33.399,28.281,-0.0827,0.0277,9.7857,-0.4248,0.3431,-0.6219
7385,876,827,33.478,28.26,-0.0212,0.0156,9.867,0.155,-0.6283,-0.5609
7390,880,830,33.479,28.286,0.0852,-0.0385,9.8481,-1.5207,0.4826,-0.2353
7395,857,825,33.454,28.323,-0.007,-0.0339,9.8498,0.4733,-0.1653,0.7838
7400,846,831,33.433,28.244,-0.0038,0.0791,9.8368,0.0804,-0.5545,-0.4283
7405,856,835,33.412,28.163,0.0371,-0.0534,9.8641,-0.28,-0.4775,-0.7643
7410,843,833,33.489,28.236,0.0724,0.0231,9.7231,-0.0357,-0.3959,0.2374
7415,826,831,33.409,28.245,-0.0118,-0.0027,9.7337,0.1297,0.6469,0.6984
7420,813,823,33.51,28.252,-0.0202,-0.1264,9.7897,0.08,0.7812,-0.982
7425,809,830,33.457,28.273,0.0132,0.0283,9.8592,-0.4343,0.2228,-1.0029
7430,806,826,33.477,28.347,-0.0067,0.0028,9.8301,0.5574,0.7166,-0.353
7435,799,824,33.488,28.231,-0.0066,0.0228,9.7566,-0.9528,-0.4779,-0.5095
7440,797,823,33.525,28.278,-0.1446,0.0069,9.8244,-0.6018,-0.0267,0.1324
7445,787,821,33.488,28.237,0.0625,-0.0187,9.8317,-0.4619,-0.7725,-0.1646
7450,779,821,33.396,28.329,-0.0217,0.0139,9.8254,-0.1671,-0.8796,0.4115
7455,767,826,33.494,28.231,-0.0533,0.0379,9.8612,0.3521,-0.6737,-0.4991
7460,765,820,33.452,28.304,-0.0117,0.0041,9.8356,0.8791,-0.5275,-0.1087
7465,768,826,33.535,28.298,0.019,0.0508,9.7438,-0.696,-0.169,-0.5824
7470,758,818,33.47,28.237,0.0403,-0.0212,9.8766,0.356,-0.0056,0.1304
7475,749,818,33.39,28.222,0.028,0.0242,9.8326,-0.2075,1.097,-0.4905
7480,753,819,33.489,28.252,-0.0297,0.1568,9.9074,-1.0068,0.2158,0.3454
7485,759,819,33.507,28.214,0.0022,0.0889,9.8488,0.1899,1.2249,-0.2429
7490,752,819,33.511,28.206,0.0523,0.0656,9.8278,-0.0458,0.6369,0.346
7495,758,818,33.505,28.301,-0.0079,-0.0361,9.7954,-0.5389,-0.1599,-0.0679
7500,748,819,33.444,28.236,0.0586,0.0671,9.8082,0.1354,-0.0957,0.4957
7505,743,818,33.496,28.295,0.0355,0.004,9.7838,-0.1669,-0.4278,-1.3333
7510,745,818,33.531,28.202,0.037,-0.0347,9.894,0.4594,-0.527,-0.9192
7515,741,820,33.508,28.227,0.0173,-0.0874,9.7831,0.4977,0.4824,-0.2035
7520,752,811,33.456,28.219,0.0752,0.0274,9.8692,-0.8249,-0.0216,-0.3182
7525,759,819,33.434,28.229,-0.0084,0.0431,9.6999,-0.3692,-0.6642,-0.388
7530,758,815,33.513,28.271,0.0263,-0.0451,9.801,0.2885,0.0818,0.0619
7535,766,812,33.439,28.224,0.094,0.0034,9.8192,-0.6249,-0.4086,0.5966
7540,768,809,33.592,28.28,-0.0516,-0.0695,9.8072,-0.1377,-0.0556,0.2768
7545,784,811,33.465,28.359,-0.0586,-0.0439,9.7715,-0.4214,0.5569,0.5005
7550,779,808,33.423,28.217,0.0387,-0.0297,9.9042,0.5167,0.5126,0.289
7555,791,812,33.408,28.175,0.0615,-0.1051,9.8348,0.6753,0.0736,-0.0693
7560,790,808,33.533,28.215,0.0617,-0.0087,9.8236,0.1891,-0.548,-0.373
7565,812,806,33.412,28.312,-0.0722,-0.0402,9.7401,-0.309,-0.0758,0.2595
7570,821,807,33.527,28.247,-0.0789,-0.0333,9.9087,-0.4776,0.6331,-0.0153
7575,835,803,33.425,28.324,0.021,-0.0298,9.7524,-0.1275,-0.496,-0.5128
7580,844,804,33.475,28.304,-0.0986,0.0628,9.7601,-0.6176,0.2361,0.3473
7585,854,803,33.451,28.315,-0.0326,0.0131,9.8415,0.4909,0.4081,-0.6721
7590,861,792,33.398,28.291,0.022,0.0844,9.6523,-1.0278,0.0767,0.1008
7595,882,795,33.399,28.296,0.0057,0.0271,9.8272,-0.5403,0.1662,0.3321
7600,883,798,33.5,28.202,-0.1307,-0.1125,9.7958,-0.3794,-1.1522,-0.5223
7605,900,796,33.377,28.225,0.0797,-0.0635,9.802,-0.0404,-0.0075,0.2169
7610,906,790,33.465,28.249,0.0986,-0.0566,9.8068,0.0073,0.0542,-0.4426
7615,916,789,33.613,28.253,-0.0907,-0.0324,9.7874,-0.1295,-0.4264,0.3337
7620,939,784,33.477,28.213,-0.0253,0.0476,9.7505,0.0424,-0.4119,0.1291
7625,960,780,33.427,28.239,0.0399,-0.0117,9.8171,0.5961,-0.1397,-0.5596
7630,956,779,33.458,28.352,-0.0413,0.05,9.7338,-0.3952,-0.19,-0.3281
7635,974,777,33.499,28.281,0.0198,-0.0597,9.7215,-0.3352,0.2979,0.3509
7640,982,780,33.485,28.273,-0.046,-0.0067,9.8218,0.2102,-0.1921,0.3726
7645,997,778,33.48,28.302,-0.0394,0.06,9.8188,0.095,-1.2823,0.7854
7650,1004,777,33.451,28.281,-0.0433,-0.0358,9.7653,-0.0078,0.3869,0.6719
7655,1021,772,33.382,28.292,0.0297,-0.0084,9.7844,0.7784,-0.6213,0.164
7660,1033,770,33.446,28.255,-0.0021,-0.0605,9.8498,-0.434,0.5397,-0.0771
7665,1048,767,33.415,28.245,0.0537,-0.0417,9.8477,-0.9025,0.3823,0.7205
7670,1064,769,33.502,28.261,-0.0618,0.0285,9.8428,-0.4974,0.1289,-0.6991
7675,1063,769,33.484,28.363,-0.0319,0.0783,9.8734,0.5458,0.2058,0.6603
7680,1062,761,33.463,28.307,0.0235,0.0355,9.7616,0.146,-0.3166,-0.0457
7685,1086,764,33.462,28.315,0.0474,-0.0086,9.8037,0.6202,-0.7144,-0.0167
7690,1087,758,33.46,28.284,-0.0522,-0.0356,9.7299,-0.754,0.1969,0.5122
7695,1113,756,33.425,28.21,0.0507,0.0099,9.7795,0.3147,-0.3625,0.1221
7700,1123,755,33.479,28.255,0.0184,0.0245,9.7993,0.5026,-0.4371,0.1419
7705,1127,749,33.337,28.25,-0.0093,-0.0577,9.8023,-0.2723,-0.2853,0.2803
7710,1139,750,33.52,28.19,-0.0285,0.0665,9.8182,0.1391,0.3368,0.6987
7715,1139,753,33.468,28.316,0.0187,0.0328,9.7993,-0.4107,0.7341,-0.1681
7720,1151,755,33.499,28.233,-0.008,-0.1155,9.8268,-0.0485,0.4111,1.0928
7725,1163,745,33.503,28.358,-0.0195,-0.0202,9.8,-0.0454,-0.6206,-0.2246
7730,1162,747,33.512,28.28,-0.0994,-0.0311,9.7764,-0.1837,0.0045,-0.9767
7735,1169,747,33.396,28.319,0.0938,-0.0922,9.6734,0.5851,0.3122,-0.52
7740,1174,745,33.481,28.249,-0.0313,-0.0028,9.8443,-0.3175,-0.6596,0.0443
7745,1170,745,33.446,28.273,-0.0386,-0.0338,9.8746,-0.0314,0.2251,0.2335
7750,1182,745,33.476,28.26,0.0473,-0.0153,9.8128,-0.2565,-0.2046,-0.1098
7755,1189,742,33.489,28.302,0.0528,0.0982,9.7904,-0.2606,1.5321,-0.2044
7760,1185,743,33.444,28.318,-0.0246,-0.0236,9.8551,-0.6508,-0.2021,0.4925
7765,1180,741,33.489,28.319,-0.0555,0.0028,9.8,-0.8599,0.2646,-0.0525
7770,1177,740,33.504,28.27,-0.1199,-0.0364,9.8658,0.0842,0.9484,1.3101
7775,1189,747,33.454,28.243,0.0724,0.058,9.7496,0.5655,-0.3162,-0.0576
7780,1193,739,33.421,28.204,0.0408,-0.0029,9.8266,-0.1407,-0.4175,-0.7528
7785,1185,746,33.484,28.274,0.0794,-0.0455,9.7597,0.7881,0.2911,-0.0942
7790,1194,743,33.368,28.276,-0.0523,0.0408,9.833,0.7308,-0.3656,-0.3696
7795,1187,747,33.439,28.259,0.0063,-0.0669,9.7698,0.1551,0.1382,-0.1215
7800,1176,746,33.484,28.229,0.0323,0.0166,9.8815,1.076,0.4619,-0.3588
7805,1180,750,33.491,28.297,-0.0484,-0.1342,9.7255,-0.5229,0.4999,-0.189
7810,1187,752,33.414,28.262,0.0745,-0.0474,9.7633,0.0905,-0.3121,-0.6106
7815,1183,754,33.422,28.316,-0.0236,-0.0845,9.6972,0.6873,0.6537,0.3373
7820,1177,749,33.549,28.33,0.0657,0.034,9.794,1.1257,-0.2137,0.1153
7825,1175,753,33.473,28.251,-0.0597,-0.0592,9.7013,0.6708,-0.8299,-0.5803
7830,1166,762,33.358,28.35,-0.0123,0.0283,9.8209,0.5365,-0.3681,-0.0043
7835,1170,758,33.466,28.266,-0.0372,-0.0397,9.7682,-0.6881,0.369,0.7075
7840,1167,762,33.458,28.25,0.093,-0.0824,9.8011,0.6485,-0.0904,-0.2615
7845,1156,765,33.429,28.317,-0.0882,-0.0475,9.8212,0.0495,-0.257,0.4362
7850,1159,765,33.469,28.314,-0.0031,0.0022,9.7701,0.1696,-0.6232,0.4663
7855,1164,767,33.475,28.303,-0.0841,-0.0393,9.7106,0.2313,0.2752,0.3017
7860,1149,768,33.446,28.246,-0.0419,0.0111,9.8506,0.008,-0.372,0.0733
7865,1145,770,33.448,28.291,0.0119,-0.0063,9.9092,-0.3446,0.2186,0.0776
7870,1148,781,33.447,28.226,-0.011,-0.0329,9.7654,-0.9289,1.0476,0.2401
7875,1140,777,33.504,28.382,-0.0061,0.0566,9.8087,-0.3507,0.5512,-0.0909
7880,1133,780,33.519,28.212,-0.1416,0.0218,9.8992,-0.2012,0.9437,0.4055
7885,1130,785,33.42,28.216,0.0338,-0.0441,9.8712,-0.1244,-0.8348,0.2058
7890,1137,784,33.395,28.128,-0.0016,-0.0667,9.7491,0.243,-0.0528,0.9975
7895,1128,790,33.455,28.294,0.0489,0.0526,9.7967,-0.1911,0.1435,-0.3747
7900,1128,788,33.526,28.346,0.0342,0.0512,9.7497,-0.1783,0.3039,0.3183
7905,1116,795,33.469,28.189,-0.0037,0.0772,9.7915,0.7669,-0.1305,-0.1464
7910,1122,797,33.491,28.354,-0.0276,-0.0833,9.8091,0.1985,-0.7392,0.2693
7915,1117,795,33.469,28.173,-0.0599,0.0044,9.912,-0.1134,0.049,-0.1231
7920,1122,800,33.524,28.307,0.0427,0.0274,9.8315,0.1415,-0.3525,0.2687
7925,1115,805,33.474,28.243,0.0313,0.0614,9.8584,-0.9141,-0.0971,-0.7913
7930,1104,810,33.405,28.211,-0.0149,-0.115,9.7573,0.1047,-0.2147,-0.0904
7935,1105,812,33.517,28.269,-0.0339,-0.0395,9.728,-0.2145,0.018,0.1955
7940,1114,807,33.479,28.314,-0.0077,0.0665,9.9286,-0.1572,0.4599,0.4027
7945,1107,813,33.505,28.301,-0.0418,0.0431,9.8072,0.053,0.3066,0.0317
7950,1107,812,33.486,28.255,0.0789,0.0567,9.8815,0.8773,0.139,-0.4445
7955,1096,818,33.495,28.229,0.0959,-0.0125,9.8856,-0.3728,-0.4969,0.6142
7960,1099,821,33.46,28.246,-0.0754,-0.0364,9.8366,0.4338,0.0854,-0.1031
7965,1098,826,33.466,28.363,-0.0162,-0.0788,9.7879,-0.5689,0.3426,0.4377
7970,1095,829,33.41,28.273,0.0491,-0.0008,9.8421,0.9775,-0.769,0.2111
7975,1087,826,33.505,28.299,0.0263,-0.1111,9.7959,-0.2075,-0.6585,-0.6491
7980,1088,828,33.46,28.286,-0.044,0.0554,9.7988,0.3769,-0.3796,-0.3323
7985,1090,827,33.44,28.323,-0.0642,-0.0746,9.7053,-0.4312,0.4142,1.0099
7990,1084,835,33.406,28.305,0.014,0.0932,9.803,0.1446,-0.395,0.648
7995,1075,832,33.313,28.361,-0.0223,0.0263,9.8273,0.0947,0.7134,-0.2449
8000,1075,835,33.459,28.28,-0.0899,-0.0207,9.8796,0.095,0.104,0.2917
8005,1080,841,33.48,28.244,-0.07,0.0507,9.7596,-0.8385,1.5008,-0.86
8010,1068,838,33.448,28.276,0.015,-0.0819,9.7831,-0.3181,-0.5478,-0.4179
8015,1074,836,33.561,28.163,-0.0309,-0.0514,9.7715,0.3924,-0.271,-0.3358
8020,1068,836,33.506,28.198,0.0438,0.0272,9.7548,-1.1109,0.4845,0.3738
8025,1057,841,33.358,28.262,-0.07,-0.0742,9.7592,0.0467,0.2297,-0.4456
8029,1066,843,33.444,28.313,-0.0454,0.0641,9.8431,-0.2431,-0.621,-0.1237
8035,1046,842,33.508,28.274,-0.0008,-0.0299,9.8296,-0.2519,-0.4279,-0.0143
8039,1046,838,33.501,28.276,-0.038,0.0129,9.7757,0.2825,-0.7007,-0.55
8045,1039,838,33.475,28.232,-0.0652,-0.0241,9.8657,1.1514,-0.1349,-0.1236
8050,1043,841,33.477,28.239,0.056,-0.059,9.8247,-0.6163,-0.564,-1.8274
8055,1035,841,33.495,28.364,0.0233,-0.0168,9.8096,-0.4587,-0.0277,-0.1807
8060,1034,841,33.558,28.252,-0.0705,-0.0518,9.796,0.3259,-1.0801,-0.076
8064,1024,840,33.453,28.232,0.0624,0.0413,9.7252,-0.676,0.443,-0.214
8070,1014,841,33.392,28.283,0.0422,0.0343,9.7636,-0.7457,-0.6131,0.4353
8074,1008,841,33.367,28.178,-0.0585,-0.0079,9.7538,0.2928,0.3374,0.7285
8080,1005,844,33.516,28.356,0.0252,0.0566,9.7498,0.3138,-1.2903,-0.5577
8085,993,842,33.42,28.323,-0.0479,0.0159,9.8713,-0.1675,0.4297,0.5453
8090,985,837,33.439,28.346,0.1185,-0.0817,9.7893,-0.003,0.4019,0.5227
8095,991,837,33.54,28.268,-0.0563,0.084,9.7912,1.1192,1.5068,0.099
8100,975,840,33.5,28.282,-0.0462,0.0872,9.911,0.5121,0.5953,-0.3874
8105,972,836,33.389,28.18,-0.0113,0.0382,9.7726,0.8692,0.2244,-0.755
8109,965,833,33.499,28.233,0.0772,0.0191,9.7098,-0.1617,-0.5262,0.0142
8115,957,835,33.429,28.333,-0.0354,-0.0383,9.7565,0.2767,0.3218,-0.6501
8119,936,835,33.411,28.222,-0.0224,0.0658,9.833,0.2526,-0.1735,-0.6782
8125,932,832,33.471,28.242,0.0445,0.0495,9.8589,0.2643,-0.5673,-0.4271
8130,921,840,33.503,28.29,0.0068,-0.0482,9.7803,0.3322,-0.6999,0.4764
8135,912,833,33.514,28.312,-0.0077,0.0848,9.8313,-0.277,0.1806,0.3142
8140,906,836,33.455,28.284,-0.0623,-0.0541,9.8211,1.8123,-0.2598,-0.1003
8145,899,826,33.474,28.239,-0.0106,0.0372,9.8104,-0.4115,-0.0579,0.6438
8150,884,829,33.516,28.23,0.0376,0.0529,9.7877,-0.123,-0.0969,-0.4154
8154,879,827,33.423,28.195,-0.0456,-0.0102,9.706,0.2867,-0.1939,0.2559
8160,868,830,33.485,28.28,0.006,-0.0097,9.8467,0.2103,0.0689,0.1325
8164,859,828,33.508,28.304,0.0753,0.0435,9.7819,0.1862,0.0009,-0.0775
8170,845,828,33.521,28.263,-0.0574,-0.1166,9.7628,0.2294,-0.1514,0.7157
8175,839,825,33.534,28.273,-0.0349,-0.0081,9.8327,0.4735,-0.0503,-0.029
8180,825,832,33.489,28.159,0.0247,-0.0216,9.804,0.5197,-0.5915,0.1083
8185,814,824,33.46,28.174,-0.0493,0.0042,9.825,-0.4632,0.4106,0.3076
8189,818,825,33.53,28.257,-0.0569,-0.0159,9.8222,-0.3809,-0.2415,0.231
8195,798,821,33.488,28.331,0.0201,0.0153,9.7526,-0.0381,0.3303,0.1159
8200,799,822,33.415,28.214,-0.0009,0.0547,9.8337,-0.1583,-0.0803,0.6805
8205,792,828,33.539,28.363,-0.123,0.0128,9.7975,-0.0248,0.0436,0.0722
8210,793,823,33.461,28.275,-0.0167,0.0841,9.8177,0.179,0.2945,-0.2539
8215,779,820,33.541,28.31,0.0332,-0.0142,9.7701,0.4838,-0.2903,0.431
8220,772,822,33.463,28.29,-0.02,0.0781,9.7623,0.7024,0.2531,0.098
8225,766,821,33.557,28.294,-0.015,0.0035,9.7964,0.1863,0.2406,-0.2264
8230,760,826,33.497,28.312,0.0002,-0.0112,9.7423,0.2467,-0.1838,-0.0144
8235,762,820,33.45,28.428,0.0258,-0.0278,9.7458,0.3446,0.4565,-1.0344
8240,749,821,33.404,28.306,0.0172,-0.0228,9.7496,0.8999,0.1362,-0.166
8245,751,819,33.446,28.199,0.0328,-0.0076,9.8442,0.2645,-0.147,0.4179
8250,743,821,33.43,28.319,-0.0258,-0.0224,9.748,-0.9572,0.1054,0.1561
8255,756,821,33.535,28.183,-0.0818,0.0021,9.7815,0.1272,0.2983,1.1061
8260,750,819,33.467,28.294,-0.0682,0.0077,9.7992,-0.3568,1.7202,-0.0008
8265,743,815,33.484,28.297,-0.0023,-0.0384,9.882,0.4174,-0.2178,-0.6855
8270,749,819,33.419,28.255,-0.062,-0.0362,9.7941,-0.1193,-0.3776,0.7073
8275,746,816,33.498,28.36,-0.078,0.0093,9.796,0.0069,-0.0673,0.2296
8280,742,812,33.52,28.261,-0.021,0.0268,9.7023,-0.5533,0.2826,-0.5594
8285,759,815,33.411,28.247,0.0215,-0.005,9.8636,-0.4975,-0.5171,0.2739
8290,758,814,33.407,28.32,-0.041,-0.0021,9.8242,-0.831,0.1584,-0.8366
8295,770,817,33.44,28.289,0.0247,0.0992,9.8208,0.3017,-0.5717,1.096
8300,767,814,33.506,28.257,-0.0855,0.0097,9.8163,-0.3332,-0.076,-1.2706
8305,772,813,33.432,28.235,0.0245,0.0206,9.7731,-0.5571,0.1124,0.2451
8310,775,813,33.498,28.309,-0.0676,0.0677,9.9292,-0.8239,-0.773,0.1644
8315,782,812,33.445,28.218,0.0188,-0.028,9.7599,0.4162,-0.1353,0.3822
8320,799,810,33.362,28.281,-0.0183,0.0377,9.8352,1.2278,0.0647,-0.0892
8325,791,807,33.548,28.274,0.1082,-0.0761,9.8147,-0.4688,-0.6059,0.213
8330,806,808,33.489,28.178,0.0091,0.0076,9.811,-0.5794,-0.0701,-0.1959
8335,822,806,33.478,28.309,-0.0597,0.0056,9.7881,-0.1771,0.3458,0.0072
8340,823,799,33.524,28.191,-0.0146,0.024,9.8015,1.2578,-0.0356,-0.5396
8345,841,802,33.5,28.187,-0.1036,0.0063,9.7309,0.0141,0.054,0.3474
8350,857,801,33.408,28.304,-0.0018,0.0137,9.8425,0.0396,-0.2563,0.2345
8355,863,794,33.502,28.3,0.0079,-0.0553,9.8205,-0.761,0.4659,-0.3171
8360,871,797,33.505,28.314,0.0058,0.0146,9.8042,0.4408,0.0348,-0.2338
8365,884,790,33.501,28.311,-0.0057,-0.0162,9.7882,-0.3681,-0.6853,0.7343
8370,887,795,33.504,28.356,0.0341,0.012,9.7825,-0.2528,0.4673,0.1259
8375,910,798,33.571,28.249,-0.0555,-0.0694,9.8627,0.2937,-0.493,-0.4028
8380,913,791,33.418,28.358,0.0561,0.0357,9.7615,0.3588,-0.4088,0.5345
8385,932,787,33.453,28.326,0.0217,0.0151,9.8921,-0.2619,-0.7661,-0.1251
8390,953,789,33.431,28.263,-0.0738,-0.0495,9.7882,0.7961,-0.2526,0.5151
8395,953,787,33.477,28.309,0.0199,0.0276,9.776,0.3312,-1.0806,0.2666
8400,973,785,33.447,28.255,0.0534,0.0329,9.8318,0.3629,-1.3132,0.625
8405,988,781,33.469,28.232,0.0361,-0.1525,9.7479,-0.5556,1.033,0.5619
8410,996,778,33.521,28.322,0.0642,0.0176,9.8692,0.5837,0.0872,-0.2565
8415,1005,769,33.447,28.169,0.0496,0.0222,9.7905,-0.0732,0.2392,0.056
8420,1018,773,33.411,28.233,0.0394,-0.1063,9.8211,0.3194,0.2227,0.1593
8425,1035,770,33.477,28.283,0.022,-0.0134,9.7354,1.107,-0.6506,-0.0604
8430,1050,777,33.466,28.252,0.0197,-0.039,9.7722,-0.4435,0.0017,0.0724
