timestamp_ms,ir_finger,ir_toe,temp_finger,temp_toe,ax,ay,az,gx,gy,gz
0,1045,716,33.532,32.209,-0.0222,-0.0782,9.8003,0.1181,0.0695,0.6058
5,1044,713,33.587,32.225,0.0601,0.0889,9.7427,0.5861,0.974,-0.0715
10,1068,718,33.538,32.133,0.0137,0.0168,9.8144,0.1443,0.7781,0.2431
15,1071,714,33.638,32.216,-0.1053,-0.0342,9.7101,-0.1409,-0.1395,0.014
20,1093,713,33.526,32.216,0.045,0.0521,9.7984,0.4302,-0.0479,0.2091
25,1095,716,33.523,32.157,-0.0567,-0.0437,9.9197,-0.8679,-0.2535,0.3164
30,1107,719,33.476,32.104,0.0572,0.0757,9.7586,-0.4242,-0.4001,0.0656
35,1115,723,33.568,32.12,-0.0578,-0.0127,9.7493,-0.8188,-0.2009,0.1854
40,1120,722,33.627,32.137,-0.0498,-0.0408,9.8344,0.2002,1.1599,0.199
45,1118,716,33.581,32.108,-0.0543,-0.0471,9.8078,0.1206,0.5058,-0.8071
50,1138,716,33.669,32.087,0.0139,0.0527,9.8071,0.4394,0.1881,-0.5829
55,1150,721,33.571,32.105,0.0719,0.0364,9.759,0.9805,0.7566,0.8714
60,1149,716,33.559,32.142,-0.0481,-0.0066,9.7674,0.8957,-0.0164,0.3788
65,1158,728,33.568,32.231,0.0684,0.0654,9.8914,0.0253,-1.3309,0.0719
70,1160,726,33.572,32.16,-0.0181,0.0359,9.7368,-0.3964,0.1873,0.0514
75,1177,735,33.555,32.061,-0.0179,0.0053,9.8412,0.278,-0.2371,0.2323
80,1173,734,33.516,32.185,0.0796,0.0679,9.8313,0.0624,0.046,-0.462
85,1177,737,33.561,32.112,-0.0093,-0.0223,9.7172,-0.0302,-0.1233,0.826
90,1175,737,33.565,32.175,-0.0141,0.0171,9.8231,0.0517,-0.2484,-0.8737
95,1181,737,33.577,32.124,-0.0381,-0.056,9.8166,-0.1813,-0.5156,-0.3939
100,1186,745,33.571,32.1,0.009,-0.0715,9.7678,-0.5503,-0.1084,0.1526
105,1191,746,33.62,32.124,0.0098,-0.0229,9.7938,0.0218,0.2296,0.0854
110,1192,755,33.63,32.218,-0.0208,-0.0776,9.8041,-0.4831,0.5511,-0.8453
115,1192,752,33.455,32.143,0.0424,-0.0925,9.8758,-0.1732,-0.0013,0.237
120,1183,763,33.483,32.166,0.0076,0.0314,9.8086,0.5331,-0.7972,0.1711
125,1193,763,33.519,32.278,-0.0443,-0.069,9.7483,0.323,-0.6179,1.1382
130,1186,769,33.547,32.115,0.045,-0.0598,9.8205,0.5496,0.4769,-0.9901
135,1189,772,33.546,32.105,-0.053,-0.0307,9.8297,-0.0231,0.0573,0.3396
140,1184,775,33.674,32.15,-0.0262,-0.0322,9.7925,-0.7305,0.4131,-0.3037
145,1184,783,33.612,32.161,0.0959,-0.0586,9.7931,-0.0668,-0.3596,0.0894
150,1190,790,33.612,32.166,0.0591,-0.0119,9.8051,-0.1318,-0.0043,-0.2395
155,1177,794,33.584,32.219,-0.0099,0.0269,9.7729,-0.2601,0.7353,0.5535
160,1170,794,33.522,32.202,-0.0097,0.0034,9.8558,0.3477,-0.2101,0.0011
165,1170,797,33.547,32.181,0.022,0.0355,9.7709,0.4179,-0.3132,-0.0343
170,1173,796,33.482,32.223,0.0295,0.0406,9.7502,0.2385,-0.7711,-0.3228
175,1169,801,33.5,32.173,-0.0607,-0.0036,9.7719,0.5952,0.0538,0.8847
180,1160,813,33.608,32.004,0.0301,0.0874,9.7773,-1.7165,-0.2331,0.2622
185,1157,814,33.556,32.088,-0.0259,0.0475,9.7845,0.7412,0.1313,1.0203
190,1156,818,33.544,32.164,-0.0216,0.0978,9.8618,-0.2352,0.1511,-0.1449
195,1147,823,33.581,32.199,-0.0682,0.0261,9.8239,-0.2044,0.2948,-0.0945
200,1148,828,33.599,32.234,0.0344,-0.0547,9.7755,-0.2607,-0.3203,0.5474
205,1146,828,33.55,32.197,0.0287,-0.0391,9.7032,0.4451,0.2006,0.0754
210,1137,835,33.597,32.164,0.0112,-0.0475,9.7529,0.3214,0.7768,-0.0026
215,1132,833,33.562,32.174,0.0137,-0.0235,9.8374,-0.6998,-0.2385,-0.0401
220,1140,839,33.585,32.184,0.0124,-0.0061,9.8002,-0.0464,0.1711,-0.2961
225,1127,845,33.566,32.231,0.0205,0.0102,9.8003,0.0621,0.1682,-0.1144
230,1120,844,33.649,32.154,0.0313,-0.0311,9.8254,-0.154,0.321,-0.3639
235,1119,848,33.578,32.153,0.0317,0.0732,9.8503,-0.4505,-0.6297,-0.2837
240,1116,844,33.48,32.037,-0.0836,0.0264,9.814,-0.74,-0.5059,-0.7725
245,1117,849,33.58,32.176,0.0218,0.048,9.8894,0.2968,0.0896,-0.0461
250,1119,851,33.47,32.152,0.0405,0.0018,9.8343,-0.1893,-0.8879,0.8458
255,1108,859,33.62,32.07,0.015,-0.2061,9.788,-0.5153,0.1319,0.1504
260,1108,857,33.561,32.149,-0.0004,-0.0296,9.8077,-0.7773,-0.7762,-0.1451
265,1111,856,33.573,32.27,-0.0265,0.0077,9.7314,0.6802,-0.0798,-0.1142
270,1098,856,33.526,32.149,-0.1255,-0.0002,9.7804,0.5263,-0.0663,-0.928
275,1097,860,33.614,32.074,-0.046,0.0644,9.8461,-0.0841,-0.6575,-0.4997
280,1103,859,33.512,32.199,-0.099,-0.0272,9.7217,-0.2603,0.168,0.734
285,1098,856,33.565,32.144,-0.0056,-0.0129,9.8394,-0.0965,-0.38,0.207
290,1099,865,33.569,32.12,-0.0054,-0.0298,9.8745,-0.356,0.0366,-0.5392
295,1096,865,33.585,32.114,0.0108,0.026,9.8564,0.2091,0.2095,0.45
300,1088,858,33.655,32.185,-0.0748,-0.0024,9.7549,-0.1429,-0.0243,-0.2976
305,1081,866,33.615,32.149,-0.0137,-0.0284,9.6462,0.2411,0.2038,-0.6503
310,1082,865,33.515,32.138,-0.0899,-0.0855,9.7962,-0.4763,0.4266,0.3361
315,1086,858,33.562,32.066,0.0217,0.0632,9.8145,-0.4687,-0.4411,-0.3731
320,1077,864,33.544,32.16,0.0023,-0.0477,9.8979,-0.5527,-0.1179,-0.3193
325,1074,864,33.602,32.227,0.0202,0.0066,9.7837,-1.1163,-0.2756,0.5088
330,1079,860,33.616,32.097,0.0508,-0.0253,9.7443,-0.1139,0.012,-0.9636
335,1075,862,33.501,32.181,-0.0153,-0.0514,9.7399,0.3243,0.8278,-0.102
340,1070,858,33.486,32.147,0.0462,0.0578,9.8386,-0.1987,0.1704,0.0171
345,1067,853,33.612,32.172,-0.0388,-0.0088,9.839,-0.0277,-0.0502,0.0079
350,1059,859,33.573,32.193,-0.0059,-0.0181,9.7373,0.4677,0.5386,-0.4313
355,1054,853,33.576,32.171,0.0256,0.0478,9.8527,0.0077,-0.0253,0.2099
360,1052,855,33.501,32.145,-0.0661,0.0323,9.7207,0.7065,0.9618,-0.0025
365,1050,853,33.623,32.122,-0.1035,0.0278,9.82,-1.1763,0.1165,-1.2046
370,1045,849,33.471,32.086,-0.0791,-0.051,9.8033,0.1643,-0.2685,0.8366
375,1048,853,33.51,32.183,-0.0409,0.0446,9.8318,1.1354,0.0019,-0.2549
380,1042,843,33.538,32.205,-0.0231,-0.0904,9.8671,0.1082,0.0411,0.3032
385,1031,848,33.531,32.168,-0.0613,-0.063,9.7534,-0.0975,-0.2446,0.8201
390,1019,850,33.472,32.162,-0.0473,0.1023,9.7765,0.2723,-0.0527,0.2003
395,1014,843,33.509,32.24,0.0835,0.0137,9.9034,-0.1719,0.1067,0.1602
400,1008,847,33.583,32.144,-0.0099,0.0424,9.8593,0.35,0.376,-0.6487
405,1009,840,33.493,32.055,0.0522,-0.0344,9.7646,-0.1221,-0.3325,-0.0411
410,996,842,33.54,32.16,0.021,0.0144,9.8423,0.8574,-0.9573,-0.4241
415,986,844,33.616,32.223,-0.0486,-0.0277,9.7983,-0.0051,-1.2209,0.2235
420,977,842,33.48,32.181,0.0088,-0.0211,9.8364,-0.057,0.1527,0.3351
425,974,839,33.54,32.208,0.0094,-0.1206,9.8833,-0.1975,-0.472,0.3475
430,968,834,33.596,32.241,-0.0556,0.0771,9.7969,0.1496,0.029,-0.1897
435,955,839,33.53,32.199,-0.076,-0.0569,9.7302,0.4887,-0.2895,-0.6379
440,936,832,33.579,32.229,-0.0455,-0.066,9.8551,0.327,0.2902,-0.385
445,943,833,33.564,32.199,0.0042,-0.0463,9.8315,0.0138,0.2641,0.8363
450,923,840,33.568,32.208,0.0264,0.0094,9.858,-0.5206,-0.408,-0.0569
455,918,832,33.519,32.19,0.0682,-0.0218,9.8092,0.1048,-0.1448,-0.1664
460,906,834,33.591,32.265,0.0046,-0.0678,9.747,0.504,0.9388,0.5229
465,903,835,33.461,32.145,0.0159,0.0211,9.7897,0.158,0.3578,-1.0504
470,885,830,33.473,32.347,0.0336,0.1093,9.8319,-0.3171,-0.0893,-0.8343
475,886,824,33.533,32.194,0.059,0.0319,9.8357,0.4566,0.6206,0.4265
480,872,829,33.535,32.127,-0.0741,-0.0349,9.8938,0.1988,0.0898,-0.6182
485,858,829,33.614,32.183,0.0451,0.0097,9.7538,-0.1959,0.6984,-0.6909
490,847,826,33.667,32.199,-0.1629,0.0937,9.8522,0.6565,-0.1475,0.2479
495,845,828,33.493,32.103,-0.0625,0.0936,9.8272,0.5216,0.3018,0.7867
500,827,822,33.611,32.15,0.0628,0.081,9.8325,-0.5733,-1.1295,-0.977
505,825,831,33.553,32.199,0.0354,-0.0665,9.7622,-0.5745,0.3273,-0.3358
510,810,827,33.567,32.197,0.0372,0.0107,9.7967,0.0471,0.6946,-0.3288
515,805,824,33.659,32.073,-0.0067,0.0148,9.7872,-0.1734,0.8669,0.781
520,796,824,33.578,32.212,-0.0952,0.0416,9.8447,0.2411,-0.5523,-0.0916
525,788,818,33.566,32.243,0.033,0.0162,9.8102,-0.427,-0.3785,0.0692
530,793,818,33.468,32.181,0.0484,0.0144,9.8093,0.3185,0.0726,-1.3
535,783,818,33.52,32.179,0.1052,-0.0222,9.774,-0.8719,-0.3163,0.2054
540,764,818,33.454,32.161,0.0531,-0.0427,9.798,-0.4178,-0.3097,-0.1414
545,779,819,33.501,32.145,-0.0453,-0.0108,9.781,-0.4382,-0.5229,0.3574
550,762,809,33.567,32.251,-0.0217,-0.099,9.7234,-0.0292,0.0137,0.0731
555,764,812,33.536,32.167,0.0246,-0.1021,9.7887,0.7191,-0.8453,-0.0103
560,754,815,33.655,32.198,0.0277,-0.0608,9.7511,0.1389,0.3171,0.1911
565,748,808,33.597,32.117,0.0375,-0.0095,9.847,0.1805,-0.3206,-0.162
570,745,808,33.553,32.119,0.0559,0.0626,9.787,-0.8621,0.126,-0.1464
575,754,806,33.543,32.28,-0.0297,-0.017,9.7926,-0.5964,-0.3818,0.1642
580,742,803,33.558,32.188,-0.1305,0.0121,9.8311,-0.9909,0.4955,-0.3908
585,744,796,33.582,32.202,-0.043,0.0643,9.7249,0.506,-0.1606,0.1286
590,748,800,33.562,32.133,0.024,0.0269,9.7384,-1.0154,0.3394,0.3657
595,754,802,33.611,32.237,-0.0539,0.0327,9.8818,0.0215,0.6253,0.4378
600,756,793,33.601,32.084,-0.1292,0.0048,9.781,0.6552,-0.4658,-0.4758
605,740,796,33.621,32.252,-0.0058,0.0107,9.7773,0.5252,-0.7287,0.4122
610,751,786,33.597,32.218,-0.0645,-0.0296,9.8203,-0.2999,0.4975,-0.6516
615,764,784,33.578,32.175,-0.0175,-0.0042,9.7234,-0.1127,-0.8632,0.6266
620,772,790,33.51,32.079,0.0187,-0.1269,9.6798,0.3289,0.1796,-0.1786
625,782,786,33.563,32.197,0.0155,0.0218,9.8712,-0.0294,-0.3378,0.1979
630,779,780,33.575,32.114,-0.0898,-0.0152,9.871,0.1153,-0.272,0.3213
635,788,773,33.552,32.058,0.0976,0.0531,9.8413,-0.3599,0.393,-0.3232
640,791,773,33.498,32.246,0.0468,0.0291,9.7953,-0.008,0.1961,0.5092
645,809,772,33.56,32.19,0.0084,0.0228,9.8207,-0.0416,-0.473,0.0911
650,815,760,33.597,32.247,0.0074,0.0814,9.82,0.2926,-1.022,-0.3406
655,825,763,33.664,32.197,0.0003,0.0386,9.9109,0.7043,0.3574,-0.3903
660,830,757,33.663,32.18,0.0255,-0.0251,9.8637,0.0952,0.0737,-0.3711
665,845,755,33.572,32.227,-0.1336,-0.031,9.8186,0.9172,-0.7277,-0.3634
670,867,751,33.551,32.105,0.0878,0.0556,9.7784,-0.5614,0.0363,0.5402
675,868,748,33.469,32.137,-0.0113,-0.005,9.8264,-0.1541,-0.6303,0.2901
680,885,749,33.563,32.104,-0.0491,0.0552,9.8291,0.2033,-0.1974,0.4611
685,889,742,33.619,32.143,0.0142,0.0336,9.8245,0.556,0.122,0.4787
690,898,742,33.539,32.196,0.0533,0.0709,9.8384,-0.4785,-0.705,-0.4794
695,931,733,33.541,32.242,-0.122,0.0204,9.808,-0.0047,-0.2456,0.2036
700,931,738,33.572,32.113,-0.0036,-0.02,9.8868,0.0365,1.0658,0.1721
705,953,731,33.568,32.343,-0.0014,0.0365,9.7605,-0.2333,-0.0268,0.0104
710,958,728,33.591,32.159,0.0007,-0.0068,9.8458,0.9037,0.4472,-0.21
715,967,728,33.523,32.206,0.0838,0.0163,9.8253,0.3067,-0.6037,-0.1233
720,991,723,33.494,32.256,-0.0445,0.0286,9.7742,0.541,0.1813,0.6253
725,993,723,33.603,32.065,0.0223,0.0375,9.7324,-0.6621,0.1506,-0.425
730,1014,724,33.565,32.199,-0.033,0.0404,9.8031,0.9678,0.9124,0.1325
735,1017,722,33.608,32.239,0.0683,0.0798,9.815,0.5561,0.1411,0.2044
740,1032,717,33.547,32.146,-0.0166,-0.0386,9.7505,0.049,-0.3937,0.2953
745,1052,719,33.589,32.109,-0.0266,-0.0136,9.908,0.4574,-0.3045,-0.0514
750,1058,716,33.541,32.224,0.0689,0.0474,9.7813,-0.37,0.2951,-0.6463
755,1069,721,33.583,32.157,0.0459,0.0629,9.8045,0.3695,-0.1381,-0.6599
760,1091,717,33.574,32.199,0.0843,0.0421,9.8329,0.1124,0.3072,0.1952
765,1085,715,33.6,32.17,-0.0055,0.0315,9.8162,0.0098,0.8014,0.2428
770,1093,713,33.518,32.222,-0.0234,0.0271,9.7781,0.4332,-0.4136,-0.8942
775,1122,719,33.666,32.169,0.1344,0.0199,9.8724,0.3259,-0.2616,-0.0707
780,1124,719,33.607,32.131,-0.0419,0.0235,9.7859,-0.038,-0.0651,0.1322
785,1119,716,33.633,32.092,0.0121,-0.0687,9.8124,0.7756,-0.1805,-0.1986
790,1131,714,33.571,32.187,-0.0279,0.0322,9.7838,-0.0713,-0.0214,-0.5104
795,1142,715,33.54,32.137,0.0256,0.1058,9.7177,0.5888,-0.3239,-0.3648
800,1148,718,33.554,32.224,-0.0091,0.0166,9.7407,-0.679,-0.1705,-0.1711
805,1164,720,33.592,32.145,-0.0874,-0.0662,9.7774,-0.0103,0.2167,-0.0126
810,1158,723,33.529,32.213,0.0082,0.0352,9.8036,0.4748,0.5701,0.2595
815,1164,726,33.55,32.165,0.0701,-0.0291,9.8111,0.1375,-0.1608,0.1224
820,1177,726,33.569,32.213,-0.039,-0.0065,9.7842,0.5635,0.067,1.1353
825,1173,735,33.595,32.145,0.1301,0.0626,9.73,0.4543,0.2452,0.4515
830,1179,735,33.64,32.163,-0.0724,-0.0115,9.8281,-0.2258,-0.1019,0.8904
835,1185,733,33.54,32.177,-0.0438,-0.0118,9.8403,0.0145,0.9698,1.0043
840,1179,743,33.553,32.217,-0.0028,0.0184,9.8814,0.9272,0.5278,-0.4104
845,1188,746,33.548,32.118,0.0575,-0.017,9.9423,-0.3988,-0.1016,0.1889
850,1198,752,33.626,32.178,-0.0219,0.0551,9.7725,0.1744,-0.3992,1.0744
855,1183,756,33.587,32.259,-0.0451,-0.0141,9.7856,0.2967,0.06,0.2232
860,1193,761,33.476,32.196,-0.0331,0.0509,9.6791,-0.339,-0.2979,-0.3326
865,1186,761,33.551,32.208,-0.0084,-0.0451,9.8305,-0.5351,0.4734,0.1926
870,1178,761,33.598,32.137,0.0789,-0.0476,9.8117,-0.3398,0.0403,-0.5463
875,1184,768,33.592,32.184,-0.0785,0.0425,9.7338,-0.293,0.0021,0.8269
880,1180,770,33.483,32.253,-0.0009,-0.0713,9.8157,-0.3784,-0.1714,-0.3869
885,1179,784,33.611,32.145,0.016,-0.0679,9.7958,0.3864,0.5386,0.167
890,1179,780,33.458,32.196,-0.0674,-0.0448,9.7774,-0.1365,0.1035,-0.3629
895,1178,784,33.516,32.164,0.0111,-0.1039,9.9052,-1.0881,0.1055,-0.2154
900,1177,787,33.549,32.083,0.0548,0.0135,9.8793,-0.9281,-0.133,0.9626
905,1170,796,33.618,32.122,0.0114,0.0632,9.7769,0.3848,0.1449,0.6197
910,1168,796,33.601,32.195,0.0002,-0.0333,9.8091,-0.2902,0.4301,0.2071
915,1170,807,33.551,32.081,0.0708,-0.1114,9.9052,0.5864,0.0796,-0.1435
920,1171,810,33.573,32.107,-0.064,0.0402,9.7338,0.3302,0.781,1.2918
925,1153,818,33.582,32.141,-0.0735,0.0492,9.8643,-0.7243,0.3732,0.5927
930,1160,818,33.59,32.122,-0.0014,0.0246,9.8393,0.4521,0.8061,-0.3857
935,1156,820,33.619,32.271,-0.0788,0.0449,9.752,0.2577,-0.0216,0.1393
940,1153,826,33.576,32.211,-0.1271,0.0245,9.8216,0.2939,0.1011,0.0836
945,1138,825,33.584,32.21,0.014,0.0012,9.762,-0.4766,0.1517,-0.126
950,1147,829,33.57,32.154,-0.0316,0.0129,9.8188,1.0831,0.3413,-0.1407
955,1135,827,33.504,32.219,-0.0206,-0.0215,9.7974,-0.2644,-0.407,0.1274
960,1126,841,33.577,32.138,0.0342,0.0578,9.7885,0.2436,-0.0629,-0.0876
965,1130,846,33.573,32.117,-0.07,-0.0703,9.897,0.3555,0.0047,-0.2498
970,1122,845,33.655,32.173,0.0392,-0.0214,9.8004,-0.4499,-0.143,-0.4643
975,1130,849,33.536,32.148,-0.0144,0.084,9.8371,0.5763,-0.5193,-0.6241
980,1111,849,33.497,32.145,-0.0318,-0.0338,9.7574,-0.998,0.3517,0.9143
985,1112,851,33.527,32.184,0.0237,-0.0421,9.7931,0.4667,0.4765,-0.4047
990,1117,848,33.616,32.192,-0.0123,-0.0034,9.7967,-0.0713,0.2387,-0.7203
995,1119,853,33.559,32.163,0.0114,-0.0471,9.9069,0.3436,0.3092,-1.2407
1000,1105,851,33.562,32.148,0.0383,-0.0439,9.8147,0.1908,0.2704,0.2887
1004,1108,858,33.705,32.175,0.0317,-0.0064,9.8273,-0.8364,0.5091,0.0861
1010,1103,861,33.473,32.169,-0.0077,-0.0753,9.7679,-0.7542,-0.4711,-0.5157
1014,1102,861,33.573,32.183,0.0245,-0.0249,9.8293,0.6146,-0.0922,-0.7695
1020,1093,862,33.537,32.18,-0.0104,-0.014,9.9028,-0.1035,-0.1495,-0.1106
1025,1108,863,33.601,32.127,-0.0105,0.0105,9.8347,0.4208,0.1078,0.3201
1030,1099,864,33.548,32.125,-0.1037,-0.0395,9.8438,0.7416,1.0608,0.6243
1035,1095,869,33.629,32.187,-0.0806,-0.0875,9.8977,-0.2276,-0.2625,-0.3971
1040,1094,864,33.473,32.166,-0.0278,-0.0286,9.8281,-0.3341,-0.4471,0.0863
1045,1098,861,33.563,32.264,0.0042,-0.0782,9.8583,-0.6396,0.047,-0.0393
1050,1081,867,33.597,32.149,0.0241,0.0383,9.799,0.7123,-0.0413,0.4273
1055,1082,859,33.641,32.249,-0.0634,-0.0335,9.8498,0.2404,-0.835,0.418
1060,1080,864,33.534,32.12,0.0027,0.0322,9.8633,-0.2485,-0.1649,0.8827
1065,1081,863,33.655,32.192,0.0724,-0.0799,9.7953,0.5724,-0.0693,0.6599
1070,1076,860,33.603,32.293,0.0295,0.0057,9.7789,-0.3339,0.3906,0.8225
1075,1072,860,33.638,32.145,-0.0264,0.0767,9.8079,0.2667,0.4615,0.4139
1080,1074,862,33.66,32.208,-0.0147,0.0016,9.8845,-0.6405,0.918,0.5205
1085,1059,866,33.617,32.108,-0.0,0.0345,9.8175,0.0291,-0.7286,-0.5743
1090,1065,858,33.636,32.15,-0.0213,-0.0678,9.7527,1.2923,-0.3527,-0.8621
1095,1064,855,33.6,32.209,-0.023,-0.0305,9.7911,-0.4082,-0.4678,-0.3927
1100,1053,858,33.54,32.187,-0.0456,-0.0864,9.8615,0.4818,0.8785,0.7305
1105,1045,850,33.486,32.193,-0.0498,0.04,9.7658,-0.3565,-0.7309,-0.7075
1110,1047,854,33.611,32.213,0.036,-0.0288,9.8318,0.4842,-0.456,-1.0286
1115,1041,854,33.502,32.158,-0.0189,0.0168,9.8005,-0.5557,-0.2985,0.0855
1120,1031,853,33.474,32.183,-0.0061,0.0683,9.7169,-0.7961,0.5524,-0.6096
1125,1028,851,33.56,32.154,-0.0452,-0.0029,9.7731,-0.3563,-1.1521,-0.0176
1130,1023,843,33.66,32.097,-0.0108,-0.0403,9.8434,0.3775,-0.9793,-0.3428
1135,1008,847,33.681,32.206,0.0525,-0.0024,9.7308,-1.0102,0.3596,-0.1506
1140,1014,846,33.606,32.263,0.1543,-0.0201,9.8095,-0.0573,0.0282,0.5487
1145,1005,843,33.623,32.154,-0.0071,-0.0279,9.8113,-0.1878,-0.4641,0.8032
1150,1002,839,33.526,32.169,-0.0384,-0.0137,9.74,-0.3308,-0.3763,-0.2746
1155,993,843,33.667,32.099,-0.0814,-0.0301,9.7671,-0.1484,0.2704,0.6532
1160,984,839,33.533,32.115,-0.0596,-0.0291,9.8474,0.4254,-0.7679,0.2454
1165,976,840,33.5,32.182,-0.0202,0.0151,9.7844,0.6078,-1.315,-0.287
1170,958,838,33.667,32.167,-0.0269,-0.0287,9.8151,0.8487,-1.0518,-0.1554
1175,950,834,33.505,32.131,-0.1115,0.0157,9.7958,0.3746,-0.194,0.1578
1180,948,838,33.483,32.163,-0.0344,-0.0077,9.8637,-0.7356,0.3635,0.3177
1185,944,832,33.661,32.154,-0.0531,-0.008,9.7484,-0.1376,0.1072,0.9171
1190,930,832,33.454,32.271,0.0501,-0.0294,9.7367,0.2972,0.0748,0.1462
1195,922,836,33.545,32.199,-0.004,-0.0349,9.8316,0.1106,0.1118,-0.5688
1200,914,832,33.565,32.122,-0.0223,0.0229,9.7247,-0.1119,-0.1792,0.247
1205,897,832,33.554,32.099,0.107,-0.0487,9.8437,0.8674,-0.641,0.0108
1210,898,839,33.614,32.268,-0.0182,-0.0293,9.74,-0.12,-0.6031,0.1337
1215,890,825,33.512,32.24,-0.0313,0.0434,9.8381,-0.1815,0.4271,-0.3441
1220,871,834,33.461,32.193,-0.1185,0.0838,9.7493,-0.2336,-0.1882,-0.0733
1225,870,822,33.628,32.145,0.0206,0.0168,9.8257,0.1262,-0.1137,0.5263
1230,844,826,33.56,32.225,0.047,0.028,9.812,0.397,0.0837,0.5464
1235,850,835,33.524,32.2,-0.0592,0.0555,9.8208,0.0309,-0.2021,-0.6436
1240,846,826,33.609,32.169,0.0217,0.0085,9.7201,-0.3808,-0.0823,-0.1796
1245,834,830,33.444,32.122,-0.057,0.0538,9.8415,0.1422,0.3435,1.1899
1250,816,821,33.631,32.18,0.066,0.0165,9.8979,-0.4693,0.0271,-0.4658
1255,809,825,33.548,32.219,-0.0606,0.0109,9.7722,1.0438,0.9725,1.039
1260,803,826,33.711,32.143,0.0052,0.0183,9.8253,-0.3947,-0.3049,0.143
1265,793,822,33.576,32.166,0.0245,0.0383,9.7939,-0.3452,-0.0532,-0.7532
1270,782,823,33.589,32.245,0.0912,-0.0967,9.7075,-0.5142,1.0562,0.0554
1275,774,822,33.608,32.193,0.028,-0.0261,9.6516,1.529,0.3323,-0.1151
1280,770,822,33.604,32.157,-0.0509,-0.1003,9.8353,-1.0046,-0.5071,-0.7949
1285,769,818,33.523,32.085,-0.0697,-0.0438,9.8887,0.7707,0.2745,-0.2006
1290,768,812,33.59,32.173,0.0496,-0.0048,9.8058,0.4638,0.0315,0.2415
1295,751,814,33.613,32.21,-0.0241,0.0309,9.8062,-0.6248,0.4349,0.4318
1300,756,809,33.6,32.197,0.0206,-0.0481,9.8546,-0.9412,0.1949,0.1283
1305,761,812,33.629,32.107,-0.0307,-0.0297,9.7931,0.1597,0.0445,0.4331
1310,744,812,33.613,32.05,0.0254,-0.0311,9.8763,1.2634,-0.5637,-0.5536
1315,745,815,33.67,32.175,-0.0004,-0.0316,9.8532,0.359,0.2327,-0.1335
1320,744,802,33.606,32.252,-0.0267,-0.0706,9.8939,-0.5657,0.0995,-0.1584
1325,748,803,33.575,32.124,-0.0129,-0.0459,9.7887,0.2386,-0.1191,-0.4428
1330,744,800,33.618,32.22,0.0394,0.0267,9.8103,-0.1192,0.0838,0.318
1335,751,803,33.574,32.167,0.06,0.0224,9.752,0.0328,-0.0569,0.6017
1340,747,798,33.655,32.22,0.0317,0.1417,9.9039,0.1428,-0.2991,-0.2407
1345,756,793,33.598,32.158,0.0269,-0.0617,9.8173,-0.5289,0.3912,0.7923
1350,761,787,33.524,32.172,0.014,0.0676,9.7742,-0.0174,0.094,-0.9211
1355,751,789,33.583,32.192,0.0548,-0.0147,9.7649,-0.3509,-0.0474,0.3136
1360,772,793,33.626,32.153,0.0526,-0.0359,9.8459,0.2886,0.3627,-0.71
1365,774,786,33.593,32.119,0.0106,0.0538,9.8257,-0.2136,0.7081,-0.4079
1370,774,777,33.515,32.204,0.0892,0.0048,9.8436,-0.1242,0.6207,0.374
1375,778,773,33.671,32.156,0.0019,-0.0464,9.8364,-0.0667,0.7576,0.1398
1380,789,775,33.617,32.085,-0.0244,-0.0021,9.8704,0.2122,1.474,0.6741
1385,792,770,33.482,32.205,0.0619,-0.0158,9.7286,-0.5916,-0.9825,0.1002
1390,815,765,33.642,32.197,0.0019,0.0376,9.8586,0.4853,-0.9305,-0.2249
1395,815,763,33.527,32.168,-0.0074,0.0727,9.8364,0.3504,0.0035,0.1095
1400,828,757,33.575,32.113,0.0509,0.0535,9.7964,0.2865,-0.1674,-0.1143
1405,842,762,33.561,32.181,-0.0247,0.0468,9.8312,0.7639,-0.1225,-0.4206
1410,854,760,33.543,32.196,0.0475,0.0189,9.802,0.4295,0.1574,-0.8533
1415,860,750,33.52,32.211,-0.0425,0.0833,9.8578,0.0093,-0.1601,0.8968
1420,869,751,33.572,32.248,0.0199,0.0959,9.7231,-0.579,0.1322,-0.0309
1425,898,744,33.525,32.047,-0.045,-0.0034,9.7823,-0.8716,-0.0614,0.3457
1430,910,737,33.627,32.266,0.0507,-0.0104,9.8664,0.2528,0.1314,-0.4463
1435,921,740,33.565,32.132,-0.0016,0.0381,9.7425,0.6062,-0.8352,-0.7102
1440,927,734,33.643,32.114,-0.0217,0.0161,9.837,1.0634,-0.9586,-0.0338
1445,946,733,33.63,32.237,-0.0119,-0.0965,9.8495,-0.2422,-0.8084,0.6301
1450,944,731,33.574,32.269,-0.0822,-0.0486,9.7158,0.7551,0.6285,0.2127
1455,972,732,33.611,32.197,-0.0792,-0.0243,9.8257,-0.1093,0.2972,-1.0329
1460,972,727,33.48,32.231,0.031,0.0578,9.8423,0.7678,0.379,0.0771
1465,985,724,33.539,32.189,0.0294,-0.0317,9.7864,-0.3994,-0.2584,0.467
1470,1005,723,33.528,32.188,0.0428,0.0329,9.8094,-0.2849,0.0849,0.0124
1475,1012,724,33.642,32.22,-0.016,0.051,9.7456,-0.0879,-0.2674,0.4564
1480,1033,717,33.62,32.16,-0.0162,0.0368,9.7121,0.671,0.7605,0.0311
1485,1042,721,33.456,32.217,0.0284,-0.0853,9.7867,0.1243,0.043,0.3358
1490,1059,712,33.543,32.14,-0.0172,0.038,9.889,0.0185,-0.2763,-0.0065
1495,1061,715,33.508,32.144,0.0213,0.1126,9.7636,0.3594,-0.4849,-0.2151
1500,1075,716,33.592,32.237,-0.0356,-0.0461,9.8459,-0.2658,0.2642,-0.9678
1505,1078,706,33.564,32.151,0.0114,-0.0788,9.8305,-0.3391,-0.2122,0.6093
1510,1099,716,33.678,32.118,-0.0183,0.0055,9.7928,-0.2719,0.2986,-0.3584
1515,1101,720,33.621,32.224,0.0373,0.0796,9.7917,-0.6115,-0.7518,0.2564
1520,1115,722,33.562,32.154,0.0514,-0.0833,9.8714,0.1641,0.2614,0.4941
1525,1123,717,33.502,32.205,-0.0038,-0.0014,9.7575,0.8839,-0.9511,0.0815
1530,1131,718,33.548,32.14,-0.0006,-0.05,9.9049,-1.0681,0.7094,0.1362
1535,1135,721,33.541,32.155,-0.0101,0.0405,9.7597,-0.4119,-0.0265,-0.1895
1540,1148,720,33.591,32.104,-0.052,0.0672,9.8347,0.1345,-0.3382,0.3864
1545,1159,721,33.596,32.151,0.0635,0.0246,9.7882,-0.1073,-0.5275,0.1676
1550,1164,726,33.536,32.293,0.035,-0.017,9.8535,0.1798,-0.8393,0.7494
1555,1164,724,33.555,32.147,0.0106,0.0339,9.8297,-0.5752,-0.1271,0.1683
1560,1166,728,33.637,32.133,0.0009,0.0422,9.7922,0.4204,-0.1924,-0.2257
1565,1167,726,33.597,32.274,-0.0557,-0.0067,9.8297,0.2256,0.3352,-0.3036
1570,1182,732,33.567,32.25,-0.0416,-0.0259,9.8203,0.3042,-0.6666,-0.0795
1575,1168,739,33.656,32.186,0.0025,0.125,9.8556,0.1547,-0.5044,-0.4694
1580,1189,742,33.503,32.162,0.044,0.0822,9.8494,-0.0694,-0.4718,-0.0279
1585,1188,748,33.643,32.242,0.0138,-0.0258,9.8092,-0.0617,0.1445,0.2616
1590,1195,751,33.587,32.181,0.0279,-0.0315,9.8006,-0.5173,0.8469,0.5172
1595,1189,753,33.558,32.175,-0.0016,0.0597,9.842,-1.6891,0.7865,-0.5655
1600,1185,755,33.63,32.131,-0.0742,0.0421,9.8376,0.318,0.5986,-0.368
1605,1189,760,33.49,32.119,0.0235,0.0708,9.8023,0.1541,-0.2548,0.2878
1610,1188,765,33.567,32.17,0.0118,-0.0605,9.8669,0.6445,-0.4996,0.4542
1615,1185,772,33.682,32.15,-0.0393,0.0181,9.8267,-0.0101,-0.4589,0.5655
1620,1173,779,33.53,32.141,-0.0099,-0.1046,9.8492,0.421,0.4935,0.6045
1625,1182,779,33.531,32.191,0.0281,-0.046,9.8275,-0.5479,-0.1108,0.1152
1630,1179,780,33.577,32.218,0.0901,0.0043,9.8895,-0.106,-0.032,0.3411
1635,1185,785,33.586,32.178,0.0162,0.011,9.8196,-0.1063,-0.0565,0.0906
1640,1167,790,33.515,32.155,0.0588,0.0282,9.8147,0.0994,0.3573,0.5466
1645,1175,797,33.459,32.242,0.0568,-0.1056,9.7959,0.381,-1.1299,0.7289
1650,1170,804,33.567,32.146,0.0346,0.0163,9.7685,-0.9942,0.0802,-0.9148
1655,1165,803,33.608,32.129,0.0295,0.0463,9.8499,-0.5589,-0.0933,-0.64
1660,1161,805,33.527,32.194,0.0366,0.0042,9.7775,-0.4197,-0.263,0.3635
1665,1163,812,33.553,32.269,-0.0785,0.1061,9.8736,0.1744,-0.2305,-0.012
1670,1157,814,33.555,32.223,-0.059,-0.0342,9.8697,-0.4003,0.3093,-0.3801
1675,1166,815,33.563,32.189,-0.0684,0.0241,9.8255,0.2693,-0.152,1.0168
1680,1149,821,33.572,32.218,0.0545,-0.064,9.829,0.3061,0.5602,0.3875
1685,1154,825,33.594,32.264,0.0761,-0.0685,9.7978,0.0449,0.3818,-1.0924
1690,1140,824,33.552,32.221,0.0357,-0.0309,9.772,-0.6677,0.2083,-0.7752
1695,1147,829,33.64,32.191,-0.003,-0.0174,9.788,-0.459,-0.0631,0.3853
1700,1137,838,33.55,32.097,0.0221,-0.0143,9.8382,-0.1278,0.158,-0.0331
1705,1132,836,33.675,32.184,-0.0568,0.0232,9.7733,0.9963,0.3726,0.1391
1710,1127,841,33.563,32.094,0.0223,0.0221,9.7902,-0.3776,0.3299,0.038
1715,1130,846,33.528,32.133,0.0411,-0.0021,9.8046,-0.3375,-0.1583,0.1469
1720,1116,849,33.719,32.179,0.1268,0.0468,9.8192,0.1741,-0.8601,-0.9407
1725,1119,848,33.614,32.214,0.1401,-0.0197,9.8603,-0.7476,0.2226,-0.2006
1730,1114,846,33.536,32.228,-0.071,-0.0006,9.7771,0.382,0.2321,-0.5851
1735,1114,855,33.613,32.167,-0.1021,-0.0383,9.8545,-0.1201,0.9697,-0.6376
1740,1108,854,33.575,32.106,0.0179,0.072,9.8814,-0.1449,0.5881,0.4642
1745,1106,858,33.584,32.204,0.0514,0.0185,9.899,-0.1753,-0.0656,-0.0686
1750,1117,856,33.592,32.201,0.0307,-0.0504,9.8819,-0.1262,-0.1161,0.1129
1755,1105,864,33.556,32.195,0.0165,0.047,9.8077,1.4813,1.1588,-0.0719
1760,1092,861,33.553,32.153,-0.0245,0.0325,9.7549,-0.8145,1.1863,-0.2968
1765,1103,862,33.582,32.146,-0.0282,0.008,9.8241,-0.88,0.2368,0.7533
1770,1095,865,33.559,32.244,0.0383,0.0016,9.8104,0.0325,0.6432,-0.0356
1775,1100,864,33.625,32.241,-0.0319,-0.0238,9.7696,-0.9247,-0.6641,-0.0088
1780,1092,865,33.544,32.212,0.0132,-0.0042,9.8036,-0.3918,-0.2069,-0.3462
1785,1092,856,33.585,32.25,0.048,0.0627,9.8722,0.0039,-0.1391,-0.1284
1790,1090,862,33.568,32.14,-0.0954,0.0926,9.817,0.03,0.0115,-0.6031
1795,1083,857,33.612,32.214,0.0034,0.055,9.871,0.5018,0.2668,-1.2299
1800,1083,863,33.541,32.215,0.0776,-0.0276,9.8721,-0.1088,0.8011,0.2757
1805,1077,863,33.536,32.122,0.007,0.0126,9.804,-0.5035,0.2925,0.1252
1810,1080,862,33.563,32.164,-0.0455,-0.0113,9.7192,-0.0377,-0.3243,-0.0011
1815,1073,856,33.56,32.156,-0.0435,0.0182,9.7881,-0.2422,0.1926,0.2691
1820,1073,858,33.549,32.138,0.0077,-0.0126,9.7732,-0.5585,-0.4758,0.787
1825,1073,859,33.554,32.212,-0.0276,-0.0749,9.8538,0.248,0.2187,-0.0775
1830,1061,863,33.656,32.195,0.0078,0.0603,9.7471,-0.3131,-0.6813,0.5823
1835,1061,849,33.565,32.193,0.0034,-0.0258,9.8502,0.654,-0.5422,-0.1639
1840,1061,861,33.543,32.145,0.0417,-0.0859,9.912,0.1124,-0.0149,0.6717
1845,1055,858,33.548,32.27,0.014,-0.0372,9.7534,-0.1139,-0.2473,-0.3092
1850,1045,853,33.539,32.15,0.0772,0.001,9.7384,-0.0668,-0.4987,0.6887
1855,1042,852,33.601,32.224,-0.1121,-0.0069,9.8017,0.485,0.2768,-0.891
1860,1035,855,33.569,32.204,-0.0457,-0.0579,9.812,-0.1914,0.7514,-0.3624
1865,1034,851,33.553,32.192,-0.0727,-0.0056,9.8607,-0.223,0.6498,0.2615
1870,1031,848,33.548,32.086,0.0223,-0.017,9.8654,-0.6515,-0.0465,0.2457
1875,1022,845,33.612,32.183,0.1011,-0.0171,9.8078,0.4019,-0.3276,-1.303
1880,1015,843,33.618,32.217,-0.0098,0.0053,9.8021,0.6013,-0.4793,-0.4108
1885,1011,844,33.583,32.245,0.0185,0.0345,9.8187,0.6045,-0.319,-0.6178
1890,1001,846,33.506,32.257,0.0362,-0.0598,9.7616,0.0961,-0.4297,-0.4976
1895,988,842,33.556,32.146,0.0538,0.0048,9.8813,0.0478,0.2523,0.4474
1900,984,848,33.511,32.313,-0.0175,-0.0132,9.8782,-0.7594,-0.0583,-0.2773
1905,986,844,33.652,32.225,0.0351,-0.0004,9.8036,-0.3933,0.2376,1.6388
1910,973,836,33.669,32.143,-0.0607,-0.0844,9.7468,0.1973,-0.9493,-0.2455
1915,962,836,33.584,32.143,-0.0491,0.0358,9.8508,-0.0909,-0.115,0.2316
1920,961,835,33.689,32.198,0.0118,-0.1074,9.7582,-0.3594,0.1215,0.4808
1925,953,837,33.609,32.216,-0.0056,-0.0028,9.8488,0.1177,-0.5566,0.1138
1930,945,840,33.533,32.257,-0.0016,0.0833,9.776,-0.7457,0.8048,-0.063
1935,922,835,33.631,32.173,-0.012,-0.0007,9.8258,-0.5683,0.761,-0.3039
1940,913,837,33.635,32.1,-0.0278,-0.0229,9.8676,-0.9508,0.2687,0.139
1945,903,828,33.598,32.221,0.0696,-0.0205,9.8479,0.8613,0.2005,0.1213
1950,902,830,33.585,32.147,-0.0365,0.0502,9.8156,-0.2359,0.4249,-0.213
1955,886,827,33.6,32.195,-0.0021,-0.1134,9.788,-0.1565,-0.3555,-0.4828
1960,880,828,33.63,32.274,0.1136,-0.0744,9.8288,0.5775,-0.2106,-0.2109
1965,886,834,33.525,32.219,-0.052,0.0059,9.8705,-0.0136,-0.3127,0.9504
1970,870,833,33.497,32.143,-0.0407,-0.0283,9.8353,0.1792,0.5482,-0.1333
1975,858,826,33.659,32.233,-0.081,0.0157,9.8788,0.8416,-0.6513,-0.0593
1980,843,827,33.477,32.255,0.0327,0.0457,9.8286,0.8231,-0.2106,-0.5873
1985,834,829,33.522,32.147,-0.0609,0.0159,9.7958,0.8167,-0.3027,0.5535
1990,825,827,33.578,32.154,-0.0477,0.0991,9.7764,0.0731,-0.3968,-0.3087
1995,808,828,33.517,32.241,0.0198,-0.015,9.8002,0.2588,-0.0527,0.2043
2000,816,821,33.495,32.153,-0.0519,0.0311,9.8517,0.4239,0.3355,0.5141
2005,791,818,33.595,32.138,0.0007,0.0611,9.8104,0.4749,-0.1409,1.0089
2009,796,820,33.552,32.118,-0.1524,0.0613,9.8213,-0.4843,0.0125,0.5044
2015,788,818,33.636,32.195,0.0408,0.069,9.9071,0.5477,0.4973,0.0752
2020,771,820,33.656,32.238,-0.0027,-0.028,9.7753,-0.2976,0.4206,-0.366
2025,794,820,33.559,32.181,0.0281,-0.0897,9.8462,-0.0686,-0.0466,-0.2774
2029,782,823,33.587,32.172,0.0288,-0.0511,9.9196,-0.7189,-0.3223,-0.0284
2035,763,815,33.554,32.151,0.0007,0.0119,9.7711,0.577,-0.0749,0.3507
2040,757,815,33.508,32.155,0.0055,-0.0702,9.8328,-0.0207,-0.0281,-0.1458
2045,761,810,33.577,32.253,-0.0112,-0.0138,9.7778,-0.107,-0.6131,0.5083
2050,758,818,33.538,32.181,0.0241,0.0523,9.8667,0.6223,-0.2687,0.0089
2055,747,805,33.562,32.253,0.0318,0.0779,9.8451,-0.562,-0.3054,0.1092
2060,747,810,33.59,32.205,-0.0229,0.0262,9.823,0.4075,-1.0092,-0.4952
2065,758,807,33.602,32.184,-0.015,-0.1056,9.7746,-0.493,-0.0552,0.4025
2070,742,803,33.599,32.218,-0.1001,-0.0197,9.7792,-0.3622,-0.4892,-0.6434
2075,746,801,33.619,32.115,-0.0302,0.0054,9.7876,0.462,0.7663,0.2915
2080,755,795,33.627,32.113,-0.0038,-0.0197,9.8887,0.3745,0.4535,0.0203
2085,765,795,33.642,32.154,0.0194,-0.0276,9.8601,-0.6614,-0.1261,0.199
2090,756,793,33.575,32.205,0.0165,0.1216,9.7124,-0.6304,-0.7642,0.5167
2095,755,787,33.631,32.229,0.0314,-0.0605,9.7681,0.1616,0.4055,-0.8281
2100,761,792,33.593,32.197,0.0764,-0.0555,9.7802,-0.3437,-0.5638,0.6778
2105,765,781,33.621,32.166,0.1047,0.0517,9.8806,-0.577,-0.0355,-0.0777
2110,769,784,33.609,32.301,0.0721,-0.0164,9.7937,-0.0081,0.7262,-0.5507
2115,776,778,33.629,32.2,-0.0325,0.074,9.81,-0.2349,0.0022,0.8036
2120,788,777,33.525,32.2,0.0419,0.0694,9.7115,0.7215,0.4432,0.963
2125,800,776,33.637,32.136,0.0201,0.038,9.7255,-0.7539,-0.4402,-0.4011
2130,802,768,33.61,32.263,-0.0242,-0.0541,9.8326,-0.8869,0.4609,-0.0709
2135,815,758,33.61,32.131,-0.0256,0.0176,9.7117,0.6016,-0.4139,0.8208
2140,820,764,33.618,32.236,0.0127,0.0225,9.8106,-0.1125,-0.4176,0.8367
2145,831,760,33.582,32.182,-0.0355,-0.0276,9.8706,0.3257,0.1012,-0.2807
2150,852,760,33.519,32.231,0.0059,-0.1047,9.7732,0.1958,-0.1592,-0.2487
2155,850,752,33.581,32.251,-0.0763,0.0423,9.7914,0.0023,-0.2104,0.7506
2160,874,747,33.579,32.262,0.0183,-0.0654,9.7648,0.6092,0.434,0.1054
2165,882,744,33.509,32.247,0.057,-0.014,9.7999,-0.046,0.0217,0.3809
2170,891,744,33.569,32.167,0.0466,0.0145,9.716,0.6889,0.235,-0.288
2175,912,738,33.574,32.169,-0.0293,-0.0394,9.8757,-0.5538,0.1124,0.667
2180,919,734,33.684,32.151,0.0772,-0.0124,9.6813,0.2925,-0.2215,0.0941
2185,934,734,33.53,32.167,-0.0105,-0.1146,9.8822,0.5215,-0.2541,0.0621
2190,945,733,33.584,32.21,0.0016,0.1225,9.8251,0.2145,0.0126,0.138
2195,958,725,33.539,32.138,0.0986,-0.0492,9.7906,-0.6537,0.0037,-0.3857
2200,970,730,33.578,32.158,0.0942,0.0414,9.7274,0.1095,0.4137,-0.0014
2205,981,728,33.563,32.219,-0.0545,0.037,9.7854,0.4284,0.544,-0.0688
2210,1000,728,33.544,32.185,-0.0068,-0.0539,9.8106,-1.0764,0.1611,-0.5134
2215,1013,721,33.554,32.291,0.0022,0.0516,9.8529,0.5347,0.2329,0.9157
2220,1016,712,33.576,32.211,0.0111,-0.0202,9.7088,0.1693,-0.1899,0.1531
2225,1037,717,33.627,32.233,0.035,0.046,9.6852,0.1091,0.5006,-0.1994
2230,1047,714,33.75,32.235,0.0149,-0.0046,9.8106,-0.369,0.5592,0.1212
2235,1059,713,33.654,32.238,0.0897,-0.0377,9.8018,1.1066,-0.3991,-1.5773
2240,1068,716,33.506,32.129,0.0253,0.0875,9.8487,-0.2611,0.4066,-0.9081
2245,1080,709,33.619,32.127,0.0318,0.045,9.8626,-1.3198,-0.1595,-0.6618
2250,1088,710,33.526,32.161,-0.0755,-0.0466,9.7422,-0.1312,-0.1184,-0.3948
2255,1093,714,33.58,32.264,-0.015,-0.0229,9.8344,-0.224,0.4428,-0.1727
2260,1104,714,33.57,32.209,-0.0828,0.0546,9.7795,0.1281,-0.286,-1.2167
2265,1127,713,33.639,32.201,-0.0642,0.0973,9.7096,-0.0154,1.2764,0.3912
2270,1122,718,33.581,32.198,-0.0028,-0.0543,9.8537,-0.0559,-0.0319,0.0643
2275,1143,712,33.514,32.199,-0.0613,-0.0214,9.826,0.1866,-0.3122,-0.0178
2280,1148,717,33.637,32.18,0.1052,0.03,9.7825,-0.8205,-0.7309,-0.4608
2285,1155,719,33.572,32.133,0.0008,0.0315,9.7744,-0.0325,0.4177,-1.0765
2290,1150,719,33.547,32.225,0.0722,0.0125,9.7779,-0.1969,-0.2061,-1.0087
2295,1159,727,33.575,32.227,0.031,-0.0484,9.8526,-0.2047,-0.4247,-0.0157
2300,1175,724,33.567,32.201,0.0379,0.0161,9.7049,0.2695,0.0495,0.8106
2305,1168,728,33.658,32.156,0.0256,-0.0555,9.7213,0.6916,0.6932,0.5923
2310,1172,726,33.54,32.293,-0.0601,-0.0428,9.8041,-0.2075,0.0136,-0.9411
2315,1179,733,33.673,32.202,-0.0459,0.0107,9.7685,-0.015,0.1851,0.6216
2320,1182,735,33.575,32.223,-0.0036,-0.0327,9.8286,0.0655,0.1068,0.2545
2325,1183,738,33.536,32.322,0.0305,-0.025,9.8429,-0.2143,-0.247,0.6892
2330,1192,746,33.603,32.22,-0.0147,-0.0333,9.8176,-1.3593,-0.6637,0.2585
2335,1186,745,33.589,32.144,0.0153,-0.0226,9.7952,0.1182,-0.3327,0.2531
2340,1191,754,33.659,32.183,0.0408,0.0884,9.8589,-0.3014,0.0744,-0.6131
2345,1194,759,33.555,32.184,-0.0682,0.0745,9.7926,-0.3484,0.5141,0.3955
2350,1180,751,33.622,32.207,0.0769,-0.0042,9.7648,0.703,0.2304,-0.1202
2355,1178,766,33.541,32.179,-0.0555,-0.0384,9.8116,-0.7039,1.0315,0.0545
2360,1188,771,33.618,32.211,-0.0624,0.0274,9.8421,0.0809,0.1033,0.9833
2365,1189,769,33.617,32.136,0.0073,-0.0061,9.7217,-0.3733,-0.0228,0.1988
2370,1181,777,33.556,32.184,0.0441,0.0098,9.7916,-0.3043,-0.4072,-0.3743
2375,1179,785,33.594,32.245,0.033,-0.0254,9.8006,0.132,0.3109,-0.1304
2380,1188,778,33.538,32.215,-0.1483,-0.0131,9.7926,0.9178,-0.0976,-0.1968
2385,1175,794,33.625,32.176,0.008,-0.0464,9.8343,0.7065,-0.315,-0.8676
2390,1176,796,33.576,32.191,-0.059,-0.0291,9.8853,0.6867,0.1069,0.027
2395,1170,799,33.567,32.158,-0.0065,0.0544,9.8913,0.5099,-0.6482,0.0434
2400,1165,807,33.591,32.167,0.043,0.0578,9.7613,0.7076,0.9596,-0.5117
2405,1167,807,33.657,32.157,0.0276,-0.0127,9.7241,0.1182,0.2023,-0.8118
2410,1163,814,33.688,32.221,0.0124,-0.0073,9.8741,0.2366,0.01,-0.3477
2415,1154,813,33.5,32.173,-0.0513,-0.0153,9.7584,0.2298,0.1918,0.42
2420,1149,817,33.587,32.165,0.0473,0.0354,9.8117,0.9796,-0.0503,0.8146
2425,1154,828,33.483,32.155,0.0627,0.0057,9.7426,-0.0797,-0.5279,-0.9978
2430,1142,825,33.593,32.18,-0.007,-0.0324,9.8179,0.2188,-0.2371,-0.2557
2435,1146,839,33.656,32.219,-0.0126,0.0217,9.8096,-0.2303,1.4703,0.2836
2440,1138,831,33.558,32.278,-0.0327,-0.0279,9.8344,-0.2859,-0.3918,-0.4865
2445,1133,839,33.558,32.238,0.0447,-0.0363,9.8702,-0.4784,-0.388,-0.0417
2450,1134,836,33.599,32.271,-0.0876,-0.0875,9.8652,-0.1925,-0.4718,0.7761
2455,1131,846,33.565,32.207,0.0062,0.0334,9.6956,-0.1144,0.2523,-0.6522
2460,1127,850,33.632,32.186,0.121,-0.0006,9.8871,-0.0527,0.0333,0.3188
2465,1119,847,33.599,32.171,0.0418,0.0359,9.7944,-0.1097,0.5314,-0.0572
2470,1115,846,33.556,32.176,-0.0163,0.0135,9.8198,-0.1341,0.5438,0.0656
2475,1114,850,33.57,32.252,-0.0787,-0.0534,9.858,0.367,0.3785,-1.0874
2480,1108,857,33.645,32.267,-0.0003,-0.0167,9.8558,0.1498,0.7801,-0.5302
2485,1110,859,33.559,32.172,0.033,0.0479,9.8153,0.5841,-0.376,-0.2092
2490,1104,861,33.63,32.14,-0.0782,-0.0751,9.752,-0.2951,0.5471,0.4595
2495,1100,861,33.603,32.138,-0.0246,-0.0977,9.7064,-0.1654,-0.3313,-0.0739
2500,1095,856,33.539,32.304,0.0108,-0.0415,9.7644,-0.4588,0.4624,-0.4878
2505,1095,858,33.613,32.189,0.1464,0.0307,9.8785,0.6715,-0.4504,0.0753
2510,1101,865,33.592,32.195,0.051,-0.0943,9.8809,-0.117,0.5147,0.2149
2515,1096,863,33.592,32.145,0.0099,-0.0585,9.8216,0.64,0.2942,-0.2563
2520,1092,858,33.541,32.126,0.021,-0.0081,9.8257,-0.0216,0.19,-0.0665
2525,1094,865,33.57,32.101,-0.0529,-0.0017,9.8241,-0.2966,-0.5,-0.7395
2530,1090,864,33.586,32.223,-0.0285,0.0351,9.8381,-0.1799,0.0468,-0.131
2535,1089,866,33.578,32.154,0.0,-0.0012,9.787,-0.4231,-0.2912,-0.3666
2540,1082,861,33.593,32.26,0.1603,0.0239,9.7633,0.2664,0.8563,-0.1825
2545,1075,866,33.534,32.205,-0.0328,-0.1264,9.8493,0.1453,0.5979,0.8471
2550,1080,861,33.554,32.217,-0.0513,0.0755,9.8447,0.108,-0.5675,0.1345
2555,1077,860,33.572,32.181,-0.0383,-0.0865,9.8357,0.4567,-0.0678,0.3517
2560,1077,861,33.626,32.206,-0.0699,0.0171,9.8497,0.1984,-0.9206,-1.132
2565,1076,864,33.604,32.182,-0.0687,-0.0202,9.8766,-0.4464,1.2596,0.0718
2570,1069,863,33.581,32.099,0.1244,0.0262,9.8066,-0.4261,0.5389,0.1732
2575,1067,852,33.616,32.188,0.041,-0.0323,9.8732,0.1806,-1.0283,-0.2331
2580,1058,855,33.546,32.231,0.0455,0.0529,9.902,-0.1438,-0.1338,-1.2483
2585,1060,851,33.604,32.228,0.0606,-0.0432,9.8601,0.2396,0.3478,-1.0143
2590,1049,854,33.606,32.246,-0.0193,0.0166,9.8591,0.0816,0.0728,-0.0656
2595,1046,851,33.663,32.185,-0.0153,-0.0505,9.7179,0.5733,-0.145,0.1465
2600,1048,855,33.645,32.228,-0.0345,0.0733,9.7502,-0.7546,-0.1747,0.065
2605,1047,848,33.559,32.26,-0.0014,-0.0522,9.8833,0.1293,0.076,0.0419
2610,1038,853,33.616,32.19,-0.0524,0.0064,9.8556,0.8292,0.578,0.0977
2615,1028,844,33.565,32.216,-0.0804,0.0003,9.7855,0.1577,0.5391,0.2503
2620,1028,846,33.588,32.237,-0.0517,-0.106,9.8101,0.5825,0.0512,-0.1399
2625,1013,849,33.57,32.193,0.006,0.0382,9.7377,-0.6757,-0.5298,-0.489
2630,1006,843,33.619,32.157,-0.044,0.0062,9.8395,0.8896,-0.2254,0.001
2635,1000,845,33.585,32.208,-0.0155,-0.0295,9.8037,0.4069,-0.6633,0.9915
2640,997,838,33.59,32.214,-0.0501,-0.0568,9.7412,0.8287,0.2284,-0.0759
2645,988,837,33.67,32.178,0.04,-0.0022,9.801,0.1201,0.6722,0.5894
2650,976,842,33.587,32.2,-0.011,-0.0664,9.7919,0.1262,-0.1745,0.2395
2655,975,839,33.613,32.223,-0.0687,-0.0227,9.8643,0.0276,-0.381,0.1451
2660,963,838,33.597,32.261,0.1369,-0.0161,9.8386,0.1122,0.2197,-0.0112
2665,958,839,33.624,32.2,0.033,-0.0442,9.8175,0.2036,0.0694,0.3049
2670,945,834,33.631,32.267,-0.0766,0.0685,9.7904,-0.0854,-0.3022,0.5295
2675,937,834,33.455,32.256,-0.0217,-0.0408,9.8793,0.1602,0.3405,0.1407
2680,919,841,33.69,32.098,0.0772,0.0593,9.8036,0.3701,0.3244,0.0622
2685,913,839,33.609,32.159,-0.0088,0.0624,9.6621,-0.832,0.613,0.011
2690,897,833,33.649,32.205,-0.0303,0.0227,9.8881,-0.3487,-0.3505,-0.5202
2695,890,826,33.549,32.15,0.0366,0.034,9.9163,-1.1348,0.1632,0.6215
2700,881,834,33.587,32.199,0.1424,0.0791,9.7025,0.3787,-0.2785,0.3788
2705,869,833,33.529,32.277,-0.0564,0.0286,9.8486,-0.2297,0.0646,0.2655
2710,866,828,33.625,32.083,-0.0357,0.0019,9.8815,0.8838,0.7628,-0.0987
2715,865,831,33.569,32.351,-0.0124,-0.0357,9.7498,-0.8312,-0.0174,-0.461
2720,845,829,33.612,32.243,0.0138,0.0257,9.8541,0.6919,-0.0498,-0.5169
2725,846,829,33.62,32.202,0.004,0.0123,9.7763,0.1002,-0.0833,0.3434
2730,835,826,33.521,32.208,-0.0009,0.1132,9.8128,0.3896,0.1435,-0.235
2735,816,827,33.602,32.176,-0.0081,-0.0058,9.764,0.5665,0.1527,-0.431
2740,807,826,33.598,32.262,-0.0707,0.001,9.8467,-0.4578,0.0673,0.939
2745,810,822,33.643,32.281,0.0306,-0.0369,9.7631,0.2359,-0.1509,0.028
2750,798,828,33.574,32.175,-0.0389,-0.0021,9.8061,0.5401,-0.2016,0.2811
2755,792,817,33.602,32.19,0.027,0.0135,9.8511,0.6354,0.0065,-0.6447
2760,780,819,33.608,32.222,0.054,-0.0639,9.8983,0.2435,-0.2232,0.0623
2765,768,821,33.543,32.156,0.0069,0.014,9.7666,-0.94,-0.2294,-0.0218
2770,767,822,33.586,32.196,0.0597,0.0305,9.8499,-0.2045,0.6187,-1.1419
2775,757,813,33.578,32.23,0.0014,-0.0228,9.7944,0.0421,-1.3377,0.5094
2780,766,814,33.636,32.274,-0.0526,0.0452,9.8295,0.1331,0.2713,0.0822
2785,771,812,33.545,32.158,-0.0381,-0.0456,9.7941,-0.4928,-0.8667,0.0523
2790,754,807,33.551,32.107,-0.0166,-0.0717,9.7662,-0.3851,0.0651,0.2226
2795,753,807,33.557,32.188,-0.1338,-0.08,9.7852,-0.3085,-0.4451,-0.5913
2800,743,812,33.578,32.218,-0.052,-0.0234,9.7624,-0.9375,-0.3773,0.4077
2805,752,800,33.643,32.163,-0.0084,-0.0453,9.8538,0.6607,-0.1778,0.9879
2810,740,799,33.635,32.171,0.0486,0.0598,9.8339,-1.1011,0.1784,0.455
2815,746,798,33.588,32.205,-0.046,-0.0231,9.881,-0.388,-0.2781,0.2081
2820,741,802,33.553,32.233,0.1008,0.0826,9.7792,0.1803,0.0463,0.458
2825,751,797,33.622,32.158,0.0215,0.0558,9.8243,0.2828,0.5708,0.6818
2830,760,787,33.554,32.083,0.0619,0.0621,9.676,0.0507,-0.9103,0.0819
2835,754,793,33.529,32.187,0.0062,-0.0257,9.8185,-0.2736,-0.0689,0.9554
2840,763,791,33.629,32.183,-0.0053,0.023,9.7974,-0.7988,-0.3656,-0.0557
2845,776,785,33.553,32.184,-0.062,-0.0523,9.8191,0.01,0.1975,0.3389
2850,763,779,33.628,32.231,0.0077,-0.0156,9.7141,-0.5703,-1.1161,0.3752
2855,777,778,33.628,32.199,0.0425,0.0236,9.7839,-0.5852,-0.3422,0.6927
2860,782,776,33.667,32.197,-0.0384,0.077,9.8099,0.0891,0.0753,0.3854
2865,795,779,33.569,32.258,0.0165,-0.0224,9.8139,0.0309,0.5435,-0.225
2870,803,773,33.591,32.16,-0.0394,0.0142,9.8202,-0.1669,0.5146,-0.2861
2875,806,766,33.603,32.234,0.0124,0.0312,9.8539,0.9904,0.1274,0.2093
2880,819,763,33.551,32.204,-0.0275,0.0182,9.843,0.2283,-0.196,0.1882
2885,825,755,33.593,32.213,-0.0326,0.124,9.8966,-0.2154,0.4637,0.1909
2890,840,760,33.738,32.16,-0.0322,0.0182,9.8705,0.3534,-0.1962,-0.1084
2895,849,756,33.52,32.279,0.0634,0.0176,9.8059,-0.8364,-0.5042,-0.4757
2900,856,748,33.62,32.256,0.024,-0.0688,9.8719,-1.0341,-0.8745,0.5331
2905,866,743,33.643,32.177,0.028,-0.0794,9.818,0.2947,0.3554,-0.4722
2910,878,745,33.582,32.157,-0.0267,-0.0272,9.8817,0.0453,-0.2039,0.1034
2915,896,745,33.603,32.192,-0.048,-0.0394,9.8038,0.0546,0.1472,-0.1824
2920,909,738,33.543,32.16,-0.005,-0.0155,9.8054,-0.0177,-0.1776,-0.1062
2925,923,736,33.514,32.181,-0.0192,-0.0196,9.9157,0.6247,0.1907,0.6044
2930,938,734,33.65,32.116,-0.092,-0.0539,9.7487,0.0967,0.3085,0.5115
2935,950,731,33.579,32.111,0.0649,0.0317,9.8037,0.312,0.4982,-0.0043
2940,962,723,33.584,32.224,0.0207,0.0101,9.8409,-0.1223,-0.0602,-0.2547
2945,979,726,33.602,32.229,-0.0011,-0.0037,9.7715,0.4612,-0.21,0.2958
2950,992,725,33.645,32.278,0.0347,-0.0368,9.7048,-0.1295,0.1467,-0.9083
2955,994,726,33.557,32.238,-0.074,-0.0338,9.7237,-0.1284,0.2049,-0.5899
2960,1011,713,33.485,32.161,0.1034,-0.0366,9.8185,0.7917,0.8188,0.001
2965,1031,714,33.596,32.226,0.0287,-0.0693,9.8399,-0.2083,1.0721,0.0027
2970,1044,713,33.603,32.139,0.0437,-0.0185,9.8595,0.0275,-0.0234,-0.4578
2975,1059,717,33.534,32.289,-0.023,0.0118,9.7641,-0.0135,0.4087,0.5583
2980,1059,712,33.539,32.151,0.052,-0.0002,9.7182,-1.0911,-0.7104,0.3362
2985,1072,720,33.554,32.17,0.0574,-0.0065,9.8042,-0.5365,0.4159,-0.0424
2990,1086,718,33.562,32.138,0.0265,0.0071,9.7631,0.7768,0.3904,1.0493
2995,1094,713,33.614,32.228,-0.0732,-0.0355,9.7347,-0.4213,0.4058,-0.7614
3000,1107,715,33.593,32.165,-0.0372,-0.0104,9.7709,-1.1107,-0.7824,-0.351
3005,1113,718,33.607,32.185,0.0487,-0.0582,9.8134,0.1505,0.0397,-0.0313
3010,1121,716,33.648,32.17,0.0055,0.1172,9.8466,-0.6151,-0.5217,0.7265
3015,1136,720,33.645,32.257,0.0275,0.0095,9.7763,0.1652,-0.0168,0.1903
3020,1146,723,33.509,32.208,0.0235,0.0229,9.8355,0.0415,-0.0502,0.049
3025,1144,715,33.562,32.18,0.0597,-0.055,9.7854,-0.453,-0.5776,0.2891
3030,1150,711,33.602,32.194,-0.0206,0.0126,9.7914,0.1162,0.6262,-0.213
3035,1158,719,33.622,32.156,0.0336,-0.0708,9.7506,0.03,-0.2938,-0.0232
3040,1155,725,33.697,32.186,-0.0259,-0.0949,9.8187,-0.647,-0.6112,-1.0791
3045,1167,726,33.608,32.153,0.045,-0.0166,9.7929,0.4741,0.0022,0.5897
3050,1162,729,33.505,32.172,-0.0397,0.0257,9.801,0.9366,-0.0155,0.5849
3055,1170,736,33.618,32.263,-0.0966,0.0308,9.8653,-0.0555,-0.4378,-0.1029
3060,1187,740,33.568,32.224,0.0668,-0.0528,9.8326,-0.2672,-0.8093,-0.2971
3065,1179,742,33.552,32.178,0.0564,0.0474,9.8116,0.995,1.2243,-0.4564
3070,1188,745,33.609,32.227,0.0124,0.0349,9.78,0.2985,-0.7807,-0.5729
3075,1182,744,33.717,32.176,0.0286,-0.0784,9.7682,0.3005,-0.4153,-0.0093
3080,1190,746,33.566,32.243,0.0215,0.0079,9.8017,0.401,-0.6378,0.3002
3085,1195,753,33.635,32.241,-0.0536,0.0669,9.7232,0.0096,0.2819,0.5375
3090,1179,755,33.64,32.328,-0.0325,-0.0006,9.8313,0.5477,-0.3432,0.3536
3095,1188,763,33.539,32.174,0.0457,-0.0406,9.7302,1.1538,-0.5463,-0.5543
3100,1177,765,33.716,32.192,-0.0111,0.0631,9.8074,0.285,-0.6359,0.2441
3105,1182,775,33.628,32.153,0.0308,-0.0301,9.7446,-0.9948,-0.0066,-0.1726
3110,1180,772,33.679,32.18,-0.0503,-0.0045,9.7172,-0.1371,-0.0453,-0.9914
3115,1185,776,33.615,32.088,-0.0468,0.0547,9.8227,0.2727,0.1966,0.6535
3120,1185,783,33.549,32.217,0.0894,-0.055,9.8198,-0.0807,-1.3092,-0.1286
3125,1172,786,33.531,32.222,0.0151,0.0498,9.7846,0.1073,0.2242,0.9039
3130,1178,797,33.583,32.21,-0.0522,-0.0473,9.7527,-0.6124,0.4369,0.5762
3135,1173,796,33.598,32.224,0.0917,0.0322,9.7723,-0.1748,0.2685,-0.0152
3140,1170,802,33.569,32.25,-0.0728,0.0585,9.7842,-0.2204,-0.3591,-0.2254
3145,1174,811,33.545,32.319,-0.0064,0.0252,9.7728,-0.1618,0.3435,0.0714
3150,1171,809,33.571,32.221,0.0396,0.021,9.8153,0.5225,0.7527,0.2256
3155,1149,815,33.517,32.245,-0.1115,-0.1187,9.8069,-0.3288,0.3309,0.1286
3160,1142,820,33.579,32.262,0.0483,-0.0511,9.7729,-0.1356,-0.1322,-0.7556
3165,1144,824,33.562,32.152,-0.032,0.0114,9.797,-0.231,0.4507,0.1299
3170,1147,823,33.535,32.266,-0.0297,-0.0011,9.8907,0.4405,0.1646,0.5736
3175,1156,823,33.634,32.186,0.1057,-0.0177,9.8388,-0.5587,-0.6255,0.6325
3180,1140,831,33.594,32.169,-0.0313,0.1438,9.753,0.1447,-0.3245,0.2021
3185,1139,831,33.645,32.177,0.0083,-0.0353,9.8306,0.4196,0.2222,0.1464
3190,1131,839,33.601,32.252,0.0279,0.0305,9.7555,0.1116,0.7808,0.0222
3195,1124,844,33.697,32.222,0.0934,-0.0473,9.7889,-0.226,-0.4196,-0.2127
3200,1127,842,33.603,32.178,-0.0742,0.0066,9.8187,0.7175,0.4387,-0.9216
3205,1129,842,33.473,32.142,0.0084,-0.0741,9.7512,-0.4872,0.3117,-0.1863
3210,1113,853,33.652,32.185,-0.0695,-0.0728,9.8246,0.5646,0.0374,-0.2851
3215,1117,848,33.582,32.159,0.0784,0.0199,9.819,0.0245,0.2865,-0.8956
3220,1110,852,33.582,32.225,0.1373,-0.0126,9.8455,0.553,0.5239,-0.275
3225,1110,858,33.614,32.183,0.0229,-0.0355,9.7557,-0.1153,-0.5387,0.1654
3230,1107,850,33.616,32.118,-0.0348,0.0372,9.8791,0.0557,0.552,-0.1422
3235,1105,857,33.621,32.127,0.0444,-0.0804,9.8886,-0.1983,0.6438,-0.4018
3240,1106,855,33.586,32.124,-0.0268,0.0231,9.8708,1.0974,-0.0411,-0.375
3245,1105,861,33.559,32.143,-0.0254,0.0324,9.7566,0.1127,0.2261,-0.1543
3250,1095,859,33.64,32.223,0.018,-0.0337,9.8198,0.161,-0.2407,0.434
3255,1103,864,33.572,32.154,0.0176,0.0448,9.8468,-1.3561,-0.5947,-0.013
3260,1085,866,33.504,32.276,0.0321,-0.0026,9.8407,0.1402,0.3179,-0.1414
3265,1101,864,33.611,32.233,-0.0591,-0.0714,9.8015,-0.5781,0.2416,-0.1892
3270,1087,865,33.582,32.246,0.0667,-0.0076,9.7693,0.3526,0.4043,0.3357
3275,1085,861,33.644,32.167,0.0753,-0.0368,9.8573,0.0499,0.278,-0.2877
3280,1085,863,33.518,32.207,0.0451,-0.0462,9.7746,-0.2634,0.0896,-0.2031
3285,1088,864,33.609,32.229,0.0766,-0.0548,9.8081,0.2905,-1.0849,0.2065
3290,1089,859,33.607,32.189,0.0111,-0.0348,9.7972,-0.0679,1.0398,-0.8752
3295,1085,862,33.594,32.221,0.0286,-0.0284,9.7548,0.6403,-0.2613,0.2458
3300,1074,863,33.577,32.175,0.0617,0.0154,9.813,0.9714,-0.0663,0.3163
3305,1078,858,33.554,32.27,-0.0679,-0.0411,9.8316,-0.0354,0.1537,-0.4737
3310,1065,855,33.529,32.202,-0.0257,0.0799,9.8434,-0.0492,-0.3421,0.0224
3315,1069,859,33.583,32.214,-0.0733,0.0245,9.7467,0.2391,0.3236,0.2558
3320,1066,850,33.624,32.196,0.0479,-0.0462,9.7694,0.8486,0.3385,0.0683
3325,1056,859,33.544,32.183,0.0509,-0.0,9.806,-0.2534,0.9175,-0.0322
3330,1053,858,33.584,32.231,-0.1212,0.0029,9.7904,0.2297,0.2019,0.572
3335,1048,854,33.613,32.102,-0.0243,-0.0161,9.8006,-0.7207,-0.6536,0.8399
3340,1050,858,33.644,32.124,-0.0106,0.0121,9.7923,0.6823,-0.0295,-0.293
3345,1029,850,33.633,32.156,-0.1011,0.0362,9.8553,0.6872,-0.1901,-0.0881
3350,1035,849,33.569,32.322,0.0553,-0.0142,9.9204,0.1774,0.2851,0.3404
3355,1026,850,33.619,32.239,-0.0156,0.0393,9.8526,-0.2979,0.0104,0.1442
3360,1023,852,33.751,32.128,-0.0308,-0.0192,9.8126,0.402,0.6311,0.0451
3365,1015,848,33.486,32.148,-0.02,-0.0066,9.8119,-0.2736,-0.123,0.1349
3370,1003,850,33.565,32.258,-0.0902,0.0636,9.8557,0.3809,-0.383,0.7617
3375,996,849,33.55,32.135,-0.0266,-0.0502,9.8143,0.4405,-0.4616,-0.675
3380,987,844,33.547,32.092,-0.0269,0.0354,9.837,0.0563,-0.5296,-0.2065
3385,989,845,33.554,32.162,0.0017,0.0236,9.9269,-0.2671,0.7964,-0.6505
3390,981,841,33.611,32.213,-0.0518,0.0608,9.756,-0.1932,0.5733,-0.018
3395,966,841,33.651,32.235,0.0302,0.0161,9.8291,-0.1798,-0.9044,0.1626
3400,961,837,33.653,32.168,0.0949,-0.078,9.7802,0.439,0.2345,-0.4534
3405,958,834,33.563,32.185,-0.0619,0.0413,9.7929,-0.0387,0.5193,-0.5855
3410,957,838,33.546,32.129,0.0222,0.066,9.7429,0.019,0.1446,-0.0386
3415,940,837,33.632,32.265,-0.0861,0.0145,9.9133,-0.7556,-0.9194,0.787
3420,923,838,33.627,32.193,0.0493,-0.1266,9.8722,0.3215,0.2705,-0.1158
3425,931,836,33.708,32.045,-0.0977,-0.0379,9.7654,0.0635,0.0992,0.8525
3430,914,836,33.584,32.193,0.0064,0.0166,9.7897,-0.4702,-1.2534,0.3152
3435,896,836,33.622,32.25,-0.0734,-0.0395,9.9089,-0.0156,0.5537,-0.1424
3440,895,829,33.558,32.13,-0.0541,-0.014,9.839,0.3605,-0.1768,-0.5465
3445,891,833,33.544,32.219,-0.0679,-0.0282,9.7859,0.6348,0.4529,0.0671
3450,872,833,33.631,32.051,0.0494,0.0591,9.8128,0.7896,0.1343,-0.5975
3455,872,825,33.553,32.233,0.0338,0.0255,9.7946,-0.4507,-0.6984,0.079
3460,849,835,33.567,32.185,0.0105,0.0444,9.8574,0.0706,-0.9444,1.4325
3465,846,828,33.603,32.252,-0.0124,0.0258,9.7957,-0.469,-0.4043,-0.1697
3470,835,828,33.61,32.267,-0.0739,-0.0244,9.8886,-0.1232,0.4052,0.0058
3475,823,826,33.633,32.285,-0.019,-0.0526,9.7795,0.7346,0.0315,0.4124
3480,819,829,33.523,32.253,0.0615,0.0549,9.8402,0.3866,0.1861,0.4626
3485,812,822,33.59,32.139,0.1525,-0.0535,9.857,-0.4669,-0.7552,-0.1647
3490,797,825,33.556,32.286,-0.0325,-0.0435,9.7904,-0.58,0.7282,-0.5301
3495,794,824,33.553,32.172,0.0248,-0.0243,9.7459,-0.3934,0.1717,0.013
3500,784,824,33.657,32.202,0.0451,0.0029,9.8311,-0.0089,-0.1977,-0.0014
3505,783,822,33.584,32.142,-0.0063,0.0585,9.7933,-0.9616,-0.1564,0.61
3510,768,822,33.57,32.19,0.0217,-0.0098,9.836,-0.5028,-0.3737,0.6302
3515,773,818,33.506,32.275,-0.0556,-0.0109,9.7856,0.3837,0.0317,-0.5948
3520,763,813,33.529,32.291,0.0254,-0.0042,9.8119,0.0971,0.2769,-0.061
3525,759,813,33.617,32.279,0.0251,0.0074,9.8908,0.4883,0.3126,0.4768
3530,753,814,33.729,32.138,-0.0988,-0.0658,9.8283,0.2217,0.1865,-0.5286
3535,756,814,33.631,32.264,0.0246,0.028,9.7705,0.3826,0.9857,0.2669
3540,753,810,33.502,32.174,0.0357,0.0169,9.7759,0.4774,0.0618,0.5522
3545,751,808,33.531,32.222,-0.0234,-0.0531,9.8362,-0.6091,-0.3056,1.1161
3550,751,808,33.613,32.2,0.0514,0.0122,9.7583,0.2161,-0.5042,1.1757
3555,754,806,33.587,32.105,0.042,-0.0057,9.8018,-1.0727,-0.455,-0.9255
3560,743,805,33.62,32.212,0.0781,-0.0724,9.8588,-0.0266,-0.4309,-0.2671
3565,742,798,33.561,32.167,0.0763,0.0295,9.8053,-0.157,-0.0121,0.6721
3570,751,795,33.531,32.163,-0.1435,-0.0318,9.8845,0.3308,-0.4948,-0.9931
3575,758,792,33.556,32.239,0.0135,0.0845,9.8084,0.3127,-0.0572,-0.2229
3580,763,794,33.645,32.233,0.0401,-0.029,9.7659,0.8453,0.1475,0.8515
3585,758,791,33.688,32.193,0.0432,-0.0066,9.8693,-0.6695,-0.2668,0.2558
3590,768,781,33.614,32.184,0.0376,0.0267,9.8568,0.2733,0.0314,0.1789
3595,771,785,33.577,32.317,-0.0499,0.036,9.7564,-0.0629,-0.4632,-0.9583
3600,803,778,33.624,32.274,0.0509,0.034,9.7929,-0.042,0.6314,-0.0343
3605,796,780,33.556,32.279,-0.0208,0.0438,9.7584,0.4131,-0.4,0.3985
3610,803,774,33.532,32.17,-0.0126,0.0151,9.8503,0.2545,0.9446,0.6879
3615,800,768,33.604,32.178,0.0823,0.0115,9.8377,-0.3531,0.8892,0.0211
3620,818,765,33.689,32.21,0.0288,-0.0136,9.839,-0.4135,1.0471,0.1768
3625,823,765,33.634,32.179,0.0021,0.0284,9.7952,0.7583,-0.8682,0.3413
3630,830,761,33.55,32.236,-0.0119,-0.002,9.8064,-0.379,0.8637,0.0548
3635,845,753,33.573,32.225,-0.0173,0.0677,9.8693,0.7691,0.7042,-0.385
3640,860,752,33.52,32.232,-0.0785,-0.048,9.7193,0.1826,0.9576,1.0194
3645,860,745,33.656,32.216,0.0679,-0.0254,9.7949,-0.073,-0.5379,0.3369
3650,876,750,33.544,32.168,0.0315,0.027,9.8983,0.425,0.3145,0.3063
3655,892,746,33.553,32.207,-0.007,0.0483,9.7527,0.0733,-0.6677,0.4339
3660,907,740,33.628,32.223,-0.0311,0.0027,9.8431,0.6406,-0.5035,-0.6884
3665,910,741,33.634,32.269,0.0458,0.0328,9.8119,-0.2604,-0.6274,-0.3563
3670,930,728,33.67,32.17,-0.0339,-0.0179,9.8051,0.6916,-1.0684,-0.0903
3675,943,730,33.422,32.218,-0.045,0.0659,9.8312,0.0081,0.2743,-0.6963
3680,955,729,33.559,32.114,0.04,-0.0007,9.8247,-0.6835,-0.7198,0.0616
3685,957,730,33.53,32.18,0.057,-0.0091,9.7676,-0.7174,-0.1844,-0.5733
3690,979,726,33.673,32.197,-0.0313,0.0179,9.8273,-0.4311,-0.5958,-0.2195
3695,992,723,33.578,32.243,0.083,-0.002,9.7534,-0.6517,-0.224,-0.2183
3700,1003,719,33.593,32.251,-0.0557,-0.0152,9.866,-0.4304,0.0224,0.7563
3705,1017,722,33.533,32.217,0.0662,-0.0406,9.74,-0.4807,-0.8809,0.2504
3710,1031,715,33.567,32.232,-0.0228,-0.0115,9.879,-0.4449,0.6412,-0.4143
3715,1048,719,33.552,32.109,0.0168,0.012,9.8301,0.039,0.0521,-0.4641
3720,1057,718,33.571,32.302,-0.0161,0.0139,9.7896,0.2558,0.3823,0.7443
3725,1067,713,33.62,32.174,-0.0857,-0.0366,9.8694,0.3323,0.3105,0.5975
3730,1078,717,33.637,32.179,0.0902,-0.0211,9.8301,-0.4115,-0.2742,-0.1181
3735,1094,715,33.546,32.169,-0.03,0.0848,9.8581,0.3295,-0.2517,-0.6461
3740,1093,716,33.709,32.226,0.0365,0.0541,9.8505,-0.3115,-0.4534,-0.3057
3745,1110,717,33.57,32.275,0.031,0.0121,9.7891,-0.1283,-0.2466,-0.0276
3750,1118,717,33.616,32.256,-0.0647,-0.0558,9.8235,-0.6017,-0.6441,-0.5142
3755,1119,717,33.631,32.106,0.0151,-0.0384,9.7823,-0.3188,0.5437,0.6144
3760,1133,714,33.535,32.2,-0.0204,0.0856,9.7365,-0.218,0.9821,1.5472
3765,1140,724,33.465,32.185,-0.0051,-0.0076,9.8139,-0.9825,0.3531,0.3083
3770,1146,717,33.567,32.233,-0.0381,-0.02,9.8487,0.2841,-0.1447,0.4014
3775,1155,714,33.533,32.204,-0.0136,0.0714,9.7233,-0.1356,0.1719,-0.6123
3780,1160,723,33.612,32.166,-0.0048,-0.0617,9.801,0.0015,0.8485,-0.4767
3785,1163,726,33.644,32.177,-0.0554,-0.0405,9.7764,0.0073,-0.5727,0.6717
3790,1173,729,33.575,32.197,0.0284,-0.0082,9.8437,1.0958,0.037,0.7344
3795,1177,731,33.579,32.183,-0.0738,-0.021,9.7075,-0.8969,-1.069,-0.4406
3800,1173,737,33.682,32.19,-0.074,0.0199,9.8491,-0.5339,0.3969,0.212
3805,1188,736,33.735,32.182,-0.0689,0.0223,9.683,0.006,0.1419,0.3255
3810,1179,739,33.579,32.224,-0.1293,-0.0186,9.8277,0.1506,-0.1448,0.0791
3815,1184,745,33.616,32.182,0.0054,-0.0156,9.8348,0.2097,-0.09,0.0693
3820,1185,748,33.573,32.265,0.0606,0.0183,9.8052,-0.9338,0.6811,0.6163
3825,1179,756,33.591,32.234,-0.0993,0.0173,9.841,-0.428,-0.9434,0.2424
3830,1188,754,33.606,32.262,-0.0179,-0.0935,9.8744,-0.7523,-0.8083,-0.5334
3835,1199,752,33.656,32.344,0.0225,-0.0312,9.78,0.1388,-0.2105,-0.323
3840,1194,766,33.594,32.232,0.0103,0.0708,9.7434,-0.0229,0.0248,-0.0136
3845,1179,766,33.647,32.241,-0.0439,0.0314,9.9407,0.1573,-0.2512,0.4809
3850,1177,770,33.538,32.221,0.0731,-0.005,9.7745,-0.1241,0.1898,0.2072
3855,1183,785,33.664,32.19,0.0664,0.0154,9.7543,0.658,0.0428,-0.3032
3860,1174,780,33.593,32.239,-0.0084,-0.0826,9.8137,0.5097,-0.571,0.2443
3865,1175,782,33.554,32.26,0.0823,0.0597,9.7233,0.216,0.1963,-0.2302
3870,1171,789,33.613,32.25,0.0486,-0.0543,9.793,-0.2679,-0.3686,0.0096
3875,1168,795,33.624,32.239,0.0797,-0.0372,9.7659,0.9364,0.5197,0.2645
3880,1168,802,33.659,32.251,-0.0102,-0.0719,9.8413,-0.4428,-0.1662,-1.0287
3885,1169,808,33.67,32.163,0.0277,0.0501,9.8309,-0.7182,-0.6673,0.2492
3890,1163,812,33.602,32.269,-0.0009,-0.0226,9.7299,-0.024,0.0072,0.4735
3895,1159,813,33.544,32.167,0.053,-0.0474,9.7727,-0.1969,-0.0596,0.183
3900,1155,815,33.589,32.231,0.048,-0.0421,9.8533,0.8809,-0.5768,-0.2837
3905,1150,815,33.626,32.104,0.0801,-0.1347,9.9322,-0.2714,0.8682,0.2951
3910,1154,823,33.677,32.128,-0.0469,-0.0783,9.8378,-0.1774,-0.4409,-0.58
3915,1142,832,33.587,32.156,0.0329,-0.0381,9.7699,-0.8322,-0.2627,0.2591
3920,1141,832,33.595,32.138,-0.0516,0.004,9.7746,-0.2751,-0.2715,-0.303
3925,1136,834,33.641,32.252,-0.0951,-0.0228,9.7716,-0.1499,-0.0106,-0.2181
3930,1132,829,33.605,32.227,0.0084,0.0621,9.7869,-0.1969,-1.104,0.4092
3935,1133,837,33.531,32.236,0.0315,-0.0237,9.8132,0.2607,-0.4086,0.5168
3940,1127,845,33.591,32.288,0.0391,-0.0476,9.785,-0.7351,-0.3271,-0.0971
3945,1124,850,33.62,32.216,0.0098,-0.0516,9.803,0.4211,0.621,-0.6497
3950,1125,851,33.618,32.225,0.0321,0.0356,9.8082,-0.1547,0.3634,-0.6089
3955,1121,847,33.593,32.21,-0.0013,0.0418,9.736,0.7395,0.3878,0.1022
3960,1107,856,33.601,32.217,0.0305,-0.0053,9.8514,0.6921,-0.1494,0.3199
3965,1119,858,33.533,32.16,-0.1184,0.0433,9.7169,-0.5245,0.9327,0.219
3970,1113,856,33.657,32.168,0.0615,-0.0284,9.8605,0.2297,0.1438,0.3077
3975,1111,857,33.654,32.113,0.0606,0.0453,9.7492,-0.1321,-1.0457,-0.5521
3980,1100,858,33.635,32.23,-0.0097,0.0475,9.8322,0.0787,0.1188,0.201
3985,1100,862,33.58,32.166,-0.011,-0.0388,9.7777,-0.4788,-0.2792,0.8228
3990,1101,866,33.596,32.267,-0.0152,-0.0347,9.9058,0.3511,0.0882,0.4688
3995,1103,866,33.544,32.172,0.043,0.0321,9.7173,-0.3261,0.3896,0.534
4000,1095,862,33.512,32.267,-0.0666,-0.0325,9.8028,-0.8136,0.4893,-0.4608
4005,1094,862,33.576,32.239,0.0286,-0.0614,9.8293,-0.1805,0.7409,0.9861
4010,1081,860,33.585,32.306,0.0364,-0.0309,9.8781,0.7173,-0.5268,-0.5353
4014,1097,862,33.598,32.224,-0.0331,0.0832,9.9276,0.6585,-0.8914,0.086
4019,1085,861,33.58,32.192,-0.0378,0.0624,9.7274,0.1623,-0.0817,-0.0548
4025,1076,860,33.567,32.193,-0.0005,-0.0079,9.8199,-0.3045,-0.5303,-0.812
4030,1079,862,33.6,32.257,0.0471,-0.0216,9.7268,-0.4554,-0.7594,-0.6256
4035,1080,859,33.691,32.248,0.0313,0.0229,9.8006,0.0151,-0.0534,0.497
4040,1074,864,33.645,32.245,0.0009,-0.0591,9.8044,1.2182,-0.0103,0.1812
4045,1074,855,33.469,32.233,-0.0569,-0.0424,9.7709,0.8365,0.1973,-0.1861
4050,1071,861,33.602,32.209,-0.012,0.0024,9.8239,-0.3206,0.3426,-0.1688
4054,1075,860,33.596,32.275,0.0022,-0.0349,9.8149,-0.0908,-0.139,-0.3326
4059,1062,863,33.561,32.194,0.0388,-0.1,9.7538,-0.2223,-0.7183,0.1093
4065,1060,859,33.584,32.141,0.0316,-0.0304,9.7696,0.1421,0.407,0.3683
4070,1065,855,33.611,32.249,-0.0102,-0.0198,9.7921,0.5196,0.5146,-0.4944
4075,1055,859,33.581,32.242,-0.0772,-0.0771,9.7917,0.5671,-0.4105,0.2922
4080,1051,854,33.683,32.204,-0.001,0.0072,9.7967,0.5942,-0.5438,0.35
4085,1039,853,33.612,32.339,-0.1065,-0.0349,9.7787,-0.4856,-0.201,-0.1089
4090,1048,855,33.473,32.144,-0.0238,-0.0296,9.7886,0.0644,0.7456,-0.5423
4094,1024,853,33.626,32.196,-0.0415,-0.0178,9.7766,-0.7242,-0.009,0.2956
4100,1026,854,33.611,32.245,0.1292,-0.0394,9.7922,-0.696,0.1761,-0.9203
4105,1023,844,33.569,32.258,0.0155,0.0064,9.8759,0.9134,-0.1894,0.2406
4110,1027,846,33.586,32.179,-0.0142,0.0144,9.8156,-0.4662,0.2031,-0.8124
4115,1009,853,33.56,32.148,0.0265,-0.0007,9.7861,-1.1538,0.2874,0.2788
4120,1005,845,33.669,32.179,0.0066,0.0316,9.7469,0.0078,-0.0171,0.6137
4125,995,849,33.593,32.239,0.0134,-0.0734,9.8374,0.2867,0.0569,-0.4561
4130,989,838,33.479,32.129,0.0499,-0.0153,9.7612,-0.1762,0.079,-0.2185
4135,976,841,33.579,32.188,-0.0363,-0.0408,9.8935,-0.197,0.7489,-0.2914
4140,971,841,33.541,32.136,-0.078,0.0341,9.8789,0.2039,-0.749,-0.3335
4145,962,843,33.62,32.24,0.0497,-0.0842,9.7923,0.3593,0.6159,0.2243
4150,950,838,33.702,32.179,-0.0104,0.0435,9.7692,0.2383,0.214,-0.5625
4155,950,831,33.59,32.25,-0.0749,-0.0654,9.7747,-0.431,-0.0311,-0.5715
4160,936,834,33.54,32.209,-0.0087,-0.0507,9.6995,0.282,0.0935,0.7309
4165,940,837,33.651,32.194,0.0004,0.021,9.7615,0.1705,0.1782,0.9847
4170,917,839,33.632,32.165,0.0439,0.0861,9.7539,-0.1098,0.3633,0.106
4175,900,833,33.608,32.317,-0.0343,0.03,9.8709,0.6424,-0.6926,0.3815
4180,896,828,33.664,32.206,-0.0293,0.0783,9.8433,-0.4898,0.2821,-0.4715
4185,889,834,33.559,32.19,0.1239,0.0245,9.8761,0.1406,-0.0069,-0.0657
4190,885,825,33.578,32.096,-0.0295,0.0504,9.7881,-0.7147,0.1432,-0.1865
4195,876,832,33.596,32.151,-0.0019,0.0417,9.7367,0.2728,-0.0177,-0.5172
4200,862,832,33.578,32.212,0.0036,0.0123,9.8695,0.0863,-0.2074,0.5145
4205,854,826,33.627,32.198,0.0363,0.0262,9.8418,-0.1002,-0.1362,-0.8085
4210,841,828,33.574,32.219,-0.0461,-0.051,9.8208,-0.2212,0.0166,-0.3813
4215,830,827,33.687,32.228,-0.0254,0.0365,9.7719,-0.1122,0.5247,-0.5182
4220,822,828,33.598,32.126,-0.0931,-0.0335,9.8146,-0.2667,0.437,-0.0961
4225,820,829,33.568,32.115,0.0157,-0.1066,9.8683,-0.1175,-0.5634,-0.4347
4230,808,828,33.636,32.188,0.0132,0.0318,9.865,0.4167,-0.749,-0.0535
4235,797,820,33.604,32.099,-0.0861,0.024,9.8245,-0.2,-0.8444,-0.4295
4240,787,819,33.561,32.163,0.0362,0.043,9.8446,0.0766,0.3378,-0.2327
4245,789,823,33.664,32.217,-0.027,-0.0098,9.832,0.8281,-0.0167,-0.0684
4250,778,820,33.583,32.196,-0.0363,-0.0041,9.8073,-0.3456,0.0283,0.0855
4255,776,819,33.583,32.127,0.0424,-0.0447,9.8481,0.0006,0.0841,0.0108
4260,769,815,33.61,32.219,0.0037,0.0073,9.7567,-0.288,-1.0277,-0.8808
4265,758,816,33.665,32.12,-0.1123,0.0639,9.7151,0.3507,-0.0771,-0.2926
4270,762,815,33.582,32.203,0.1066,0.0663,9.741,0.0126,0.0639,-0.0364
4275,758,814,33.681,32.112,0.0514,0.0482,9.8904,-0.3419,-0.6005,0.1677
4280,750,809,33.663,32.303,-0.0164,-0.0155,9.7997,1.0579,-0.659,-0.3211
4285,752,808,33.641,32.191,0.0641,-0.0101,9.8561,-0.5848,0.5569,0.1352
4290,742,809,33.557,32.211,-0.0088,-0.0075,9.8162,0.9342,-0.1022,-0.4104
4295,743,803,33.577,32.229,0.0589,-0.0245,9.7937,0.2077,0.1711,0.6069
4300,746,800,33.504,32.287,0.0674,0.0234,9.7971,-0.8762,0.3217,-1.1464
4305,744,804,33.65,32.201,0.01,-0.0047,9.814,0.4369,0.4069,-0.1622
4310,748,794,33.586,32.188,0.0434,-0.0728,9.7753,-0.4788,-0.6131,-0.2249
4315,753,791,33.624,32.249,-0.1092,-0.0146,9.8261,-0.6511,-0.3114,0.0707
4320,756,794,33.597,32.13,0.0286,-0.0359,9.7637,-0.9107,0.3496,-0.0939
4325,765,791,33.527,32.258,-0.0519,-0.076,9.7627,0.2414,0.2928,0.0474
4330,763,783,33.63,32.179,-0.009,-0.0096,9.8716,-0.4267,0.1245,-0.8854
4335,764,786,33.619,32.241,0.0997,-0.0739,9.899,-0.6146,-0.5354,0.3986
4340,774,774,33.519,32.142,0.0282,0.0507,9.8644,0.0162,0.4173,-0.0854
4345,786,775,33.567,32.234,0.0691,-0.0255,9.8435,0.2766,0.1184,-0.5421
4350,789,768,33.587,32.279,-0.0097,0.0279,9.8421,-0.3801,-0.0431,0.8555
4355,807,774,33.546,32.207,-0.018,0.0448,9.862,-0.19,-0.213,0.6121
4360,805,767,33.595,32.224,0.006,0.0208,9.7331,1.1142,-0.1532,-0.4151
4365,810,767,33.484,32.207,0.0377,0.032,9.806,0.1013,0.1953,0.5036
4370,839,769,33.547,32.086,-0.0527,-0.0244,9.8921,0.863,0.5813,-0.0599
4375,828,760,33.668,32.209,0.0033,-0.1109,9.6907,0.1305,0.9132,0.5672
4380,845,757,33.576,32.241,-0.0398,-0.0154,9.8157,-0.3881,-0.1384,-0.3034
4385,862,755,33.69,32.248,-0.0787,0.0719,9.8144,-0.1637,0.7824,0.3046
4390,872,753,33.601,32.162,0.0508,-0.0692,9.8167,0.3014,-0.5522,0.5113
4395,876,744,33.587,32.203,0.0101,0.0178,9.8164,0.2783,-1.0749,-0.3691
4400,894,740,33.529,32.221,0.0123,0.071,9.7658,0.201,-0.4932,0.1298
4405,905,741,33.66,32.141,-0.0057,0.0378,9.7735,0.1288,0.2586,-0.7262
4410,918,738,33.562,32.19,-0.0393,-0.0402,9.8484,0.6864,0.9154,-0.0525
4415,933,736,33.625,32.138,0.0849,0.0058,9.8272,0.6427,0.0954,-0.5747
4420,947,731,33.582,32.14,0.0508,0.084,9.8812,-0.7815,1.0447,0.4983
4425,967,731,33.559,32.211,0.0341,0.0148,9.7781,-1.0024,-0.3063,-0.972
4430,979,730,33.593,32.214,-0.0007,-0.0202,9.8543,-0.5109,-0.0335,-0.1215
4435,987,727,33.65,32.217,-0.001,-0.0232,9.7821,0.2243,-0.4633,-0.0613
4440,994,717,33.565,32.297,0.13,-0.0254,9.7331,-0.6208,0.1513,-0.4561
4445,1006,722,33.629,32.244,0.0307,-0.0395,9.7964,-0.887,-0.4155,-1.4083
4450,1025,720,33.649,32.154,0.0043,0.015,9.8347,-0.0152,-0.3925,0.3724
4455,1037,717,33.63,32.298,0.0142,0.0454,9.7849,-0.0885,-0.4035,1.1256
4460,1046,717,33.632,32.105,-0.0591,-0.0744,9.8654,0.478,-0.3644,0.2966
4465,1068,710,33.574,32.206,0.0491,-0.0264,9.922,0.1538,-0.1696,0.0527
4470,1079,715,33.64,32.229,-0.0471,0.0431,9.8081,0.7274,0.3529,-0.3996
4475,1080,718,33.596,32.221,-0.0932,-0.0033,9.7922,-0.0409,-0.1592,-0.1015
4480,1096,708,33.617,32.237,0.0384,-0.0776,9.7756,0.7264,-0.236,0.1532
4485,1103,713,33.613,32.184,0.0578,0.0021,9.8187,0.3575,0.5079,-0.7581
4490,1114,713,33.574,32.191,0.027,0.0257,9.7932,0.0293,0.7299,-0.5081
4495,1121,715,33.64,32.25,-0.0768,-0.0306,9.7401,-0.1952,0.3508,0.0251
4500,1128,719,33.509,32.191,0.0664,-0.0103,9.8695,0.2488,0.4237,0.1721
4505,1136,720,33.625,32.234,-0.033,-0.0915,9.8039,-0.2976,0.409,-0.5174
4510,1143,719,33.621,32.282,-0.0713,-0.0157,9.8471,-0.2196,-0.1186,0.0083
4515,1148,719,33.542,32.253,0.0388,-0.0114,9.7446,0.4919,0.2979,0.2625
4520,1164,726,33.582,32.199,0.0909,0.0377,9.8579,-0.1704,-0.121,0.5318
4525,1159,727,33.699,32.162,-0.0386,0.0664,9.8773,0.3746,-0.3519,0.2622
4530,1174,727,33.576,32.241,-0.0059,-0.046,9.817,0.1628,0.6772,0.2264
4535,1177,729,33.574,32.262,-0.0368,0.0643,9.8169,0.7427,0.2717,1.585
4540,1177,733,33.573,32.193,0.0466,0.008,9.8194,-0.5891,0.4183,0.4369
4545,1189,739,33.645,32.245,-0.0467,-0.0563,9.7807,0.1855,0.1795,0.3781
4550,1185,738,33.657,32.242,0.0815,0.121,9.8217,0.1094,1.1232,-0.2743
4555,1186,743,33.595,32.141,-0.0094,-0.0286,9.8671,-0.0618,-0.6333,0.5231
4560,1193,751,33.591,32.246,-0.0797,-0.0134,9.7707,0.3268,-0.091,-0.1111
4565,1186,753,33.645,32.235,-0.0139,-0.0137,9.7358,0.5522,0.0572,-0.0715
4570,1183,756,33.563,32.166,0.0136,0.0304,9.8513,0.097,-0.7203,-0.5084
4575,1196,757,33.676,32.244,-0.0154,0.0296,9.7991,0.0753,0.647,-0.3576
4580,1177,760,33.607,32.162,-0.0003,-0.0568,9.8726,-0.5213,0.5438,-0.5839
4585,1180,762,33.6,32.195,0.0595,0.0213,9.868,-0.3999,-0.1351,0.6517
4590,1176,774,33.609,32.282,0.0127,0.0309,9.7411,0.3955,0.6005,-0.1136
4595,1183,775,33.558,32.253,-0.0091,0.0525,9.7792,0.8464,0.2319,-0.128
4600,1174,773,33.644,32.169,-0.0203,0.0147,9.7828,-0.2087,0.3263,-0.5623
4605,1175,789,33.589,32.202,-0.0057,-0.0455,9.918,-0.1302,1.0526,-0.0612
4610,1173,784,33.593,32.226,0.0349,-0.041,9.7931,-0.5288,-0.559,0.1975
4615,1176,788,33.614,32.19,0.063,0.0078,9.8332,-0.0314,0.4847,-0.0794
4620,1179,791,33.62,32.251,0.0212,-0.0165,9.825,0.2113,-0.3038,-0.0098
4625,1171,800,33.666,32.185,-0.0143,-0.0456,9.8462,-0.4538,0.2173,-0.6503
4630,1169,803,33.664,32.21,0.0607,-0.0174,9.8156,-0.4077,-0.5629,0.0798
4635,1162,806,33.632,32.174,-0.0146,0.025,9.8026,-0.1106,-0.4221,0.1737
4640,1158,810,33.554,32.296,0.0323,-0.0014,9.7685,0.7704,-0.0615,0.6984
4645,1162,814,33.662,32.214,-0.0362,-0.0148,9.8046,0.6262,-0.0071,-0.4729
4650,1149,818,33.708,32.285,-0.0113,-0.0021,9.9337,0.1115,-1.0181,-0.34
4655,1151,827,33.538,32.199,0.0894,-0.016,9.8143,0.1663,0.2406,-0.4203
4660,1148,830,33.578,32.257,0.0242,-0.0071,9.8538,-0.7728,0.4237,0.2195
4665,1147,835,33.661,32.239,-0.09,-0.0492,9.808,0.2361,-0.4716,0.3659
4670,1133,835,33.575,32.136,0.0115,0.0376,9.7846,-1.0192,-0.3968,0.2523
4675,1132,841,33.526,32.293,-0.0294,-0.0392,9.8364,-0.4117,-0.1759,-0.4188
4680,1128,839,33.656,32.215,-0.1104,-0.0027,9.8436,0.0655,-0.6261,-0.2592
4685,1129,846,33.599,32.152,-0.0494,-0.0589,9.7829,-1.1947,-0.3772,-0.3205
4690,1133,845,33.564,32.108,-0.053,0.1065,9.7935,-0.1413,0.0249,0.6669
4695,1126,849,33.599,32.236,0.0579,0.0509,9.7709,0.7124,0.1134,0.6774
4700,1121,850,33.598,32.237,-0.0029,-0.0265,9.8317,-0.8575,1.2267,1.1145
4705,1111,854,33.535,32.196,-0.0106,0.0064,9.7608,0.2616,0.2208,0.2767
4710,1111,853,33.602,32.231,-0.0031,0.0861,9.8404,0.0347,0.8108,-0.1314
4715,1112,859,33.561,32.18,-0.0168,0.0178,9.8124,-0.3975,0.4447,0.1529
4720,1108,860,33.596,32.288,-0.0433,-0.0059,9.8298,0.4519,0.1451,-0.2149
4725,1112,859,33.641,32.27,0.0502,0.0045,9.7538,-0.0803,0.4105,-0.6315
4730,1108,865,33.603,32.188,-0.033,0.0417,9.7498,-0.541,0.24,0.243
4735,1099,860,33.607,32.246,-0.0174,-0.0623,9.7674,-0.393,-0.3057,0.2638
4740,1092,864,33.6,32.249,-0.0466,0.0691,9.8402,-0.3801,0.1539,-0.6329
4745,1094,859,33.633,32.325,0.0103,0.0117,9.8145,-0.4541,0.2587,0.0168
4750,1089,869,33.703,32.179,-0.0707,-0.0231,9.8136,-0.2371,0.2033,0.1029
4755,1094,871,33.524,32.159,0.008,0.1534,9.8684,1.045,0.0817,-0.0864
4760,1090,858,33.54,32.104,0.0426,-0.0401,9.8157,-0.412,-0.6062,0.2993
4765,1088,864,33.573,32.21,-0.0603,-0.0891,9.8431,0.1303,-0.2321,0.0128
4770,1072,864,33.586,32.282,-0.0357,-0.0985,9.7628,1.1473,1.1135,-0.3945
4775,1091,857,33.582,32.208,-0.0752,-0.0892,9.8575,0.3041,0.5055,-0.0247
4780,1081,861,33.598,32.285,0.0143,-0.0005,9.8615,0.0112,-0.0182,1.0673
4785,1074,861,33.694,32.138,0.0383,-0.02,9.8597,0.1838,-0.2404,0.7578
4790,1071,858,33.747,32.3,-0.0438,-0.039,9.7802,-0.2632,0.2822,-0.582
4795,1072,864,33.675,32.189,0.026,-0.0803,9.8176,0.8125,0.7519,0.2552
4800,1066,861,33.634,32.251,-0.0849,0.0532,9.8339,-0.2837,0.2631,0.1723
4805,1064,858,33.561,32.252,-0.1247,-0.031,9.849,-0.6197,-0.5269,-0.5494
4810,1052,853,33.568,32.207,0.0705,-0.0667,9.834,0.5508,0.6836,-0.1837
4815,1052,854,33.618,32.166,-0.0672,0.031,9.8343,0.2434,0.6295,0.771
4820,1043,852,33.61,32.25,-0.0257,0.0083,9.6822,0.4168,0.0409,0.3513
4825,1050,856,33.626,32.121,-0.0141,0.0622,9.7471,0.5155,-0.0843,-0.2447
4830,1045,851,33.6,32.246,0.0038,0.0153,9.9075,0.0105,-0.1137,0.3245
4835,1037,850,33.625,32.257,-0.0623,0.0561,9.8675,-0.5673,-0.5191,0.7119
4840,1029,851,33.625,32.271,0.0262,0.0284,9.7463,0.0016,-0.3042,0.2517
4845,1031,846,33.674,32.179,-0.0006,-0.0149,9.6982,0.3031,-0.503,-0.0735
4850,1018,848,33.714,32.175,0.0042,0.0557,9.7789,-0.0731,-0.4988,-0.6151
4855,1012,840,33.7,32.183,-0.038,0.0142,9.7834,0.3137,-0.5762,-0.2086
4860,1004,846,33.622,32.137,-0.0463,-0.1163,9.7452,0.2358,-0.1623,-0.2851
4865,1001,844,33.574,32.171,-0.0384,0.0313,9.8543,0.4607,-0.4717,-0.2524
4870,998,839,33.563,32.145,-0.0587,0.0166,9.7815,-0.169,-0.2837,0.2907
4875,982,846,33.653,32.221,0.0663,-0.0843,9.8803,-0.3449,-0.0116,-0.5994
4880,971,839,33.529,32.304,0.0579,-0.0562,9.817,-0.3835,-0.1854,-0.5668
4885,963,842,33.598,32.18,-0.0442,-0.0693,9.8958,-0.7993,-0.3663,0.0514
4890,961,836,33.623,32.186,-0.0865,-0.0077,9.8248,-0.5244,1.1969,0.2924
4895,945,838,33.503,32.299,0.0249,0.012,9.8291,-0.5203,0.2316,-0.3882
4900,941,835,33.605,32.244,0.0299,0.0684,9.7336,0.3065,-1.3328,-0.6536
4905,931,837,33.586,32.212,0.0642,-0.0707,9.8745,0.0603,0.5084,0.7725
4910,919,833,33.56,32.232,0.0161,0.0154,9.793,0.138,-0.3436,-0.145
4915,907,830,33.627,32.33,-0.0485,-0.0469,9.8824,0.4704,-0.3308,0.151
4920,908,836,33.578,32.191,-0.0469,0.0246,9.7477,0.73,-0.2162,-0.5953
4925,892,835,33.694,32.124,-0.0264,0.0115,9.7844,0.4584,0.5633,-0.3087
4930,884,834,33.604,32.128,0.0137,0.0153,9.8872,-1.0241,0.1652,0.2017
4935,877,833,33.62,32.176,0.0051,-0.054,9.8108,0.2692,0.9126,-0.3032
4940,864,829,33.498,32.277,0.0264,0.073,9.8357,0.5266,-0.2594,-0.0002
4945,859,834,33.66,32.121,0.0686,0.009,9.823,-0.05,-0.8169,-0.4873
4950,846,829,33.591,32.162,-0.0073,-0.0673,9.7991,-0.4694,-0.8489,-0.0603
4955,833,825,33.641,32.164,0.0481,0.0473,9.7923,0.3252,-0.0569,0.7234
4960,828,829,33.634,32.15,-0.003,-0.0577,9.8303,0.8378,0.55,-0.3968
4965,819,822,33.589,32.208,0.0004,0.0454,9.8515,-0.1198,0.0779,-1.0919
4970,818,826,33.727,32.224,0.0645,-0.0818,9.8669,-0.1239,-0.4435,-0.2282
4975,805,824,33.703,32.181,-0.0468,-0.085,9.8538,0.7362,0.2158,0.831
4980,804,826,33.564,32.167,0.0951,0.0166,9.7928,-0.0893,0.9975,0.1759
4985,783,824,33.55,32.232,0.0202,-0.0898,9.7747,0.1613,-0.1688,-0.2574
4990,786,823,33.587,32.265,-0.0536,-0.0439,9.8796,0.0322,0.1997,-0.6637
4995,785,822,33.588,32.215,-0.069,-0.0387,9.7657,0.0306,-0.5664,-0.1316
5000,768,817,33.65,32.27,-0.0496,0.0126,9.7703,-0.432,0.5184,-0.2775
5005,765,818,33.652,32.15,-0.0235,0.0359,9.8008,0.0407,-0.6048,-0.7768
5010,759,814,33.606,32.367,0.0138,0.0598,9.8797,-0.307,-0.293,-0.8491
5015,762,816,33.685,32.158,0.016,-0.0348,9.9315,-0.4077,-0.1123,-0.2859
5020,749,813,33.566,32.226,-0.0355,0.0341,9.7859,0.1229,-0.3742,-0.2249
5025,750,813,33.625,32.186,0.0212,-0.0577,9.8076,0.1483,-0.7005,0.6035
5030,754,811,33.695,32.215,-0.007,-0.062,9.8213,0.1866,1.93,0.002
5035,747,807,33.567,32.21,-0.08,-0.0248,9.7937,-0.09,0.0992,-0.2812
5040,750,798,33.57,32.249,0.0274,-0.0421,9.792,0.6807,0.6714,-0.1962
5045,742,796,33.57,32.16,-0.0374,0.0074,9.7887,-0.7468,-0.3816,-0.5092
5050,753,799,33.712,32.193,0.0322,-0.0862,9.8018,-0.9847,-0.4398,-0.4494
5055,750,800,33.679,32.319,-0.0191,0.0251,9.8618,-0.11,-0.4733,0.1643
5060,744,795,33.576,32.266,-0.1064,-0.049,9.8056,0.21,0.5311,0.1818
5065,755,792,33.606,32.173,-0.0302,0.0721,9.8132,0.1243,-0.0697,-0.9054
5070,765,788,33.637,32.202,-0.0042,-0.0396,9.7732,0.6991,-0.3911,-0.4044
5075,764,783,33.571,32.142,-0.0493,0.0135,9.8298,-0.0659,0.0693,0.2651
5080,770,784,33.668,32.176,-0.0217,0.0453,9.8086,-0.3636,-0.0258,0.5305
5085,771,779,33.625,32.254,-0.0642,-0.0609,9.7948,1.0163,0.5901,-0.1181
5090,782,770,33.619,32.225,0.0626,-0.036,9.8199,0.1483,0.127,0.511
5095,792,766,33.634,32.225,-0.0855,-0.0238,9.8003,0.1624,0.489,0.6709
5100,810,770,33.584,32.213,-0.1161,-0.0422,9.8288,0.4357,0.3679,-0.3526
5105,820,768,33.643,32.194,-0.0797,0.0686,9.8729,-0.4526,1.0295,-0.0165
5110,819,766,33.636,32.21,-0.0194,-0.0035,9.8499,-0.2132,-0.5184,-0.221
5115,815,759,33.514,32.216,0.1047,-0.0134,9.9666,0.0021,0.7202,0.1338
5120,839,757,33.591,32.18,0.0783,0.1287,9.7888,-0.0001,0.0146,-0.4621
5125,850,757,33.578,32.204,0.0503,-0.0488,9.8437,-0.1129,-0.6567,0.7995
5130,871,749,33.591,32.187,-0.0294,0.0541,9.8612,0.735,0.0978,-0.9925
5135,876,741,33.62,32.211,0.0543,-0.0648,9.8511,-0.1544,-0.3122,-0.7344
5140,889,744,33.52,32.068,-0.0248,0.0512,9.7852,0.4201,0.2671,-0.3867
5145,907,738,33.601,32.23,0.0161,0.0012,9.7972,-0.2614,0.2283,0.1435
5150,916,738,33.695,32.212,-0.0062,-0.0082,9.7779,-0.619,-0.5201,-0.145
5155,930,739,33.572,32.149,-0.0431,0.0115,9.8152,0.4646,-0.3006,-0.2163
5160,933,729,33.701,32.162,0.0729,-0.0967,9.78,0.0566,0.2008,1.2629
5165,956,728,33.663,32.182,0.0059,0.02,9.7767,-0.7079,-0.1942,0.9245
5170,968,727,33.681,32.226,0.0192,-0.064,9.7903,-0.0934,0.3107,0.334
5175,980,726,33.697,32.209,-0.0384,0.0349,9.7928,-0.1093,0.9296,-0.497
5180,990,722,33.585,32.227,-0.0003,-0.0135,9.7356,-0.1749,-0.4532,-0.289
5185,998,721,33.687,32.234,0.018,-0.109,9.7591,0.2215,-0.3119,0.6539
5190,1014,716,33.585,32.172,0.0608,0.0272,9.7566,-0.4587,0.0587,-0.3289
5195,1024,723,33.57,32.261,0.0686,0.0635,9.785,-0.2513,0.0618,-0.4766
5200,1036,719,33.673,32.165,-0.0538,-0.0233,9.9363,-0.1013,-0.224,-0.0042
5205,1049,717,33.738,32.223,-0.0083,-0.025,9.823,-0.1046,0.3537,-0.5301
5210,1071,711,33.617,32.096,-0.0079,0.0709,9.7143,0.5474,-0.2026,0.321
5215,1092,717,33.654,32.212,0.0186,-0.0163,9.7305,-0.4081,-0.1595,-0.7638
5220,1085,714,33.573,32.254,0.0105,-0.0339,9.7639,0.4368,0.7358,-0.1272
5225,1091,715,33.602,32.254,-0.0302,-0.0112,9.7103,-0.977,1.5266,0.4632
5230,1117,709,33.593,32.208,0.0581,0.0488,9.864,0.4376,0.4251,0.0411
5235,1107,713,33.702,32.259,0.0346,-0.0949,9.8852,0.3561,0.0259,0.1963
5240,1128,714,33.631,32.123,0.0534,0.0217,9.7359,-0.0233,0.4055,0.3124
5245,1137,714,33.589,32.224,0.0978,0.0389,9.8704,0.744,0.0218,0.0055
5250,1140,720,33.598,32.176,-0.074,-0.0038,9.837,0.873,0.3451,0.4751
5255,1157,719,33.587,32.182,0.0602,-0.0166,9.7598,-0.0713,0.4627,-0.6735
5260,1156,721,33.712,32.154,-0.0161,-0.0028,9.8506,0.6084,0.319,-0.1925
5265,1159,726,33.718,32.269,0.0196,0.0141,9.835,-0.0106,-0.0962,0.9287
5270,1165,730,33.542,32.324,0.0273,-0.0696,9.7709,-0.514,-0.2226,0.1754
5275,1169,728,33.526,32.171,0.0013,0.0653,9.7946,-0.0496,0.3437,0.3944
5280,1162,733,33.698,32.173,-0.0414,-0.0203,9.7716,-0.269,0.3816,-0.002
5285,1175,733,33.615,32.245,0.0739,0.0245,9.9042,0.0551,-0.6471,-0.2132
5290,1179,733,33.559,32.176,0.0302,0.0553,9.8686,-1.0517,0.2054,0.0448
5295,1190,738,33.593,32.182,0.0171,0.0185,9.8238,0.5234,-0.2881,0.8392
5300,1195,743,33.674,32.222,-0.0311,0.0401,9.762,-0.5236,-0.3479,0.227
5305,1190,749,33.647,32.303,-0.0057,-0.0718,9.975,0.0057,-0.4028,-0.1333
5310,1186,758,33.694,32.222,-0.0565,0.0236,9.8622,0.6088,-0.5523,0.3355
5315,1188,757,33.648,32.181,-0.0209,0.101,9.8156,-0.3649,0.2034,0.2479
5320,1184,759,33.563,32.284,0.039,-0.0972,9.8271,-0.337,-0.354,1.0982
5325,1187,762,33.668,32.154,-0.0334,-0.0261,9.7239,-0.4324,0.455,0.1266
5330,1194,761,33.583,32.189,0.0297,0.0441,9.7319,-0.5763,-0.8726,-0.0684
5335,1184,772,33.69,32.218,0.0446,0.0038,9.7916,-0.5851,-0.59,-0.0651
5340,1182,778,33.562,32.285,0.0072,-0.0098,9.8382,0.8461,0.0269,-0.9789
5345,1177,779,33.615,32.144,-0.0223,-0.0375,9.7195,0.1353,-0.4771,0.8663
5350,1172,789,33.569,32.172,-0.0206,-0.0503,9.8067,0.0785,0.5054,0.2732
5355,1172,786,33.655,32.196,-0.0036,0.0332,9.9495,-0.2281,-0.1489,0.5373
5360,1173,797,33.582,32.267,-0.0225,-0.0596,9.9162,-0.9403,-0.6747,-0.2669
5365,1178,801,33.618,32.195,0.0916,-0.003,9.728,-0.1037,0.9705,-0.421
5370,1176,807,33.704,32.185,-0.0004,-0.0768,9.7938,0.0236,-0.0051,-0.2446
5375,1156,810,33.576,32.129,-0.0166,0.0304,9.7967,-0.0527,-0.6579,0.0183
5380,1166,817,33.642,32.226,-0.0177,-0.0621,9.8091,0.123,-1.4426,-0.3857
5385,1159,815,33.627,32.3,0.0522,0.0047,9.7916,0.5002,0.5656,0.3246
5390,1161,821,33.693,32.211,-0.0803,0.0188,9.8377,0.4484,0.1629,0.063
5395,1153,820,33.615,32.214,-0.0276,-0.0089,9.8598,0.8419,0.8979,0.1109
5400,1144,827,33.582,32.206,0.0202,0.0136,9.7806,-0.132,0.459,-0.0716
5405,1138,831,33.599,32.217,-0.0206,0.0109,9.7899,0.1656,-0.3826,-0.1668
5410,1139,830,33.617,32.254,-0.0011,-0.0003,9.9056,1.1157,-0.4428,-0.3035
5415,1142,842,33.606,32.236,0.0536,-0.0426,9.772,0.8719,0.0124,0.2222
5420,1130,835,33.629,32.304,-0.003,-0.0192,9.7856,-0.3986,-0.3188,0.6667
5425,1129,845,33.559,32.28,0.0421,0.0475,9.799,0.9434,-0.2294,0.4168
5430,1127,845,33.519,32.217,-0.0074,0.065,9.7166,0.0401,0.1781,-0.0161
5435,1127,843,33.611,32.312,-0.0415,-0.0122,9.834,0.2395,-0.4055,-0.3901
5440,1109,850,33.612,32.288,0.053,-0.0283,9.7753,0.3078,-0.274,-0.257
5445,1119,853,33.678,32.235,0.0603,0.0209,9.7493,-0.5953,0.1123,-0.6961
5450,1119,853,33.616,32.288,0.0045,-0.1133,9.7991,-0.7546,-0.8137,-0.6046
5455,1116,853,33.64,32.281,-0.1314,-0.0054,9.8089,0.1741,-0.2824,0.1581
5460,1114,849,33.658,32.289,-0.0111,0.05,9.8163,-0.1318,0.5446,0.1735
5465,1102,864,33.595,32.258,0.0016,-0.0423,9.8242,0.4599,0.8829,-1.3935
5470,1100,853,33.668,32.219,0.0099,0.0101,9.8683,0.4144,0.3365,-0.4216
5475,1101,865,33.554,32.217,0.0807,-0.0032,9.8362,0.0935,0.6258,-0.9205
5480,1100,862,33.689,32.152,0.0669,0.0362,9.8186,-1.0371,-0.0481,-0.3816
5485,1098,859,33.449,32.313,0.0517,-0.0533,9.8135,0.4442,-1.3553,0.568
5490,1091,858,33.599,32.192,0.0111,0.0088,9.7884,0.2654,1.3734,0.351
5495,1093,859,33.564,32.226,-0.1027,-0.0157,9.9057,-0.05,0.3615,-0.3449
5500,1091,866,33.664,32.22,-0.0406,-0.0086,9.7606,0.2728,-0.6883,-0.1452
5505,1096,862,33.647,32.234,0.0423,0.0216,9.7807,-0.0268,-0.0466,-0.1387
5510,1085,864,33.613,32.215,0.0146,0.0291,9.8299,-0.3882,-0.2419,0.344
5515,1087,863,33.611,32.268,-0.0567,-0.0359,9.7937,0.2217,0.4081,-0.7338
5520,1075,862,33.636,32.217,-0.0439,-0.075,9.7222,0.1253,-0.2283,-0.1189
5525,1082,863,33.597,32.219,0.0202,0.0449,9.8269,-0.2624,0.3851,0.2454
5530,1079,864,33.595,32.23,-0.0247,-0.0133,9.7353,0.3208,-0.1989,0.2365
5535,1075,855,33.68,32.284,0.0774,-0.0493,9.7312,-0.9624,1.1246,-0.571
5540,1058,859,33.704,32.148,-0.0344,0.004,9.797,1.1359,0.9891,-0.1709
5545,1064,850,33.535,32.133,-0.0243,-0.0369,9.839,0.1284,0.3525,-0.396
5550,1065,855,33.723,32.269,0.0589,-0.0669,9.7379,0.1523,-0.2302,0.3663
5555,1061,854,33.601,32.196,0.0041,0.0518,9.7261,0.5986,0.6086,-0.5821
5560,1055,859,33.591,32.127,0.0383,0.0952,9.7304,0.7657,-0.6812,-0.674
5565,1059,853,33.626,32.245,0.0624,-0.0444,9.8197,0.6789,-0.2127,-0.4889
5570,1047,857,33.602,32.241,0.1332,-0.0442,9.7763,0.1044,-0.1513,0.3029
5575,1041,843,33.574,32.189,0.0878,-0.1277,9.9196,-0.5417,-0.0992,0.2665
5580,1030,848,33.618,32.274,0.0891,0.0659,9.8239,0.2436,0.4522,0.3011
5585,1024,850,33.58,32.192,-0.0052,0.0159,9.8369,-0.7642,0.4076,0.3254
5590,1029,846,33.595,32.17,-0.0473,-0.0174,9.7236,0.0189,0.8704,0.3047
5595,1015,847,33.659,32.22,-0.0398,0.0149,9.8726,-0.1563,0.4469,-0.6943
5600,1005,849,33.692,32.173,0.0515,0.0183,9.8296,0.4272,0.0871,-0.0078
5605,999,847,33.61,32.236,0.0478,-0.022,9.8245,0.3235,-0.8243,-0.0677
5610,992,846,33.684,32.186,0.0698,0.0323,9.7232,0.2726,1.2176,0.1183
5615,992,843,33.584,32.163,-0.0201,-0.0029,9.7689,-0.1793,0.595,-0.2119
5620,975,837,33.614,32.208,-0.0331,-0.1033,9.7859,0.0283,1.1661,-0.4614
5625,977,838,33.591,32.27,0.0861,0.0241,9.8766,0.3165,0.1635,0.0946
5630,955,833,33.615,32.213,-0.0611,0.0298,9.8233,0.2393,-0.5109,-0.8864
5635,944,838,33.538,32.159,-0.0092,0.0861,9.8388,0.6601,-0.751,-0.2803
5640,949,840,33.607,32.261,0.0223,0.027,9.7661,1.3097,0.5137,0.7887
5645,936,836,33.667,32.187,-0.0922,-0.0628,9.8709,-0.8183,0.5212,-0.844
5650,927,836,33.651,32.126,-0.0326,-0.0323,9.7716,-0.1244,-0.6742,-0.5362
5655,926,834,33.623,32.227,0.0419,-0.0612,9.8447,0.2611,-0.6882,-0.0737
5660,904,830,33.659,32.247,-0.0223,-0.0461,9.9374,0.5113,-0.2838,0.4237
5665,896,832,33.575,32.191,0.0073,-0.0268,9.8737,-0.104,0.1633,0.0762
5670,889,830,33.554,32.202,-0.0326,0.0266,9.8796,-0.0673,-0.0311,1.091
5675,877,830,33.587,32.284,-0.0233,0.047,9.8331,0.2811,0.7485,0.3785
5680,874,831,33.612,32.265,-0.0448,-0.0203,9.815,-1.1477,-0.9949,-0.0985
5685,865,832,33.647,32.235,-0.0005,-0.0537,9.8403,-0.1862,0.0335,0.1911
5690,852,831,33.598,32.224,-0.0122,-0.0235,9.8114,0.1563,0.0853,0.0627
5695,838,825,33.507,32.267,-0.0209,-0.0208,9.8595,0.0171,0.1183,-0.5071
5700,841,826,33.566,32.177,-0.0774,0.0045,9.7633,-0.222,-1.104,0.5747
5705,824,828,33.635,32.246,-0.1407,-0.0065,9.8087,1.2076,0.2126,1.1036
5710,818,823,33.656,32.18,0.0422,0.0312,9.7782,-0.2488,-0.3202,0.2219
5715,806,822,33.563,32.287,0.0085,-0.0287,9.8341,0.5089,-0.4016,0.2928
5720,798,821,33.673,32.103,-0.0532,-0.1422,9.859,-0.4685,0.2959,-0.5373
5725,791,820,33.63,32.219,0.0385,0.0634,9.7902,0.8305,0.958,-0.665
5730,772,820,33.53,32.281,0.0213,-0.0102,9.8121,-0.0425,-1.2547,-0.0379
5735,782,820,33.601,32.218,0.0336,-0.0848,9.8447,-0.1471,0.6513,0.0843
5740,779,820,33.626,32.297,-0.011,-0.0725,9.8073,-0.765,-0.6817,1.0047
5745,776,811,33.548,32.269,0.1319,-0.0147,9.9852,-0.4768,0.5229,0.1279
5750,766,810,33.639,32.163,-0.1073,-0.0025,9.869,-0.2814,-0.0129,-0.2053
5755,755,815,33.585,32.129,-0.0551,-0.0154,9.8238,0.6498,-0.3218,-0.1926
5760,748,811,33.68,32.258,0.0525,-0.0261,9.7945,-0.4781,-0.1936,0.1589
5765,763,812,33.658,32.162,-0.066,-0.004,9.766,0.4678,-0.0266,-0.0508
5770,747,805,33.661,32.266,-0.0636,0.0269,9.8191,1.099,0.3035,-0.3997
5775,751,805,33.654,32.309,0.0759,-0.044,9.8022,-0.0663,0.8343,0.3894
5780,748,804,33.655,32.291,0.0312,-0.0082,9.7669,0.6062,0.2265,-0.0104
5785,750,810,33.574,32.217,-0.0269,0.102,9.8064,-0.5118,0.5366,-0.7849
5790,750,802,33.702,32.248,-0.0975,0.0263,9.8926,-0.5755,-0.2058,-0.615
5795,756,800,33.586,32.295,0.0244,0.0414,9.8693,-0.2191,0.5123,-0.0944
5800,748,796,33.675,32.276,0.0305,0.0284,9.8016,0.3955,0.1229,-0.6593
5805,752,796,33.643,32.257,0.0206,0.0424,9.8015,0.5661,0.4133,0.279
5810,760,792,33.583,32.187,0.0191,0.0096,9.7912,0.1946,0.7293,0.1779
5815,765,784,33.645,32.246,-0.0456,-0.0407,9.7873,-0.2568,0.1656,-0.2752
5820,762,785,33.65,32.186,0.0813,0.0009,9.8286,-0.4721,-0.3332,0.6045
5825,786,780,33.654,32.268,0.0447,0.0589,9.8616,0.3961,-0.4239,-0.6738
5830,789,780,33.649,32.238,0.0014,-0.0571,9.899,0.257,0.3749,-0.4085
5835,790,770,33.544,32.229,0.1105,-0.0525,9.9279,-0.6365,-0.0541,-0.506
5840,799,771,33.584,32.332,-0.0384,0.022,9.8387,0.2486,-0.537,0.5298
5845,809,771,33.648,32.243,0.0504,0.0703,9.766,-0.1011,-0.9424,0.1126
5850,811,763,33.635,32.166,-0.008,-0.0444,9.7317,0.2551,0.3548,0.7207
5855,831,759,33.631,32.212,-0.0493,0.018,9.8576,-0.0575,0.3011,-0.6783
5860,832,760,33.581,32.147,-0.0591,0.0537,9.7899,-0.2223,-0.7665,0.0315
5865,851,760,33.656,32.22,0.0728,0.0286,9.7956,1.0457,-0.0451,0.3871
5870,853,749,33.728,32.282,-0.131,-0.033,9.8249,0.1393,-0.1097,-0.4042
5875,865,753,33.704,32.228,-0.0445,-0.0131,9.7646,-0.1891,-0.0319,-0.0014
5880,886,745,33.65,32.202,-0.1128,-0.0726,9.8089,-0.2591,-0.188,-0.2512
5885,894,744,33.659,32.203,-0.0003,-0.0208,9.7721,-0.4352,-0.5151,0.1214
5890,906,741,33.594,32.269,-0.0775,-0.1081,9.856,0.541,-0.4349,-0.2429
5895,921,735,33.613,32.255,0.0456,0.0582,9.8434,-0.4808,0.6139,0.779
5900,930,734,33.61,32.368,-0.0436,-0.0422,9.8237,0.4005,-0.2602,-0.5515
5905,943,729,33.498,32.152,-0.0478,0.0076,9.8516,-0.7869,-0.664,-0.119
5910,956,729,33.677,32.255,-0.0164,0.0464,9.8355,0.5931,0.2348,-0.0509
5915,978,725,33.571,32.212,-0.0559,-0.0637,9.7896,0.1472,-0.3818,0.356
5920,984,720,33.66,32.236,0.0377,0.0658,9.8389,-0.4252,-0.2582,0.1825
5925,993,722,33.671,32.204,-0.0685,-0.0172,9.811,0.7289,-0.8432,-0.6923
5930,1017,727,33.756,32.276,-0.0535,-0.0567,9.7851,-0.7558,0.2425,0.6809
5935,1027,716,33.557,32.233,0.0195,0.0066,9.7777,0.1413,-0.3277,0.5966
5940,1036,716,33.638,32.207,0.0646,-0.0284,9.8076,0.8569,-0.8168,0.3587
5945,1051,714,33.653,32.28,0.0133,-0.0046,9.7617,0.6225,-0.54,0.4985
5950,1053,716,33.623,32.262,-0.0755,0.0265,9.8594,-0.0692,0.0974,-0.2226
5955,1069,713,33.573,32.191,0.0381,-0.0047,9.8369,0.1409,0.161,-0.6841
5960,1077,716,33.579,32.247,0.0147,-0.0427,9.7495,-0.1691,0.6589,0.2028
5965,1097,718,33.744,32.268,0.0093,0.0018,9.8123,-0.036,0.0635,0.5647
5970,1093,718,33.537,32.206,-0.0322,0.0725,9.9016,-0.0304,0.494,-0.178
5975,1116,710,33.627,32.253,-0.0824,-0.0301,9.7715,0.3238,-0.0195,0.1565
5980,1126,719,33.622,32.264,-0.0781,0.0251,9.7744,0.2832,0.3594,-0.0955
5985,1128,715,33.628,32.239,-0.0344,-0.0148,9.8443,-0.8066,0.3488,0.6558
5990,1136,713,33.714,32.215,0.0043,0.0318,9.6874,0.6801,-0.1867,0.5035
5995,1147,719,33.69,32.17,0.068,-0.066,9.8458,-0.5104,0.0907,0.7879
6000,1149,720,33.646,32.16,-0.0092,-0.0404,9.8372,-0.3343,-0.387,-0.0968
6005,1158,721,33.69,32.223,0.005,0.0648,9.8512,-0.3971,0.6213,0.3428
6010,1158,725,33.666,32.151,0.0524,0.0216,9.7357,0.1907,0.8651,-1.4264
6015,1167,730,33.601,32.199,-0.0055,-0.0099,9.7944,0.2958,-0.1031,0.2086
6020,1174,729,33.681,32.234,0.0356,-0.0629,9.8505,0.4215,0.3077,0.2284
6025,1170,732,33.551,32.179,0.0087,0.0859,9.7743,0.254,-0.1799,-0.012
6030,1173,735,33.636,32.248,0.0019,0.058,9.8008,-0.7251,-0.3322,0.3708
6035,1174,735,33.704,32.194,0.055,-0.0207,9.8056,0.2395,0.7457,-0.4838
6040,1185,741,33.596,32.221,0.0825,0.0351,9.8957,-0.7579,0.0069,0.2687
6045,1186,743,33.575,32.196,0.054,-0.0819,9.7749,0.3964,1.0719,0.4774
6050,1189,747,33.619,32.19,-0.0649,-0.0402,9.7537,0.0104,-0.6517,-0.4286
6055,1187,752,33.596,32.228,0.0232,0.0159,9.8269,0.436,-0.4314,-0.9659
6060,1186,755,33.587,32.194,-0.0157,-0.0011,9.7882,0.1123,0.3391,-0.3173
6065,1189,765,33.683,32.192,0.0507,0.011,9.7721,0.4684,-0.1753,-0.1893
6070,1185,763,33.696,32.196,-0.0226,-0.0083,9.7244,0.205,-0.3806,-0.6014
6075,1192,765,33.603,32.282,0.0229,0.0754,9.8209,-0.0486,0.0393,-0.1778
6080,1187,774,33.693,32.155,-0.0271,-0.0357,9.7666,-0.0443,-0.785,-0.728
6085,1180,779,33.639,32.22,-0.0403,0.0941,9.924,-0.9792,0.9309,0.9628
6090,1180,780,33.521,32.256,0.0347,0.0365,9.6644,0.1884,-1.1726,-0.0516
6095,1181,785,33.663,32.244,-0.0117,0.0595,9.9012,0.4945,-0.0827,-0.0638
6100,1177,786,33.559,32.264,0.0649,-0.0889,9.7956,-0.8174,-0.4663,-0.2907
6105,1177,796,33.628,32.253,0.0137,-0.0994,9.786,-0.638,-0.4309,0.5397
6110,1172,803,33.636,32.228,-0.0617,-0.0122,9.782,-0.2041,0.7745,0.2859
6115,1158,801,33.693,32.225,0.0403,0.0211,9.7799,0.5236,-0.213,0.0849
6120,1164,816,33.618,32.265,0.0806,-0.0496,9.703,1.1132,0.5281,0.2913
6125,1166,809,33.668,32.224,-0.0044,0.0233,9.8023,0.2663,-1.2274,-0.0344
6130,1157,820,33.682,32.148,0.0614,0.0435,9.8027,-0.5243,0.3323,-0.1106
6135,1149,825,33.652,32.238,0.0439,-0.0465,9.7743,0.015,0.3056,0.3393
6140,1149,828,33.667,32.236,0.0889,-0.0244,9.8487,-0.2051,-0.3717,0.1045
6145,1143,830,33.615,32.246,-0.0105,0.0434,9.795,-0.5103,-0.2994,0.2415
6150,1150,839,33.597,32.276,-0.0298,-0.0002,9.8516,0.7927,-0.234,0.4465
6155,1140,833,33.718,32.25,0.053,-0.0276,9.7744,0.8106,-0.3652,0.118
6160,1133,839,33.66,32.235,0.003,-0.0636,9.7983,0.225,-0.0182,0.3327
6165,1136,841,33.629,32.251,0.0588,0.0129,9.8176,-0.4072,0.4561,-0.4423
6170,1124,841,33.61,32.307,0.0891,0.0692,9.823,0.181,0.1988,0.974
6175,1122,853,33.593,32.244,0.0347,-0.0613,9.7906,-0.1177,0.0324,-0.0102
6180,1123,849,33.591,32.249,-0.1157,0.0591,9.8183,0.0185,0.2615,-0.1906
6185,1122,847,33.561,32.209,-0.1123,-0.0406,9.8007,0.7946,0.3063,-0.0999
6190,1116,851,33.657,32.19,-0.0262,0.0038,9.8388,-0.2512,0.7344,0.5468
6195,1114,854,33.619,32.227,-0.133,-0.1135,9.8729,-0.6626,0.4808,-0.5675
6200,1106,860,33.646,32.219,0.0107,-0.0048,9.7436,-0.0912,-0.0253,-0.1212
6205,1102,854,33.561,32.241,-0.1232,0.0251,9.8233,-0.2713,0.2507,0.1896
6210,1106,854,33.611,32.273,-0.0188,-0.0327,9.7988,-0.1569,-0.6432,-0.5434
6215,1103,860,33.668,32.187,0.1005,-0.0133,9.7875,-0.258,0.1321,-0.0814
6220,1095,860,33.726,32.225,0.0648,-0.0758,9.8083,-0.3549,0.3616,-0.0652
6225,1091,860,33.567,32.236,0.0137,0.0307,9.8095,-0.8692,-0.7262,-0.8644
6230,1097,858,33.599,32.263,-0.0302,0.0535,9.8898,-0.1356,0.0205,-1.0303
6235,1092,866,33.642,32.137,-0.0513,0.0063,9.8487,-0.0536,0.233,0.2673
6240,1097,861,33.66,32.225,0.1193,0.0119,9.9018,-0.4719,0.0835,0.3349
6245,1089,859,33.586,32.193,0.0503,-0.0419,9.717,0.8367,-0.1908,-0.5788
6250,1090,857,33.614,32.183,-0.0179,0.0346,9.8217,-0.1565,-0.1994,-0.7612
6255,1090,861,33.597,32.186,-0.0595,-0.0155,9.8061,-0.0192,-0.569,0.0165
6260,1079,866,33.578,32.198,0.0767,0.0837,9.7549,-0.5915,-0.6707,0.3853
6265,1082,862,33.645,32.226,0.0283,-0.0744,9.8254,-0.2883,-0.5806,-0.2892
6270,1077,861,33.602,32.296,0.0573,0.0555,9.6607,0.1438,-0.9316,0.1305
6275,1074,863,33.602,32.327,0.0084,0.0058,9.8476,-0.8984,0.7898,0.0047
6280,1075,859,33.623,32.237,-0.0422,0.052,9.7722,1.1169,-0.3009,0.1076
6285,1067,865,33.679,32.241,-0.1144,0.094,9.7919,-1.107,1.075,-0.3523
6290,1071,860,33.669,32.226,0.006,-0.0352,9.8663,0.0606,-0.2798,-0.3817
6295,1068,857,33.613,32.322,0.0356,-0.0337,9.8168,-0.3261,-0.5203,0.9998
6300,1058,859,33.57,32.192,-0.0058,0.0803,9.7807,0.0727,0.5706,0.0238
6305,1049,851,33.638,32.216,-0.0079,0.032,9.8706,-0.3416,-0.4236,0.2955
6310,1053,849,33.615,32.171,-0.0321,0.0601,9.8076,-1.3133,0.714,0.2683
6315,1043,850,33.63,32.22,0.0607,-0.0174,9.8205,-0.5442,-0.1388,0.9274
6320,1038,849,33.697,32.176,-0.0654,-0.0546,9.7826,0.3562,-0.1348,0.47
6325,1027,851,33.622,32.269,-0.062,-0.0234,9.8184,0.5842,-0.7096,0.2568
6330,1033,845,33.636,32.146,-0.0244,-0.2034,9.8282,0.2488,0.6752,-0.173
6335,1026,850,33.561,32.238,0.0773,0.0396,9.8086,-0.213,-0.0022,0.0081
6340,1017,851,33.589,32.172,0.0502,0.0839,9.7786,0.3176,-0.0288,-0.127
6345,1001,848,33.604,32.17,0.0464,-0.0542,9.8005,-0.731,-0.2051,-0.2682
6350,995,848,33.646,32.198,-0.0836,0.0394,9.8268,0.2262,-0.2246,-0.9369
6355,986,839,33.643,32.241,-0.0223,0.0088,9.8619,-0.0702,1.1313,-1.1181
6360,975,844,33.635,32.208,0.0068,-0.0022,9.9311,-0.1768,0.2577,0.6527
6365,976,841,33.628,32.166,0.0183,0.0703,9.7239,0.1471,0.0904,0.1909
6370,960,842,33.626,32.098,0.0051,0.019,9.761,0.1802,0.7014,-0.0981
6375,955,834,33.691,32.175,0.0217,0.0192,9.7891,0.1979,0.5623,0.7214
6380,946,840,33.543,32.187,0.0475,-0.0924,9.916,0.2259,-0.0715,0.2811
6385,943,831,33.559,32.258,0.0788,0.0623,9.7477,0.7891,-0.0012,0.3448
6390,938,833,33.537,32.325,0.0534,-0.043,9.772,0.1423,0.2873,-0.4669
6395,928,832,33.652,32.23,0.0337,0.0607,9.8819,-0.4158,-0.6014,0.4043
6400,910,838,33.623,32.213,0.0008,0.0305,9.7847,0.4988,-0.4333,-0.2236
6405,896,838,33.673,32.141,-0.0303,0.047,9.845,-0.0884,-0.3525,0.2485
6410,894,827,33.712,32.288,-0.0383,-0.0199,9.8192,-0.1125,0.6463,-0.4705
6415,887,832,33.689,32.277,0.0753,0.0195,9.8404,0.5008,0.0523,-0.3286
6420,885,833,33.683,32.226,0.0253,0.0319,9.8148,-0.2407,0.0305,-0.5964
6425,868,828,33.654,32.181,-0.0717,-0.0605,9.7543,-0.3414,0.444,0.3118
6430,857,825,33.624,32.314,-0.0955,0.024,9.8638,0.0393,-0.0535,0.2609
6435,842,836,33.678,32.29,0.0185,-0.1191,9.8423,0.4009,0.5842,0.0728
6440,838,828,33.634,32.23,0.1089,0.0037,9.8853,0.3551,-0.2909,-0.0737
6445,826,832,33.597,32.37,-0.0093,-0.0042,9.7961,-0.3022,-0.1287,-0.2374
6450,820,828,33.709,32.315,0.0258,-0.0055,9.8749,0.5463,0.4499,-0.4302
6455,812,827,33.642,32.184,-0.0725,0.0247,9.7851,-0.4434,0.066,0.7563
6460,798,828,33.638,32.261,0.0286,-0.0448,9.7043,-0.4209,0.3515,-0.249
6465,803,821,33.716,32.248,-0.0296,-0.0394,9.7881,-0.1333,-0.159,0.5535
6470,790,825,33.524,32.253,0.0725,0.022,9.9114,-0.0756,-0.9374,0.5835
6475,782,819,33.632,32.193,-0.0128,-0.0978,9.739,0.7806,-0.4389,0.2353
6480,764,819,33.565,32.262,-0.0516,0.0414,9.8233,0.4926,0.154,-0.2894
6485,767,817,33.644,32.23,0.016,-0.0236,9.8581,0.5562,0.3668,0.2989
6490,763,815,33.678,32.219,0.0324,0.069,9.8289,0.4788,1.2347,-0.42
6495,759,817,33.589,32.222,0.0797,0.077,9.7587,-0.3106,-0.3068,0.6968
6500,755,811,33.578,32.34,0.0108,-0.0045,9.779,0.0668,-0.2226,0.3051
6505,765,809,33.608,32.213,-0.0766,-0.1211,9.8351,0.0686,-0.4458,0.0428
6510,741,809,33.62,32.271,0.0051,0.0491,9.7982,0.2896,-0.3661,-0.0976
6515,748,807,33.606,32.173,0.0976,-0.0065,9.7955,-0.4324,-0.7985,0.511
6520,748,803,33.682,32.206,0.0743,-0.025,9.7808,0.1886,0.2632,-0.5657
6525,745,800,33.553,32.315,-0.0225,-0.041,9.8043,-0.5113,-0.5691,0.3817
6530,748,797,33.706,32.138,0.0496,0.0281,9.76,-0.5307,-0.2606,-0.3924
6535,747,794,33.568,32.192,-0.0375,0.0107,9.7654,-0.4117,0.9034,0.1415
6540,748,799,33.662,32.181,0.0412,-0.0387,9.9014,0.2709,0.4429,-0.9056
6545,757,801,33.631,32.18,0.0175,0.0299,9.829,0.8369,0.4488,-0.4116
6550,763,788,33.583,32.233,0.0563,0.0459,9.8719,0.5651,0.2867,0.0141
6555,755,786,33.587,32.22,-0.0001,-0.0649,9.8455,-0.0798,0.0216,-0.0868
6560,763,784,33.598,32.25,0.0019,-0.0239,9.7302,-0.0476,0.1478,-0.4737
6565,763,788,33.618,32.234,0.0223,0.0349,9.8148,0.1979,-0.1862,-0.3699
6570,781,778,33.65,32.286,0.0452,-0.0138,9.7546,0.8152,-0.2662,0.141
6575,790,776,33.708,32.252,-0.0334,0.0028,9.7918,0.1294,0.3692,0.2223
6580,800,772,33.568,32.325,0.0531,0.0044,9.7759,-0.3406,0.3984,-0.5339
6585,801,772,33.646,32.147,-0.0395,0.0252,9.874,0.7308,0.2657,0.2103
6590,803,765,33.602,32.265,-0.0,-0.0203,9.8424,0.0858,-0.122,0.8361
6595,818,764,33.609,32.295,-0.0646,0.1044,9.829,0.3404,0.5533,0.9872
6600,827,763,33.627,32.249,-0.0715,-0.0359,9.8363,-0.2732,0.0361,0.2934
6605,845,759,33.611,32.266,-0.0131,-0.0295,9.7496,0.5035,-0.9136,0.515
6610,848,756,33.572,32.207,0.0065,0.0247,9.7718,-0.143,0.0637,0.7017
6615,857,750,33.692,32.183,-0.0167,0.0389,9.8332,0.3392,0.1587,1.3627
6620,878,746,33.65,32.252,0.0666,0.0491,9.8117,-0.6557,0.2235,-0.1471
6625,887,741,33.608,32.249,0.0315,-0.0269,9.921,0.9857,-0.2429,-0.3317
6630,900,740,33.651,32.154,0.0085,0.0189,9.7527,-0.3333,-0.2345,-0.9817
6635,914,740,33.584,32.233,-0.0,-0.0085,9.9105,0.2879,0.1766,-0.6182
6640,919,736,33.691,32.239,0.0113,-0.0014,9.8598,-0.2772,-0.3132,-0.8299
6645,947,733,33.635,32.295,-0.0395,0.1101,9.9071,0.7682,0.0346,0.0113
6650,954,734,33.743,32.263,0.0034,-0.0122,9.8187,0.3663,0.1048,0.327
6655,966,729,33.509,32.316,0.0194,0.0087,9.8156,0.1943,0.736,0.2634
6660,981,725,33.62,32.274,0.0235,0.0186,9.7751,-0.5234,0.3236,-0.5025
6665,977,724,33.594,32.267,-0.0164,0.0233,9.8768,-0.4698,-0.5781,0.0775
6670,1003,727,33.626,32.266,0.0201,-0.0539,9.8244,-0.7193,-0.1112,0.2798
6675,1009,721,33.625,32.298,-0.0175,-0.0273,9.9366,-0.8271,0.4661,0.1929
6680,1029,720,33.603,32.156,0.012,0.0117,9.7004,-0.4213,0.0087,-0.1708
6685,1040,716,33.6,32.199,-0.0582,0.0911,9.8237,1.3893,-0.0151,-0.7048
6690,1044,712,33.666,32.304,0.0183,-0.0103,9.8454,-0.2779,0.1898,-0.8807
6695,1058,721,33.626,32.308,-0.0785,0.0903,9.7445,0.1485,0.2903,-0.4444
6700,1075,711,33.617,32.253,0.0121,0.0543,9.7618,0.8645,0.1716,0.1736
6705,1083,717,33.61,32.235,-0.0399,0.0037,9.6999,-0.3573,0.2046,-0.4895
6710,1105,718,33.619,32.212,-0.0463,0.029,9.8122,0.5271,0.447,-0.7712
6715,1098,716,33.67,32.234,0.0586,0.0511,9.8353,-0.0127,-0.114,0.3856
6720,1121,714,33.677,32.195,0.0732,0.0386,9.8622,-0.4944,-0.0587,-0.181
6725,1127,724,33.568,32.224,0.0281,0.1019,9.8021,-1.1798,0.1711,0.0835
6730,1134,721,33.657,32.328,-0.0503,-0.0526,9.8415,-0.8001,-0.4625,0.2583
6735,1139,722,33.61,32.224,-0.0249,-0.018,9.8434,-0.9303,-0.1909,0.0324
6740,1152,723,33.615,32.184,-0.0958,0.0239,9.736,-0.2899,-0.1611,0.2146
6745,1158,720,33.576,32.26,-0.024,0.059,9.8397,-0.0236,0.298,-0.6823
6750,1155,723,33.659,32.309,0.0227,0.0865,9.8237,-0.0002,-0.1931,0.1917
6755,1163,726,33.53,32.314,0.0082,-0.0444,9.8138,-0.0371,-0.2652,-0.1554
6760,1179,726,33.532,32.234,-0.0815,0.0484,9.887,0.0376,-0.2191,-0.8697
6765,1180,735,33.697,32.241,-0.0494,0.009,9.8241,-0.1056,-0.802,-1.1002
6770,1179,731,33.545,32.242,-0.0971,0.0231,9.8413,0.2496,0.2394,0.0328
6775,1183,739,33.647,32.274,0.0453,-0.0771,9.82,-0.3556,0.532,0.0648
6780,1185,743,33.678,32.167,-0.032,0.0009,9.7959,0.7817,0.399,0.3304
6785,1196,737,33.659,32.214,-0.0113,-0.0213,9.7438,-0.3322,-0.3159,-0.3587
6790,1186,744,33.587,32.273,0.021,-0.0637,9.8037,0.6676,-0.352,0.0307
6795,1178,750,33.631,32.193,0.0076,0.1658,9.8566,-0.1882,0.3034,-0.3011
6800,1183,756,33.601,32.196,0.0073,0.0603,9.841,0.4719,0.2687,0.5469
6805,1193,762,33.663,32.285,0.015,0.0312,9.8895,0.38,0.1806,0.1013
6810,1189,761,33.556,32.186,0.0665,-0.0713,9.8818,0.6596,0.0361,0.5628
6815,1194,766,33.688,32.202,-0.0416,0.0573,9.7191,-0.2708,0.0723,0.098
6820,1184,769,33.691,32.241,-0.0535,-0.0822,9.8164,-0.1518,-1.4615,-0.0465
6825,1187,778,33.674,32.305,0.1168,0.0615,9.9012,-0.3478,0.0533,1.0372
6830,1180,778,33.669,32.175,0.046,-0.0366,9.776,1.0751,0.9317,0.5685
6835,1177,779,33.597,32.261,-0.0006,-0.0702,9.8667,-0.3101,-0.8964,-0.6059
6840,1177,787,33.513,32.204,0.0536,0.0731,9.8052,-0.1742,0.3131,-0.459
6845,1180,796,33.647,32.25,-0.0019,-0.0469,9.83,-0.5172,0.7716,0.7801
6850,1161,796,33.7,32.214,-0.0249,-0.0228,9.853,-0.0441,0.57,0.0348
6855,1170,802,33.632,32.196,-0.0493,-0.0129,9.8712,0.224,0.3086,0.1492
6860,1165,803,33.649,32.159,-0.0422,-0.0199,9.7646,0.0828,0.0371,-0.1076
6865,1164,805,33.574,32.21,-0.0016,-0.1131,9.736,-0.4481,-0.615,0.0902
6870,1158,814,33.668,32.291,-0.0079,-0.0319,9.9099,1.0607,0.3907,0.4603
6875,1152,817,33.582,32.26,0.054,-0.0601,9.873,0.0531,0.7317,-0.4483
6880,1144,822,33.728,32.27,0.0484,0.0069,9.8327,1.0481,0.5185,-0.1754
6885,1139,826,33.635,32.213,0.0381,-0.0364,9.8621,-0.0572,0.3221,-0.3829
6890,1137,830,33.697,32.231,0.0287,-0.0587,9.8532,-0.2891,-0.2181,-0.3091
6895,1140,833,33.664,32.232,-0.0273,0.091,9.7855,0.0155,-0.5184,0.1453
6900,1140,831,33.69,32.304,0.0664,-0.0006,9.7402,-0.4402,0.0128,0.2192
6905,1129,845,33.645,32.224,-0.0666,0.1036,9.7776,0.2562,0.7154,0.1058
6910,1126,841,33.642,32.169,0.1192,-0.0043,9.7686,0.0671,0.0608,0.2102
6915,1127,842,33.603,32.265,-0.0224,-0.0105,9.7721,-0.047,-0.0768,-0.1931
6920,1120,846,33.558,32.184,-0.0852,0.0396,9.7506,0.0675,0.8817,-0.6574
6925,1116,847,33.601,32.253,0.0069,-0.0417,9.866,0.1051,0.3034,0.2383
6930,1117,849,33.656,32.272,-0.0451,0.0612,9.8114,0.4599,0.1729,-0.2038
6935,1120,855,33.58,32.231,-0.1093,0.0543,9.8193,0.0379,-0.1583,0.2551
6940,1102,860,33.577,32.286,-0.0087,-0.0733,9.8355,-0.2485,0.4027,-0.0671
6945,1110,859,33.56,32.266,-0.0001,-0.0134,9.7911,-0.8328,-0.0791,0.8472
6950,1101,857,33.613,32.308,0.0482,-0.0011,9.8539,0.1257,0.1345,0.7034
6955,1102,858,33.612,32.124,0.0533,0.0004,9.8189,-0.263,0.2418,-0.4543
6960,1111,858,33.685,32.284,-0.0049,-0.019,9.8363,-0.5227,0.4848,0.4556
6965,1103,864,33.585,32.229,0.0526,0.0195,9.8317,-0.2837,0.7127,0.3129
6970,1088,862,33.642,32.288,0.032,-0.0629,9.8376,-1.129,-0.1457,-0.9651
6975,1082,868,33.648,32.305,0.0388,-0.0164,9.7782,-0.4911,-0.9277,0.6751
6980,1092,867,33.643,32.314,-0.0665,0.0281,9.8112,0.1964,-0.4293,-0.7254
6985,1090,866,33.71,32.333,-0.0685,0.0308,9.7511,-0.6311,0.0923,-0.0335
6990,1096,864,33.678,32.328,-0.038,-0.0351,9.8383,1.0987,-0.1004,0.4521
6995,1085,860,33.674,32.244,0.0866,0.007,9.7813,0.0936,-0.2265,-0.0349
7000,1078,869,33.61,32.108,0.0068,0.0537,9.86,-0.0192,1.1003,0.1003
7005,1083,859,33.532,32.222,-0.0256,-0.0255,9.8816,0.037,-0.3268,-0.2531
7010,1077,858,33.662,32.228,-0.023,-0.0365,9.8328,0.2058,-0.3969,-0.3539
7015,1077,862,33.6,32.222,-0.0628,0.0031,9.7991,-1.1249,0.5437,0.1707
7020,1068,858,33.677,32.178,0.0689,0.0318,9.7261,0.5006,-0.0151,-0.3391
7025,1074,861,33.661,32.23,-0.0102,-0.0238,9.8412,-0.9669,-0.4773,-0.1704
7030,1068,857,33.608,32.166,0.0781,-0.0404,9.7918,0.2238,-0.0769,-0.6155
7035,1061,863,33.489,32.394,-0.0224,-0.0606,9.7966,0.5324,-0.2081,0.6565
7040,1055,857,33.669,32.225,-0.0656,-0.0711,9.7807,0.2564,0.3449,-0.6236
7045,1060,852,33.543,32.266,0.0586,-0.0722,9.785,0.6965,0.2495,0.5397
7050,1058,855,33.622,32.188,0.0674,-0.0115,9.8087,0.5301,-0.1168,-0.5147
7055,1035,857,33.726,32.18,0.0034,-0.0894,9.7795,0.4308,0.1589,-0.1471
7060,1045,851,33.595,32.258,-0.0439,0.0508,9.8262,-0.1916,0.0317,0.432
7065,1028,851,33.671,32.235,-0.0837,-0.0153,9.8369,0.1752,0.1047,0.6413
7070,1019,850,33.574,32.214,-0.0295,-0.0028,9.856,0.1672,0.5589,0.4864
7075,1023,850,33.693,32.302,0.0248,0.0244,9.7984,-0.4112,-0.4265,-0.9477
7080,1012,850,33.755,32.247,-0.0231,-0.0333,9.8905,-0.7441,0.0514,-1.1004
7085,1011,842,33.682,32.199,-0.0391,0.0681,9.8451,-0.2622,0.1057,-0.0648
7090,1000,843,33.545,32.175,0.0593,0.0266,9.723,-1.1285,-0.5528,0.822
7095,996,847,33.694,32.222,-0.0866,-0.0401,9.7395,0.2193,0.4826,0.0206
7100,989,845,33.675,32.212,-0.0658,0.045,9.7602,-0.3377,0.0302,0.0836
7105,982,846,33.59,32.329,-0.014,-0.0475,9.8492,0.364,0.5428,-0.0194
7110,981,839,33.694,32.291,-0.0092,0.0094,9.8325,-0.7433,0.2649,-0.0463
7115,970,832,33.63,32.124,-0.02,0.0258,9.9146,0.7139,0.154,0.4282
7120,955,842,33.623,32.31,-0.024,-0.0334,9.8738,0.0826,-0.1405,-0.1743
7125,952,839,33.599,32.158,0.0006,0.0427,9.8928,-0.4442,-0.1012,0.2777
7130,946,836,33.641,32.16,0.0312,0.0147,9.7796,0.2092,0.2077,-0.6207
7135,927,835,33.703,32.276,-0.0367,0.0382,9.7826,-0.1487,-0.7861,-0.2418
7140,921,832,33.724,32.218,0.02,-0.013,9.7796,0.4547,-0.0317,-0.3447
7145,911,835,33.655,32.149,0.022,0.0202,9.8636,0.3097,-0.214,-0.4738
7150,906,836,33.59,32.216,0.0798,-0.047,9.7852,-0.3317,0.0462,-0.3024
7155,901,833,33.702,32.227,0.0155,0.0015,9.7516,0.4811,0.5751,-0.4919
7160,892,827,33.629,32.246,0.0068,-0.0107,9.8496,-0.2509,0.2122,-0.0001
7165,867,835,33.586,32.193,0.0214,0.0152,9.8113,0.1562,-0.2622,-0.135
7170,855,829,33.627,32.225,-0.0053,0.0246,9.8561,0.0322,0.5389,0.2621
7175,857,832,33.663,32.301,0.0494,-0.0461,9.7694,0.349,-1.1175,-0.7713
7180,843,828,33.579,32.24,-0.0063,-0.003,9.7631,-0.5328,0.1417,0.6442
7185,843,828,33.608,32.311,0.0212,0.0328,9.8499,0.0959,0.5116,-0.5099
7190,830,820,33.635,32.257,-0.0156,-0.0392,9.8489,-0.001,-0.3421,0.1316
7195,813,823,33.614,32.216,0.0582,-0.0076,9.8345,-0.0505,0.6843,-0.0025
7200,814,823,33.616,32.209,0.0148,-0.0056,9.833,0.1543,0.3624,0.1879
7205,793,824,33.573,32.313,0.0422,0.0152,9.7866,0.0072,-0.0506,0.5794
7210,795,824,33.715,32.188,-0.0627,-0.0341,9.7884,-0.8376,0.6193,0.299
7215,786,822,33.675,32.142,-0.0501,-0.0065,9.7796,0.3022,-1.3519,0.4842
7220,778,819,33.552,32.229,-0.0949,0.0432,9.8155,-0.4756,0.4181,0.1616
7225,773,820,33.599,32.198,0.0786,-0.0177,9.7822,-0.5748,-0.0551,-0.825
7230,763,819,33.52,32.225,-0.0587,-0.0526,9.8017,-0.4374,-0.0042,-0.1959
7235,760,816,33.573,32.189,0.0149,-0.054,9.8861,-0.4381,0.8068,-0.1455
7240,757,809,33.63,32.193,-0.0428,-0.0171,9.8197,-0.1866,-0.1784,-0.0432
7245,751,809,33.623,32.227,-0.0569,0.0537,9.727,-0.0674,-0.4703,0.0805
7250,748,807,33.599,32.196,-0.1,-0.0125,9.8721,0.2522,1.0709,0.3989
7255,751,814,33.635,32.214,-0.0037,0.0778,9.7901,0.2841,0.1201,0.532
7260,756,807,33.629,32.282,0.0871,-0.015,9.8013,0.1789,0.3059,0.917
7265,748,805,33.732,32.233,-0.0702,-0.0289,9.8215,0.1957,-0.4147,0.2199
7270,746,803,33.483,32.133,-0.0597,0.0663,9.8775,-0.0077,0.1682,-0.4657
7275,757,804,33.614,32.315,-0.015,-0.0653,9.7998,0.1249,-0.0708,0.8697
7280,739,798,33.677,32.26,0.0448,0.061,9.7877,0.706,-0.3698,0.1813
7285,751,793,33.642,32.293,0.003,0.0371,9.7495,-0.0769,-0.7356,0.4521
7290,754,795,33.593,32.24,-0.0362,-0.0259,9.834,0.3703,-0.3871,-0.1126
7295,764,788,33.682,32.279,-0.0593,0.0029,9.9518,0.2161,-0.3948,-0.3367
7300,764,786,33.576,32.272,-0.0278,0.0533,9.7253,-0.1024,-0.1037,-0.0159
7305,779,788,33.607,32.229,0.1504,-0.0561,9.7699,0.119,-0.0355,-0.2533
7310,773,779,33.583,32.189,0.0227,0.1037,9.7432,0.0046,-0.8526,-0.5117
7315,791,787,33.575,32.114,0.067,-0.0009,9.7681,-0.3222,0.6697,-0.3573
7320,782,776,33.689,32.218,-0.0642,-0.0192,9.8233,-0.4054,-0.0213,-0.0085
7325,796,774,33.614,32.242,0.0626,-0.0869,9.822,0.064,-0.038,-0.1521
7330,803,770,33.622,32.236,0.022,0.0614,9.8133,0.3907,0.3117,1.003
7335,817,766,33.631,32.148,-0.0544,-0.0626,9.9038,0.0752,-0.5016,0.3575
7340,825,761,33.57,32.289,-0.0726,-0.0243,9.84,0.4116,-0.9379,-0.1256
7345,837,761,33.6,32.251,0.0447,0.0458,9.8198,1.1521,-0.3553,0.2487
7350,848,756,33.606,32.206,-0.0242,0.0249,9.7698,-0.0382,-0.2677,0.5387
7355,851,752,33.627,32.104,0.0134,0.009,9.8302,0.3169,0.3993,0.3662
7360,873,750,33.665,32.227,0.1113,-0.0001,9.7705,-0.6077,0.3592,0.3762
7365,883,750,33.625,32.248,-0.0692,0.0055,9.824,-0.2451,-0.5004,-0.4437
7370,890,745,33.575,32.279,0.0319,-0.032,9.7882,0.1951,0.5853,0.7632
7375,901,739,33.7,32.225,0.0603,0.0515,9.8567,0.5888,-0.1494,0.6256
7380,914,735,33.662,32.15,-0.0146,-0.0096,9.7853,0.0714,0.3335,-0.2081
7385,924,730,33.562,32.244,0.0416,0.0317,9.8952,0.3147,0.8122,0.849
7390,943,729,33.686,32.29,0.0298,-0.0196,9.8505,0.2306,-0.1944,0.9674
7395,963,729,33.704,32.201,0.0155,0.0154,9.8178,-0.7107,-0.4929,1.7161
7400,971,722,33.576,32.239,-0.0696,-0.0194,9.8706,0.4127,-0.4262,0.3511
7405,977,724,33.552,32.285,0.1214,0.0034,9.8237,-0.1418,0.4384,0.7577
7410,1000,720,33.577,32.149,0.0549,0.0359,9.8721,-0.5708,0.2042,0.0486
7415,1008,721,33.62,32.256,-0.0478,-0.0219,9.8872,-0.023,0.0159,-0.4316
7420,1020,715,33.554,32.238,0.0597,0.0307,9.8059,-0.1388,-0.3461,-0.0348
7425,1034,717,33.623,32.216,0.0274,0.07,9.8262,-0.3857,-0.2536,-0.5161
7430,1041,717,33.588,32.304,0.0154,0.0193,9.812,0.4294,-0.4021,0.2144
7435,1056,712,33.708,32.297,-0.001,-0.0028,9.7948,0.2136,0.5274,-0.0911
7440,1058,714,33.556,32.286,0.0116,-0.0677,9.8158,-0.1783,0.13,0.6958
7445,1079,714,33.668,32.296,-0.0125,0.0677,9.8536,0.3838,-0.1236,-0.2109
7450,1088,717,33.641,32.284,-0.0578,0.0005,9.8244,-0.1771,1.0911,-0.1963
7455,1095,715,33.536,32.275,-0.0245,0.0088,9.7971,-0.4603,0.4088,0.1112
7460,1114,711,33.615,32.262,0.0142,0.0459,9.8283,-0.5443,-0.1774,-0.1196
7465,1119,714,33.674,32.203,-0.0298,0.0834,9.89,0.1073,-0.0684,-0.29
7470,1129,709,33.655,32.245,-0.0279,0.0236,9.7659,0.0118,0.6422,-0.1146
7475,1135,717,33.642,32.218,-0.0046,0.0546,9.7931,0.6081,-0.7705,-0.6554
7480,1144,720,33.62,32.285,0.0209,-0.0037,9.8411,-0.3483,-0.1004,-0.4596
7485,1143,722,33.621,32.227,-0.0575,0.129,9.8625,-0.6692,-0.2545,-0.4246
7490,1157,726,33.624,32.283,-0.008,0.0506,9.8391,0.7444,-0.0325,-0.2905
7495,1164,724,33.689,32.271,-0.0017,0.0552,9.8329,0.7888,0.5844,0.8972
7500,1166,722,33.59,32.268,0.0175,0.0949,9.8712,0.4071,-0.7632,-0.326
7505,1164,729,33.664,32.149,-0.0534,0.1212,9.7442,-0.181,-0.2229,0.5679
7510,1173,735,33.588,32.242,-0.0952,0.01,9.8414,0.183,0.2985,0.3578
7515,1186,732,33.567,32.256,-0.0533,0.0044,9.883,-0.0704,0.8101,0.4097
7520,1176,739,33.728,32.118,-0.0699,0.0213,9.749,-0.3844,-0.0046,-0.2334
7525,1176,738,33.568,32.296,-0.046,0.0059,9.7478,-0.0996,-0.4031,-0.2689
7530,1187,747,33.566,32.281,0.0335,-0.0328,9.855,-0.3914,0.1049,0.6221
7535,1187,750,33.652,32.229,-0.0417,0.0093,9.8125,0.5014,-0.0061,0.02
7540,1188,751,33.615,32.26,0.0987,-0.0135,9.8715,0.4612,0.3544,0.0999
7545,1191,757,33.621,32.212,0.0641,0.0294,9.7342,0.1573,-0.4837,1.0343
7550,1196,761,33.687,32.288,-0.0286,0.0007,9.8596,0.2749,-0.382,-0.2803
7555,1186,766,33.639,32.33,-0.0598,0.0631,9.8079,-0.5499,-0.3376,0.2983
7560,1186,767,33.671,32.309,-0.1421,0.1056,9.8644,0.5382,-0.0884,-0.2585
7565,1193,775,33.637,32.231,-0.0378,0.0885,9.8422,0.7011,-0.1466,0.6059
7570,1180,778,33.64,32.287,0.0315,0.0171,9.7795,-0.5072,0.6351,-0.3407
7575,1177,781,33.72,32.197,-0.0351,-0.0218,9.8384,0.5855,-0.2498,-0.3664
7580,1186,782,33.691,32.265,-0.0262,-0.0353,9.8432,-0.191,1.0609,0.063
7585,1173,792,33.624,32.276,-0.0481,0.0891,9.8373,-0.7194,-0.5838,-0.0743
7590,1174,793,33.604,32.248,-0.0784,-0.0371,9.8221,-0.1697,-0.2848,-0.0069
7595,1176,797,33.661,32.324,-0.0032,-0.0542,9.8725,-0.1361,1.0577,0.5437
7600,1153,804,33.579,32.242,-0.0572,0.0351,9.7995,-0.2842,-0.2699,-0.7278
7605,1150,808,33.566,32.288,-0.0305,-0.0413,9.8842,-0.1742,0.5307,-0.1617
7610,1168,810,33.643,32.226,-0.0398,0.0219,9.8738,0.032,1.0071,0.3708
7615,1152,816,33.649,32.259,0.0028,0.0272,9.6885,-0.3041,0.3567,1.0367
7620,1151,818,33.677,32.32,-0.0318,-0.0103,9.7972,0.5801,-0.5511,0.5048
7625,1157,821,33.662,32.296,0.0041,0.0433,9.7974,0.4225,0.3021,-0.0742
7630,1140,836,33.649,32.294,-0.0138,-0.0021,9.7635,0.8147,0.5651,-0.8073
7635,1140,827,33.626,32.24,0.0353,-0.0961,9.8072,0.0349,-0.3335,-0.7797
7640,1146,830,33.605,32.232,-0.0551,0.1086,9.8237,0.4682,0.2421,0.6124
7645,1129,840,33.732,32.252,0.0506,-0.012,9.7252,0.0307,-0.5606,-0.4383
7650,1133,842,33.637,32.278,0.031,-0.0441,9.9021,-0.8959,-0.3004,-0.4926
7655,1130,840,33.655,32.229,-0.027,-0.0442,9.793,-0.8484,-0.1542,-0.3659
7660,1130,844,33.666,32.18,-0.0162,-0.0493,9.7848,0.3581,0.4045,0.1647
7665,1122,850,33.7,32.135,-0.0528,-0.0211,9.8418,-0.5383,-0.7481,-0.6914
7670,1121,849,33.686,32.263,-0.0481,0.0565,9.7948,0.0848,-0.1369,-0.5832
7675,1118,853,33.599,32.285,0.0394,0.0151,9.7764,0.0111,-0.0365,-0.7015
7680,1114,849,33.581,32.235,-0.0545,-0.0255,9.7957,0.3363,-0.229,0.2405
7685,1111,851,33.65,32.176,-0.0585,0.0505,9.8236,-0.2268,-0.3353,0.2224
7690,1106,864,33.61,32.234,0.092,-0.0622,9.7863,0.0035,0.2315,-0.2858
7695,1105,861,33.601,32.242,-0.0724,0.0393,9.7491,-0.4164,-0.4989,-0.1569
7700,1118,864,33.643,32.288,0.0129,0.0422,9.8269,0.4035,0.4041,-0.1705
7705,1099,862,33.529,32.214,0.0217,-0.0416,9.9333,-0.2734,0.0883,0.3657
7710,1095,864,33.626,32.205,-0.0411,0.0479,9.9146,0.7237,-0.5962,-0.0037
7715,1102,866,33.653,32.251,-0.0346,0.0427,9.7221,-0.7048,-0.4554,-0.4447
7720,1095,867,33.661,32.132,-0.1005,0.047,9.8295,0.353,0.2543,0.5238
7725,1092,864,33.636,32.182,-0.0234,-0.0124,9.8681,0.0055,0.1591,0.6312
7730,1095,860,33.643,32.232,-0.0271,0.0588,9.8277,-0.1,-0.4641,0.1795
7735,1086,865,33.629,32.208,-0.0706,-0.0488,9.8136,-0.4671,0.6431,0.5615
7740,1084,857,33.582,32.255,0.0003,-0.0836,9.8154,0.3797,0.6675,-0.1
7745,1076,863,33.563,32.17,-0.0407,0.0194,9.9094,-0.0171,0.0624,0.3343
7750,1087,861,33.65,32.155,-0.0675,0.0164,9.8519,0.2196,0.1264,-0.0174
7755,1071,860,33.694,32.264,0.0799,-0.0408,9.7942,0.1067,-0.225,-0.4347
7760,1077,859,33.45,32.223,-0.0264,0.0523,9.7107,0.3951,0.0377,-0.0189
7765,1072,863,33.608,32.289,0.0181,-0.0476,9.8712,-0.7677,-0.4105,1.2724
7770,1073,863,33.567,32.188,-0.0242,0.0654,9.7848,-0.3109,-0.0793,-0.2971
7775,1056,856,33.639,32.262,0.0604,0.0307,9.8196,1.0771,0.785,-0.5026
7780,1056,859,33.588,32.243,0.0149,-0.0035,9.7843,-0.4901,-0.0513,0.7235
7785,1061,851,33.623,32.191,-0.016,-0.0797,9.8096,0.4261,-0.0415,0.0834
7790,1049,856,33.615,32.246,0.111,0.0482,9.7787,0.5144,0.3672,-0.1866
7795,1047,856,33.625,32.227,0.0151,-0.04,9.8568,-0.2926,-0.2603,-0.8689
7800,1053,854,33.609,32.199,-0.0383,-0.0427,9.767,-0.4567,-0.3382,-0.0383
7805,1026,851,33.706,32.257,0.0146,-0.0128,9.7987,0.439,0.4911,0.5637
7810,1023,846,33.723,32.17,0.0014,-0.0547,9.7435,-0.0057,-0.2913,-1.0779
7815,1032,847,33.641,32.204,-0.0207,-0.0329,9.8087,0.9407,-0.0489,0.3946
7820,1028,850,33.621,32.245,-0.0492,-0.036,9.8557,-1.1025,0.3276,-0.4859
7825,1020,851,33.694,32.158,-0.0564,-0.0737,9.7677,-0.3426,-0.0932,0.6639
7830,1005,843,33.567,32.308,-0.0277,-0.0097,9.856,-0.878,0.5543,0.418
7835,997,847,33.629,32.216,-0.043,0.0327,9.7672,0.6491,0.1277,0.6776
7840,993,841,33.672,32.274,-0.0084,0.0429,9.8876,-0.9964,0.2865,0.0444
7845,986,846,33.672,32.243,-0.056,-0.0388,9.7658,0.5681,0.2444,-0.7905
7850,982,840,33.616,32.224,-0.0156,-0.0063,9.7696,0.4033,-0.5106,0.939
7855,972,835,33.67,32.173,-0.0497,-0.0435,9.808,-0.0621,0.1709,0.6781
7860,974,837,33.734,32.19,-0.0223,0.1219,9.8015,-0.303,-0.023,-0.2774
7865,946,836,33.621,32.289,0.096,0.1237,9.9067,-0.7352,1.5109,-0.3661
7870,944,836,33.651,32.174,0.0577,0.0084,9.7878,0.756,-0.2721,0.4397
7875,935,836,33.641,32.285,-0.0129,-0.0148,9.8675,0.3484,1.0465,0.3275
7880,924,835,33.687,32.262,-0.0347,0.0604,9.8936,1.2258,-0.831,-1.4286
7885,921,835,33.665,32.198,-0.0044,-0.025,9.731,0.4408,0.6437,0.5806
7890,911,838,33.641,32.172,-0.0146,-0.0146,9.8962,-0.9746,-0.3359,-0.4255
7895,898,834,33.7,32.224,0.0099,0.019,9.7395,-0.5454,-0.0754,0.1149
7900,879,833,33.598,32.291,-0.1358,0.0002,9.7466,0.1497,-0.1999,0.4865
7905,869,828,33.721,32.222,0.0911,0.0512,9.8032,-0.5128,0.1736,-0.7533
7910,871,823,33.704,32.276,-0.0004,-0.0644,9.734,0.3014,-0.3085,0.682
7915,851,831,33.652,32.25,-0.0343,-0.0021,9.8532,-1.1784,0.0032,0.3324
7920,843,829,33.517,32.284,0.0385,-0.0151,9.8444,0.5749,0.5318,-0.2307
7925,841,828,33.75,32.311,0.0082,0.0148,9.8094,0.349,-0.3519,0.5582
7930,830,827,33.633,32.302,-0.0137,-0.0497,9.7521,0.4858,0.2735,0.1545
7935,814,828,33.691,32.199,0.003,-0.0218,9.7048,-0.1586,0.9812,0.319
7940,813,825,33.559,32.218,0.0658,-0.0215,9.8544,0.1935,-0.606,0.6156
7945,806,825,33.664,32.226,-0.0097,-0.0079,9.76,1.0561,0.7369,1.3647
7950,793,820,33.618,32.266,-0.0314,0.0132,9.7987,0.4345,-0.9969,0.4159
7955,796,824,33.654,32.136,-0.0501,0.0259,9.7706,0.3211,0.9439,0.6735
7960,788,822,33.669,32.21,-0.0503,-0.0821,9.9057,0.1267,-0.6429,-0.1601
7965,783,821,33.686,32.287,0.0303,-0.057,9.8272,-0.9853,-0.3702,0.4557
7970,768,816,33.68,32.284,-0.0408,0.0006,9.9102,0.1207,0.2582,0.2055
7975,773,813,33.566,32.287,0.027,0.0748,9.7683,-0.9286,0.7264,0.1782
7980,759,813,33.557,32.218,0.0802,-0.0163,9.7723,0.0364,0.1572,-0.2663
7985,761,807,33.656,32.261,-0.0244,0.013,9.7445,0.3032,-0.3289,0.3983
7990,757,812,33.593,32.256,-0.0585,-0.0849,9.7853,0.1225,0.5827,-0.5295
7995,740,809,33.609,32.27,0.0356,0.0216,9.8082,0.5412,-0.2299,-0.258
8000,759,805,33.584,32.304,-0.0585,0.0219,9.8868,0.3331,-0.6135,0.34
8005,746,808,33.656,32.216,-0.0765,0.0656,9.8396,-0.3539,-0.4887,0.607
8010,745,803,33.631,32.229,0.0294,-0.0868,9.8471,-0.1379,-0.6847,0.2873
8015,749,797,33.579,32.29,-0.0121,0.0393,9.8316,0.0846,-0.02,0.2401
8020,739,793,33.617,32.291,-0.0318,-0.0129,9.8463,-0.0362,0.786,-0.6876
8025,746,795,33.643,32.238,-0.0116,-0.0138,9.7605,-0.1131,0.0184,0.1819
8029,753,799,33.706,32.279,-0.0821,-0.0085,9.8225,-0.6364,-0.8421,-0.0043
8035,763,792,33.642,32.246,0.0402,0.0165,9.8448,-0.4313,0.2728,-0.3548
8039,754,782,33.666,32.273,0.018,0.007,9.8677,-0.27,0.0417,0.3133
8045,762,788,33.742,32.245,-0.0722,0.1214,9.8792,-0.0629,0.0561,0.1104
8050,767,783,33.597,32.257,0.0066,0.0823,9.7242,0.7237,0.7513,-1.4151
8055,778,781,33.673,32.308,-0.0369,-0.0515,9.7332,-0.1523,1.1757,1.0831
8060,791,776,33.675,32.24,0.092,-0.0134,9.7715,-0.4272,-0.2291,0.5872
8064,785,776,33.686,32.203,-0.0261,-0.0371,9.8025,0.4629,-1.2706,-0.459
8070,797,769,33.565,32.16,-0.0142,-0.1258,9.7871,0.6024,0.1659,0.1226
8074,804,771,33.718,32.328,0.031,0.0518,9.7741,1.3434,-0.5531,0.1304
8080,813,768,33.642,32.22,0.0448,0.0337,9.7329,0.4185,1.3301,0.173
8085,826,762,33.694,32.256,-0.0566,-0.0091,9.8284,0.1912,0.3149,-0.4401
8090,830,754,33.593,32.218,0.0829,-0.0889,9.8362,-0.2166,0.0015,0.3101
8095,849,751,33.58,32.259,0.0331,0.0585,9.7907,0.4185,-0.4261,0.5083
8100,854,756,33.607,32.209,0.0636,0.0104,9.7577,0.8005,-0.0446,-0.2489
8105,861,749,33.538,32.186,-0.0039,0.0381,9.9273,-0.6987,-0.2173,-0.0748
8109,888,747,33.605,32.214,-0.0841,0.0066,9.7535,-0.0707,-0.2343,-0.3327
8115,894,746,33.647,32.236,-0.0469,0.0728,9.7207,1.0971,0.0513,-0.06
8119,905,741,33.626,32.27,0.0694,-0.0144,9.8152,-0.078,-0.7218,0.5598
8125,932,739,33.596,32.195,0.0575,-0.068,9.8174,-1.2239,-0.4777,0.5623
8130,935,733,33.597,32.17,-0.0165,0.0613,9.8884,-0.0021,1.0791,0.4001
8135,945,729,33.755,32.245,0.0339,-0.0654,9.8779,0.07,-0.111,0.6945
8140,958,727,33.59,32.225,0.0021,-0.0646,9.8132,0.0824,0.1109,-0.8175
8145,982,728,33.635,32.342,-0.0628,-0.0238,9.727,-0.6745,0.5226,-0.5981
8150,985,718,33.634,32.252,-0.0021,0.05,9.8065,-0.397,-0.6085,-0.1227
8154,998,722,33.556,32.242,-0.0023,-0.0867,9.7886,-0.3758,0.414,0.1586
8160,1019,722,33.623,32.314,0.0421,0.0875,9.7246,0.2974,0.1115,0.3193
8164,1023,717,33.621,32.324,-0.0114,-0.0375,9.8488,-0.572,-1.0293,0.3581
8170,1034,720,33.563,32.176,-0.0096,0.0564,9.8062,0.4671,-0.505,-0.179
8175,1050,717,33.653,32.281,0.0525,0.0011,9.9191,0.7771,-0.3629,0.5541
8180,1063,714,33.599,32.274,0.0315,0.0778,9.8444,0.5514,0.4776,-0.0713
8185,1079,724,33.658,32.226,0.0102,0.0427,9.8357,0.2538,-0.0513,-0.2108
8189,1090,718,33.649,32.255,0.1161,-0.0282,9.8342,0.1002,-0.1117,0.1719
8195,1095,717,33.615,32.207,0.0411,0.0103,9.8111,-1.2555,0.0555,-0.1079
8200,1097,722,33.628,32.186,0.1001,-0.0647,9.785,-0.1251,0.023,-0.8644
8205,1114,716,33.563,32.262,-0.0297,-0.0573,9.8622,-0.3733,0.321,-0.336
8210,1123,719,33.617,32.265,0.0794,0.0017,9.8785,0.3538,-0.0279,0.044
8215,1125,721,33.66,32.212,0.0051,0.0269,9.8227,-0.0766,-0.1394,0.4374
8220,1136,722,33.689,32.21,0.0099,-0.0034,9.7664,0.4008,-0.432,-0.7185
8225,1144,721,33.695,32.231,-0.0281,-0.0986,9.7709,-0.3397,0.0812,0.1858
8230,1148,717,33.625,32.271,0.0488,-0.0194,9.8286,0.0806,0.0483,0.8306
8235,1156,725,33.637,32.285,0.0438,0.01,9.7968,0.3697,-0.1082,-1.1095
8240,1165,723,33.676,32.184,0.0291,-0.0649,9.8484,0.8521,0.2611,0.0417
8245,1169,727,33.634,32.181,0.0391,-0.0707,9.8016,0.5024,-1.3148,0.7002
8250,1171,729,33.588,32.342,0.0203,0.0294,9.8507,-0.3355,-0.3617,-0.0912
8255,1181,734,33.685,32.288,0.0338,-0.0873,9.8487,-0.2127,0.3229,-0.2823
8260,1179,733,33.702,32.23,0.0216,0.0301,9.9008,-0.0627,-0.53,-0.0222
8265,1180,740,33.574,32.284,0.0059,-0.0789,9.7753,-0.5406,0.8052,0.4054
8270,1184,739,33.639,32.297,0.065,0.0565,9.8579,0.7282,-0.6503,-0.123
8275,1195,746,33.653,32.272,0.0208,0.0628,9.9062,0.4103,-0.1082,0.2438
8280,1185,749,33.833,32.146,-0.065,-0.0538,9.8374,-0.3092,-0.3548,-0.6246
8285,1183,755,33.583,32.166,-0.0062,0.0154,9.8744,-0.2379,1.225,-0.3749
8290,1187,758,33.549,32.227,-0.0181,0.0715,9.8506,0.1847,-0.7095,-0.6399
8295,1187,760,33.692,32.224,-0.0819,-0.0208,9.9378,0.8421,-0.2493,0.459
8300,1190,767,33.691,32.23,-0.0135,-0.0187,9.8104,-0.2573,-0.7971,-0.1306
8305,1177,766,33.768,32.265,0.0043,-0.0133,9.8729,0.4959,-0.0312,-0.1714
8310,1185,774,33.711,32.283,-0.0018,-0.0739,9.8275,-0.2062,-0.1482,0.8371
8315,1182,779,33.679,32.213,-0.0837,-0.0475,9.8318,0.1816,0.6092,-0.475
8320,1174,787,33.666,32.292,-0.0479,0.0531,9.843,0.8318,0.9786,-0.5146
8325,1176,787,33.773,32.096,0.0198,-0.0605,9.8926,-1.0344,0.0851,-0.2036
8330,1168,793,33.676,32.29,-0.0375,0.0391,9.8757,0.3565,-0.2382,-0.094
8335,1171,793,33.656,32.253,-0.045,0.0234,9.7888,-0.074,0.0109,-0.2302
8340,1169,799,33.6,32.227,0.0423,-0.0117,9.8583,-0.0022,0.8556,-0.1735
8345,1158,808,33.605,32.14,-0.0427,-0.0102,9.8362,-0.5884,-0.588,0.3478
8350,1160,810,33.669,32.259,-0.0129,-0.0391,9.7881,-0.0476,-0.4901,0.11
8355,1162,812,33.645,32.239,0.0212,0.0601,9.8352,-0.1628,-0.1555,-0.1959
8360,1154,818,33.681,32.246,0.0319,-0.0153,9.7676,0.4745,0.1872,-0.6256
8365,1150,818,33.565,32.349,0.0609,0.0243,9.7867,0.4528,0.2385,0.9027
8370,1148,825,33.607,32.218,-0.0056,0.0985,9.844,-0.4886,-0.8708,-0.2163
8375,1149,826,33.641,32.26,-0.0163,0.0031,9.8331,-0.2287,-0.2029,0.2462
8380,1141,836,33.643,32.175,-0.0297,-0.0589,9.7605,-0.2891,-0.1375,0.0837
8385,1136,841,33.668,32.214,0.0071,0.0001,9.7692,0.4918,-0.086,1.3832
8390,1134,837,33.711,32.249,-0.0409,-0.0953,9.8283,-0.6353,0.6434,-1.0545
8395,1140,845,33.744,32.254,0.0374,0.0966,9.8507,-0.2641,0.4293,0.2148
8400,1127,844,33.577,32.224,-0.0117,-0.0154,9.7758,-0.5835,-0.0919,-0.6026
8405,1133,852,33.618,32.322,0.0032,-0.0957,9.8115,-0.0865,-0.4466,-1.4388
8410,1127,848,33.735,32.298,-0.0189,-0.0473,9.9101,-0.5172,0.0941,0.18
8415,1117,850,33.609,32.294,0.0134,-0.0158,9.801,-0.6984,-0.1254,0.7642
8420,1113,854,33.684,32.173,0.0003,0.046,9.7862,0.3698,0.0675,-0.3756
8425,1104,856,33.535,32.262,0.0971,0.0022,9.8138,-0.4488,0.5162,0.165
8430,1112,859,33.605,32.319,0.0064,-0.0675,9.8146,0.2349,-0.3892,0.287
8435,1105,859,33.658,32.291,0.0536,-0.0638,9.8184,-0.7774,-0.1526,-0.2337
