timestamp_ms,ir_finger,ir_toe,temp_finger,temp_toe,ax,ay,az,gx,gy,gz
0,1051,766,33.305,26.704,0.0313,-0.0305,9.872,-0.1181,-0.1945,-0.1061
5,1054,768,33.279,26.777,-0.0199,0.0132,9.8492,0.2028,0.2809,-0.4031
10,1065,761,33.26,26.748,0.0167,0.0078,9.8875,-0.3831,0.1078,0.1116
15,1073,759,33.314,26.84,0.0963,-0.0012,9.8419,0.0548,0.2244,0.6034
20,1079,759,33.311,26.801,-0.0734,0.0402,9.8038,-0.3629,-0.2516,0.451
25,1102,758,33.309,26.749,0.0029,-0.0483,9.83,-0.3764,-0.2104,0.9403
30,1104,760,33.183,26.929,0.052,0.0196,9.87,-0.1041,0.1272,-0.3236
35,1105,753,33.201,26.85,0.0334,0.0015,9.8521,-0.044,0.5365,0.0615
40,1122,750,33.249,26.823,0.1034,0.0797,9.8665,-0.1376,0.0526,-0.8275
45,1129,755,33.225,26.866,0.0657,-0.0204,9.7858,-0.7118,1.0968,0.2363
50,1129,749,33.189,26.754,-0.0367,-0.0035,9.8125,-0.9838,0.8339,0.5314
55,1136,756,33.249,26.772,-0.0863,0.0192,9.7982,-0.1674,-0.4691,0.1767
60,1145,753,33.248,26.776,0.063,-0.0732,9.8941,0.9915,1.4185,-1.0449
65,1155,750,33.328,26.897,0.0354,-0.0514,9.8384,0.1046,-0.0762,-0.5253
70,1161,749,33.212,26.791,0.0054,0.1086,9.7909,1.184,-0.2747,-0.2897
75,1163,747,33.141,26.772,-0.0148,0.0259,9.7861,0.4029,0.2995,-0.2622
80,1166,746,33.26,26.813,0.0325,-0.0557,9.8607,-0.1085,-0.382,0.2365
85,1174,749,33.265,26.811,-0.0513,-0.0117,9.7655,1.0173,-0.5581,0.6631
90,1187,749,33.249,26.762,-0.0006,-0.0701,9.8066,-0.0736,1.0008,-0.1595
95,1179,749,33.286,26.757,-0.0016,-0.0255,9.8458,0.2273,-0.5987,-0.7543
100,1175,749,33.196,26.929,-0.0696,0.0799,9.7329,-0.2801,0.0577,-0.4362
105,1184,752,33.196,26.68,0.019,0.0233,9.7417,0.8243,0.4145,0.4194
110,1185,752,33.32,26.849,0.0378,-0.0275,9.7546,-0.1003,-0.2756,-0.4564
115,1186,757,33.318,26.788,-0.0379,-0.0362,9.8342,-0.3928,0.5819,1.0468
120,1188,752,33.29,26.8,-0.0287,0.039,9.7801,0.184,-0.3039,-0.27
125,1184,752,33.255,26.806,0.0097,0.0526,9.8501,-0.2473,-0.4355,-0.5313
130,1182,752,33.211,26.837,-0.0457,-0.0714,9.7955,0.1884,0.2368,-0.2542
135,1186,758,33.2,26.697,0.1091,0.0205,9.8848,-0.6372,-0.2544,0.4634
140,1192,758,33.387,26.804,-0.0282,-0.025,9.7616,0.5342,0.0672,0.7382
145,1190,759,33.197,26.69,-0.0033,-0.0551,9.7938,-0.1807,0.3579,-0.2397
150,1180,757,33.268,26.859,-0.0419,-0.0079,9.8229,-0.5361,0.3605,0.0144
155,1178,758,33.347,26.788,-0.0132,-0.0446,9.8359,0.1187,0.2083,-1.1972
160,1185,770,33.352,26.768,0.0049,0.0244,9.909,0.3205,0.1731,-0.1487
165,1168,760,33.271,26.822,0.0642,0.0287,9.8071,-0.2277,0.3673,0.0091
170,1177,769,33.264,26.701,0.0001,-0.0079,9.7064,-0.7427,0.7845,0.1015
175,1170,774,33.277,26.792,-0.0032,0.0818,9.8256,-0.5808,-0.1871,-0.6807
180,1168,774,33.182,26.798,0.0367,-0.0732,9.766,-0.0267,0.0875,0.016
185,1164,775,33.381,26.778,0.0755,-0.0068,9.8113,0.6389,0.0935,0.2669
190,1178,782,33.296,26.79,-0.0248,-0.0493,9.7646,-0.4997,-0.8057,-0.1559
195,1156,777,33.246,26.776,0.0224,0.006,9.7936,-0.0941,-0.1051,0.0823
200,1154,780,33.28,26.806,0.0008,-0.0073,9.8608,0.1422,-0.417,-0.1608
205,1154,782,33.311,26.82,0.0405,0.0097,9.8048,1.0861,0.9649,0.282
210,1149,793,33.331,26.867,-0.0515,-0.0085,9.8712,-0.2343,0.1474,0.6274
215,1142,792,33.342,26.867,0.0095,-0.0345,9.8084,-1.1544,-0.2032,0.2977
220,1138,788,33.197,26.813,0.0357,0.0067,9.8002,0.4262,-0.2554,0.5314
225,1129,792,33.282,26.817,0.0859,0.0206,9.8022,-0.1435,-0.279,-0.5785
230,1133,796,33.264,26.82,-0.0449,-0.082,9.7899,0.6235,0.3807,0.3282
235,1128,801,33.178,26.745,0.0144,-0.073,9.8443,0.29,-0.1983,0.5821
240,1131,802,33.29,26.848,-0.0324,0.0261,9.815,0.5105,0.4504,-0.4144
245,1133,801,33.257,26.832,0.0341,-0.0169,9.8087,-0.0169,0.7429,-1.0503
250,1123,803,33.314,26.809,0.0374,0.0217,9.7672,0.3369,-0.3123,0.3338
255,1128,810,33.301,26.797,-0.0763,-0.0149,9.839,-0.8516,-0.0922,0.2682
260,1127,811,33.328,26.813,0.03,-0.0043,9.8683,0.1393,-0.4666,-0.1393
265,1108,813,33.341,26.841,-0.0081,-0.0808,9.8559,-0.2922,-0.0611,-0.3256
270,1115,813,33.349,26.723,-0.0211,0.0348,9.8033,0.0513,-0.0848,0.3254
275,1109,811,33.252,26.877,0.0658,0.0037,9.7844,-0.1816,0.3069,-0.0861
280,1107,820,33.249,26.826,0.0045,-0.0265,9.8311,0.7095,0.2503,0.0147
285,1111,819,33.174,26.82,0.0157,-0.003,9.7778,-0.656,0.0858,0.7788
290,1104,818,33.279,26.744,0.0281,0.0297,9.7515,0.17,0.4884,0.0824
295,1100,825,33.215,26.72,0.0324,0.0159,9.8822,0.4451,0.4267,0.1059
300,1099,826,33.305,26.858,-0.1253,0.0629,9.8075,-0.3319,0.6308,1.0453
305,1089,831,33.194,26.899,-0.1333,-0.0274,9.7769,-0.1102,-0.0113,0.1382
310,1094,824,33.372,26.854,0.0089,0.0117,9.8609,-0.0623,0.1847,0.5033
315,1094,829,33.298,26.75,-0.0236,0.0104,9.8136,-0.186,0.9682,0.4274
320,1091,833,33.305,26.953,0.0854,-0.0531,9.9053,-0.0948,-0.7065,-0.3942
325,1083,834,33.355,26.771,-0.0271,-0.0428,9.7472,0.4581,0.507,0.7028
330,1088,830,33.248,26.85,0.0528,0.0419,9.871,-0.5449,0.0587,-0.2993
335,1095,836,33.21,26.782,-0.0521,-0.1119,9.8045,0.5147,0.0617,0.7549
340,1080,837,33.372,26.803,-0.0285,0.0137,9.8493,0.6627,-0.0162,1.1582
345,1080,835,33.244,26.834,0.023,-0.0038,9.8228,0.3691,0.2199,0.4849
350,1080,832,33.29,26.782,0.0407,-0.0096,9.8324,-0.6259,-0.6946,-0.1209
355,1074,840,33.316,26.836,-0.0568,0.0496,9.8246,0.5378,-0.5245,0.3679
360,1069,835,33.259,26.812,-0.0122,-0.1282,9.8758,-0.5323,1.0357,0.4312
365,1063,836,33.34,26.755,-0.0294,0.0276,9.8242,-0.7091,0.3136,-0.114
370,1063,833,33.223,26.773,0.0348,0.0083,9.8031,-0.5032,-0.5472,0.7573
375,1067,837,33.266,26.753,-0.1158,-0.0585,9.7344,-0.7351,0.6165,0.4784
380,1055,838,33.377,26.735,0.0756,-0.1064,9.8204,-0.2778,0.1968,0.3922
385,1049,839,33.253,26.779,0.0018,0.0643,9.7724,-0.1781,0.0975,0.0217
390,1057,834,33.25,26.799,0.0285,0.0125,9.9061,0.9024,0.0424,-0.4718
395,1042,836,33.255,26.747,-0.0493,0.0242,9.7934,0.7455,0.3409,0.1373
400,1046,838,33.219,26.73,0.0315,-0.0362,9.7696,0.4542,0.5759,-0.6372
405,1042,831,33.263,26.768,0.0413,-0.004,9.8602,0.7641,0.1799,0.0161
410,1039,833,33.31,26.823,-0.0805,0.0188,9.8161,1.1824,-0.6368,0.1016
415,1026,841,33.314,26.73,0.0665,0.0879,9.7025,0.0371,0.5577,0.5262
420,1022,834,33.265,26.806,-0.0281,-0.0144,9.6417,0.0178,0.2985,0.0408
425,1018,833,33.233,26.804,-0.053,-0.0651,9.7368,0.2547,-0.5826,0.4542
430,1013,834,33.281,26.869,0.0533,0.0577,9.8769,0.5026,-0.3345,0.0368
435,1005,839,33.293,26.726,-0.0004,0.0181,9.8364,-0.7581,0.8192,-0.5835
440,994,835,33.244,26.725,-0.0305,-0.0155,9.8408,0.3673,-1.0951,-0.3012
445,993,838,33.16,26.836,0.021,0.0563,9.7041,-0.7804,0.1142,0.0401
450,980,837,33.231,26.779,0.0398,-0.0037,9.8218,-0.2716,0.4274,-0.2892
455,977,831,33.309,26.804,-0.0598,-0.0042,9.8315,-0.0741,0.2161,0.6537
460,969,824,33.289,26.792,0.0262,-0.011,9.836,-0.4718,-0.6244,-0.1115
465,964,836,33.24,26.823,-0.0259,-0.0074,9.803,-0.0451,-0.2832,-0.5879
470,956,830,33.24,26.861,0.0709,-0.0621,9.8165,0.0804,0.9912,0.0792
475,943,829,33.3,26.816,0.0781,-0.033,9.6848,0.4708,0.4348,-1.186
480,939,826,33.29,26.726,-0.0877,-0.0449,9.8098,0.0468,0.1964,0.2097
485,926,825,33.332,26.879,-0.0243,-0.0258,9.8162,1.039,0.049,-0.448
490,915,831,33.311,26.805,0.0219,-0.031,9.8234,0.2468,0.8203,0.3748
495,918,828,33.212,26.791,-0.0218,0.1014,9.8619,0.3802,-0.1952,0.3473
500,902,829,33.262,26.729,0.0031,-0.0627,9.8492,0.3442,-0.3053,0.1563
505,904,828,33.256,26.862,0.0862,0.0262,9.8357,0.5525,-0.144,-0.8544
510,883,822,33.234,26.855,0.0142,0.0532,9.7351,0.228,0.35,-0.0486
515,877,826,33.253,26.791,0.0139,-0.0213,9.8285,-0.0925,-1.5561,-0.3086
520,868,821,33.241,26.802,-0.0132,-0.0197,9.8522,-0.2266,-1.3101,-0.256
525,851,824,33.321,26.865,-0.0609,-0.0267,9.803,0.5,0.3115,0.3357
530,847,824,33.221,26.847,-0.0349,-0.032,9.8522,-0.1552,-0.0604,0.0185
535,837,826,33.15,26.808,-0.0674,-0.0502,9.9358,0.7049,0.2228,-0.3996
540,824,825,33.244,26.781,-0.0302,0.0977,9.7259,1.2341,0.6389,0.2805
545,826,821,33.301,26.723,0.037,-0.0537,9.6821,-0.12,0.0883,-1.2508
550,813,819,33.241,26.771,-0.1826,0.0283,9.8505,-0.5432,0.5962,-0.7098
555,809,821,33.201,26.867,0.0634,-0.0356,9.8185,0.6566,0.0985,0.2255
560,800,822,33.287,26.856,0.0023,0.0493,9.7474,0.3036,0.3581,-0.0455
565,787,823,33.236,26.864,-0.072,-0.0317,9.8559,0.6689,-0.5165,-0.2258
570,788,816,33.333,26.724,-0.0112,-0.0311,9.8922,-0.18,0.6286,-0.0304
575,779,814,33.344,26.72,0.0177,0.0025,9.7751,-0.9066,0.9239,0.463
580,771,821,33.303,26.869,0.1044,0.0925,9.7993,-0.6786,0.0971,0.1064
585,772,817,33.215,26.773,0.0267,-0.0606,9.8515,1.2173,0.2009,0.0021
590,760,817,33.185,26.756,-0.0733,-0.0962,9.7858,0.2796,1.3617,0.2999
595,768,819,33.391,26.806,0.0136,-0.0295,9.7732,0.0963,-0.208,-0.6409
600,761,822,33.239,26.781,0.0478,0.0472,9.7499,-0.3965,-0.4943,-0.136
605,752,809,33.276,26.788,-0.0652,-0.0369,9.858,1.2833,0.3672,-0.9166
610,755,820,33.225,26.759,-0.0991,0.0033,9.9018,0.8179,0.1333,0.5473
615,751,822,33.304,26.758,-0.0171,-0.0713,9.8531,0.6401,-0.0194,0.3883
620,749,814,33.273,26.849,0.0182,-0.1311,9.8587,-0.5682,0.6329,0.3577
625,752,814,33.226,26.877,0.0202,-0.0476,9.8123,0.509,-0.1889,-0.1027
630,747,812,33.276,26.892,0.009,0.0217,9.8713,-0.1396,-0.5695,0.3877
635,742,807,33.253,26.799,0.0476,-0.1564,9.7911,0.3204,0.2175,-0.1954
640,750,812,33.352,26.781,0.0101,-0.0267,9.7905,0.0504,-0.0888,0.0404
645,759,809,33.226,26.934,-0.036,0.05,9.7776,-0.1055,-0.3109,0.6995
650,748,809,33.293,26.852,-0.1088,-0.0205,9.8229,-0.0691,0.4986,1.1238
655,755,809,33.281,26.76,0.0172,0.0435,9.8864,-0.2698,-0.2643,0.3569
660,763,810,33.328,26.797,-0.0079,0.046,9.7868,-0.528,0.4964,-0.0258
665,765,806,33.283,26.777,-0.0411,-0.0809,9.7516,0.2903,1.1516,-0.1252
670,775,804,33.237,26.788,0.0217,0.0157,9.8158,0.116,-1.074,0.2055
675,773,800,33.288,26.748,-0.0116,-0.0014,9.7811,-0.9012,0.2562,-0.4972
680,785,801,33.198,26.762,-0.0492,-0.0304,9.7145,-0.616,-1.0647,-0.1136
685,783,804,33.277,26.756,-0.0358,-0.06,9.8933,-0.2698,0.127,-0.7293
690,794,805,33.329,26.726,0.1207,0.0604,9.8052,0.4911,-0.4005,0.2006
695,801,798,33.219,26.829,-0.0251,-0.0606,9.7715,0.5563,-0.1464,0.1547
700,812,797,33.317,26.793,-0.0027,0.003,9.8377,1.1039,0.5486,-1.123
705,834,793,33.342,26.831,0.0898,-0.0665,9.8019,-0.1915,0.4426,0.2056
710,826,800,33.263,26.779,-0.0449,-0.1426,9.8571,-0.078,-0.6977,-0.2069
715,841,791,33.233,26.824,0.0254,0.0564,9.701,-0.181,0.9516,0.5649
720,850,793,33.246,26.724,0.0554,0.0309,9.7517,0.9611,0.1082,-0.6416
725,866,793,33.307,26.821,-0.0255,0.0132,9.7892,-0.4331,0.3178,-0.5455
730,872,790,33.289,26.672,-0.1219,-0.0135,9.82,0.0816,-0.9206,-0.6357
735,891,782,33.33,26.79,-0.1983,0.0647,9.7909,-0.2937,-0.0803,0.0395
740,887,781,33.309,26.813,0.0284,-0.0986,9.7043,0.2718,0.4764,-0.2762
745,917,788,33.284,26.756,0.047,0.0275,9.9125,0.4022,0.1914,0.2202
750,912,786,33.314,26.91,-0.0252,0.0155,9.8482,0.1132,-0.1028,0.4034
755,931,781,33.361,26.819,0.0377,0.0825,9.954,0.6498,0.3246,-0.7764
760,944,776,33.242,26.778,-0.0251,-0.0489,9.7676,-0.3527,-0.4671,0.043
765,957,774,33.244,26.793,0.0097,-0.0037,9.8349,-0.6717,-0.5362,-0.317
770,961,776,33.328,26.765,-0.0109,0.0581,9.7791,-0.0297,0.2536,0.3146
775,988,777,33.334,26.741,-0.0543,0.0579,9.8402,-0.1404,0.5168,-0.4961
780,994,770,33.278,26.767,0.0372,-0.021,9.831,0.6949,-0.3451,-0.4554
785,1011,770,33.25,26.827,0.0605,-0.0315,9.8206,0.6723,-0.1648,1.019
790,1014,769,33.289,26.785,-0.0526,-0.025,9.7453,0.4838,0.1092,-0.8274
795,1033,766,33.316,26.798,-0.0179,0.0995,9.848,0.1793,0.3212,0.9786
800,1045,767,33.283,26.77,0.0437,0.0691,9.7712,-0.4918,0.2232,0.7986
805,1052,760,33.316,26.911,0.0324,0.0564,9.7312,0.0219,-0.1347,-0.2137
810,1077,758,33.342,26.788,-0.0109,0.0834,9.8137,-0.7016,0.7012,0.7045
815,1073,761,33.402,26.784,-0.0056,0.0114,9.7403,-0.0847,-0.063,0.5833
820,1083,757,33.36,26.723,-0.0512,0.0867,9.8899,0.7267,0.5072,-0.2004
825,1099,757,33.247,26.791,0.0676,0.0014,9.7678,-0.3921,0.6792,-0.4266
830,1103,753,33.276,26.83,-0.0649,-0.0418,9.8611,0.0853,-0.5519,-0.2434
835,1103,750,33.288,26.878,0.0225,0.0402,9.8155,0.6196,-0.6602,0.371
840,1122,753,33.195,26.797,-0.0246,0.0244,9.8441,0.1318,-0.4914,-0.1051
845,1124,750,33.301,26.811,-0.1284,0.0179,9.8347,0.0192,0.2316,0.5703
850,1133,750,33.297,26.882,-0.0394,0.0772,9.8908,-0.1034,-0.2274,-0.2241
855,1143,751,33.286,26.781,0.0183,-0.0174,9.8689,-0.6129,0.2945,0.7448
860,1157,748,33.197,26.813,-0.1022,-0.0728,9.8567,-0.423,0.2038,0.0389
865,1152,753,33.303,26.747,0.0969,-0.0803,9.9345,0.3759,0.1081,0.9542
870,1165,748,33.256,26.916,-0.0248,-0.1363,9.8156,0.1193,-0.1594,-0.6658
875,1163,752,33.294,26.757,-0.1,-0.0684,9.8577,0.6839,-0.182,0.0937
880,1164,756,33.348,26.731,0.0525,-0.0982,9.8826,0.0998,-0.0354,-0.7827
885,1171,753,33.356,26.839,-0.1007,-0.0266,9.8272,0.1761,0.3648,0.5008
890,1180,748,33.233,26.83,-0.0419,0.0185,9.7967,0.8946,-0.4129,0.1352
895,1183,752,33.319,26.8,-0.0479,0.0195,9.804,0.2747,0.1835,0.0266
900,1179,752,33.274,26.753,0.0203,0.0304,9.9239,-0.4423,-0.218,-0.3622
905,1182,748,33.261,26.716,0.0437,0.0456,9.8336,0.6714,0.1963,-0.4595
910,1184,750,33.316,26.792,0.0168,-0.0177,9.7508,-0.0098,-0.2651,-0.4924
915,1184,752,33.283,26.757,-0.0078,0.0187,9.8246,0.0992,0.9666,0.0479
920,1179,755,33.313,26.796,0.0363,-0.0141,9.812,0.0419,-0.4847,-0.5889
925,1190,754,33.242,26.744,-0.0364,-0.0094,9.86,0.7626,0.1104,0.5154
930,1183,755,33.321,26.773,0.0249,-0.0196,9.7899,0.667,0.2498,0.0828
935,1189,753,33.27,26.777,-0.0174,0.0647,9.8629,-0.0535,0.728,-0.9007
940,1192,759,33.257,26.783,-0.0509,-0.0767,9.8657,0.5234,0.288,-0.3357
945,1186,762,33.258,26.836,-0.0148,-0.0115,9.7439,0.014,0.4336,0.4587
950,1180,763,33.322,26.78,-0.0273,-0.017,9.7986,-1.1721,0.3986,-0.5829
955,1188,757,33.269,26.774,-0.0104,-0.0249,9.8148,-0.3626,1.0449,0.2071
960,1174,761,33.224,26.76,0.1899,0.0509,9.8105,-0.0071,0.2308,-0.1933
965,1175,772,33.263,26.823,-0.045,-0.0053,9.8376,0.0408,-0.7482,-0.8111
970,1175,769,33.29,26.792,-0.0193,0.0907,9.7516,-0.3585,0.8981,0.1808
975,1173,767,33.198,26.77,-0.0093,0.0294,9.8208,-0.4644,0.1841,0.1037
980,1173,768,33.217,26.776,0.0731,0.0652,9.8515,-1.1692,0.4312,0.3394
985,1173,768,33.273,26.789,0.0237,0.0869,9.8173,0.778,0.2329,0.0028
990,1158,771,33.24,26.791,0.0263,0.1,9.7924,-0.0111,0.1016,-0.0901
995,1174,779,33.306,26.715,0.0026,-0.0842,9.8678,-0.099,-0.668,0.576
1000,1159,777,33.228,26.834,-0.0173,0.0336,9.7732,0.6351,-0.8135,0.3959
1004,1149,785,33.301,26.783,0.044,-0.0167,9.7905,0.4787,-0.2631,-1.3592
1010,1158,788,33.316,26.776,0.033,-0.0149,9.8451,0.9576,-0.2277,-0.0474
1014,1139,788,33.378,26.823,0.0013,-0.1027,9.9299,-0.5359,-0.2161,0.3647
1020,1143,795,33.274,26.766,0.0064,-0.0087,9.7307,0.7534,0.9923,-0.1263
1025,1128,790,33.264,26.775,-0.0776,-0.0196,9.85,0.272,-0.3569,-0.2554
1030,1147,798,33.312,26.786,0.0364,0.055,9.8301,0.5378,-0.3283,1.0624
1035,1134,795,33.278,26.829,-0.058,-0.0623,9.8326,0.1334,-0.1641,-0.2935
1040,1142,798,33.366,26.765,0.0121,0.0294,9.8018,-0.3601,0.2934,-0.3087
1045,1128,802,33.31,26.789,-0.0581,-0.0583,9.8942,0.4113,0.817,-0.3724
1050,1128,805,33.239,26.72,0.0667,0.0006,9.7482,0.6953,0.2029,0.7508
1055,1123,803,33.243,26.843,-0.0049,-0.0526,9.7379,-0.3303,-0.0084,0.2422
1060,1123,815,33.217,26.845,-0.0722,0.0153,9.8377,-0.8324,0.0732,-0.3092
1065,1117,808,33.274,26.815,0.0337,-0.0364,9.7928,0.1588,0.1337,0.0146
1070,1114,815,33.292,26.83,-0.0355,0.0332,9.8571,0.6061,-0.3405,-0.5724
1075,1106,817,33.277,26.743,-0.0345,-0.0533,9.8971,-0.2185,-0.2581,0.3084
1080,1105,815,33.262,26.837,0.0211,0.034,9.813,-0.2132,-0.6135,0.2741
1085,1113,818,33.269,26.772,-0.0431,-0.0003,9.7739,-0.8566,-0.2457,-1.1598
1090,1101,826,33.275,26.751,-0.0564,0.0173,9.7459,0.4487,-0.3522,-0.0939
1095,1113,826,33.191,26.869,0.0332,0.1342,9.8816,-0.8933,1.0397,0.0437
1100,1089,827,33.355,26.701,-0.1162,-0.0008,9.8826,-0.1436,0.5004,0.3981
1105,1101,832,33.272,26.742,0.0374,-0.0488,9.7771,0.5717,-0.2311,0.0239
1110,1089,824,33.255,26.767,0.0435,-0.0664,9.8343,-0.513,-0.0597,-1.0839
1115,1086,824,33.349,26.693,-0.0541,0.0417,9.7657,0.1232,0.1839,-1.2082
1120,1091,826,33.258,26.791,-0.1377,-0.017,9.8297,0.2952,0.2058,0.0962
1125,1087,837,33.256,26.807,-0.0239,-0.011,9.7977,-0.1687,0.0214,-0.5871
1130,1090,835,33.266,26.894,0.023,0.035,9.8723,-0.1239,0.5332,0.7095
1135,1080,828,33.313,26.755,-0.0261,-0.0543,9.7609,-0.4024,-0.1267,-0.1729
1140,1077,836,33.22,26.824,0.0493,-0.0216,9.7316,0.5205,-0.3596,-0.1427
1145,1078,840,33.33,26.727,-0.0368,-0.0359,9.8538,-0.7329,-0.8009,-0.1249
1150,1081,836,33.234,26.755,0.0085,-0.0459,9.796,0.2858,-0.6573,-0.0562
1155,1073,837,33.276,26.788,0.1303,0.0011,9.8913,0.4446,0.157,-0.6138
1160,1072,833,33.224,26.731,0.0286,0.0087,9.8887,0.5821,-0.5797,0.1525
1165,1071,839,33.26,26.769,-0.0646,0.0128,9.8289,0.0525,0.0936,-0.5081
1170,1066,839,33.321,26.801,-0.0339,-0.0726,9.8685,-1.1977,0.1564,0.2442
1175,1060,835,33.282,26.891,0.0487,-0.0445,9.8524,-0.0033,0.1438,-0.1228
1180,1049,836,33.289,26.749,-0.0416,-0.0409,9.7967,0.552,-0.5286,0.8066
1185,1057,842,33.231,26.805,0.0191,0.0106,9.7124,0.5478,-0.1738,0.0796
1190,1053,833,33.212,26.817,0.0876,0.0381,9.824,0.6486,-0.0796,-0.3661
1195,1044,834,33.337,26.724,0.0028,0.0041,9.8399,0.1671,0.2591,-0.3504
1200,1041,839,33.193,26.833,-0.0636,-0.0294,9.8854,-0.2946,0.3629,-0.2413
1205,1041,841,33.206,26.752,0.0054,0.0571,9.784,-0.1619,-1.0097,-1.0743
1210,1030,841,33.327,26.763,-0.0356,0.0284,9.7787,0.2537,0.464,-0.1059
1215,1017,838,33.296,26.827,-0.0351,-0.0024,9.7398,0.4306,-0.3953,-0.4484
1220,1021,831,33.236,26.788,-0.0351,-0.054,9.7946,-0.7186,-0.0422,0.985
1225,1013,831,33.266,26.741,-0.0027,-0.0063,9.8356,0.2167,0.4627,0.3372
1230,1013,828,33.248,26.81,-0.0176,0.0343,9.8172,-0.7019,0.4542,-0.9413
1235,1012,833,33.315,26.849,-0.0022,0.0072,9.7366,0.1232,0.059,0.0998
1240,993,833,33.281,26.868,0.0179,-0.0274,9.8612,-0.1791,0.1907,1.0668
1245,995,827,33.331,26.781,-0.055,-0.0277,9.7281,1.3827,-0.1363,-0.1018
1250,987,835,33.281,26.817,0.0445,0.0291,9.836,-0.1372,-0.1155,-0.074
1255,976,832,33.379,26.75,0.035,-0.0351,9.8195,-0.2047,0.1357,-0.2165
1260,977,829,33.263,26.693,-0.085,0.0748,9.7974,-0.5766,-0.9063,0.2086
1265,959,825,33.296,26.779,-0.0375,-0.0234,9.8101,0.4863,-1.0845,-0.3306
1270,954,829,33.321,26.828,0.0047,-0.003,9.7843,0.3015,-0.4337,0.7264
1275,936,828,33.154,26.763,-0.1435,-0.0515,9.9593,-0.1148,-0.2915,-0.7446
1280,938,837,33.252,26.866,-0.0328,-0.0311,9.6754,-0.1398,-0.1074,0.1194
1285,919,827,33.229,26.822,-0.0608,0.0192,9.7937,0.0637,-0.3864,-0.6144
1290,915,826,33.296,26.769,-0.0156,-0.0444,9.7771,0.2112,-0.3611,0.1921
1295,908,828,33.156,26.838,-0.01,-0.019,9.8899,1.3487,-0.1882,-0.3023
1300,903,826,33.301,26.887,0.0301,-0.0181,9.8386,0.2358,0.4778,-0.264
1305,900,823,33.259,26.87,-0.0596,-0.0358,9.8829,-0.283,-0.3262,-1.0876
1310,886,825,33.256,26.806,0.0203,0.0248,9.888,-0.6673,0.3007,0.5483
1315,876,822,33.301,26.811,-0.0176,-0.121,9.7914,0.2433,-0.7371,0.556
1320,871,820,33.289,26.677,0.0205,0.0877,9.8146,0.6307,0.3665,0.0423
1325,861,819,33.176,26.818,0.0107,-0.0039,9.9029,0.7733,0.4049,-0.3136
1330,851,818,33.349,26.789,-0.0408,-0.0175,9.6758,-0.3738,0.1051,0.2113
1335,845,817,33.307,26.868,-0.046,0.0169,9.8157,-0.0265,0.4763,0.466
1340,836,824,33.335,26.823,0.0569,0.0089,9.8125,0.8043,0.2808,0.0971
1345,831,820,33.174,26.885,0.0062,0.0968,9.776,-0.6471,-0.1988,0.458
1350,825,823,33.216,26.794,0.0194,-0.0186,9.8265,0.0408,0.6731,-0.2961
1355,809,818,33.357,26.942,-0.0002,0.0099,9.8099,-0.0436,-0.0781,-0.7783
1360,803,823,33.264,26.775,0.1555,-0.0419,9.7225,-0.4442,-0.1434,0.3331
1365,792,812,33.265,26.827,0.024,0.0714,9.7538,0.0059,-0.4626,-0.4715
1370,782,820,33.367,26.82,0.0158,-0.0407,9.779,0.5569,-0.0787,-0.2883
1375,784,815,33.329,26.909,0.0282,0.0371,9.7919,0.5155,-1.6807,-0.3381
1380,781,815,33.357,26.825,0.0581,0.0372,9.8269,-0.807,-0.0278,-0.4197
1385,776,816,33.271,26.753,-0.0122,-0.0465,9.8161,-0.0895,0.037,-0.2969
1390,765,816,33.19,26.725,0.0546,0.0612,9.785,0.427,0.3443,-0.5705
1395,760,815,33.304,26.829,0.0146,-0.0527,9.7133,0.8509,-0.5547,0.4944
1400,764,815,33.336,26.842,-0.0528,0.0753,9.9224,-0.1493,0.0129,0.6338
1405,761,816,33.263,26.823,0.0156,0.0159,9.7583,-0.3243,0.302,-0.3191
1410,752,817,33.335,26.879,0.0051,-0.0208,9.8627,-0.9122,-1.0173,-0.3264
1415,750,814,33.306,26.848,-0.0007,-0.0372,9.9332,-0.2882,0.3985,-0.1658
1420,745,817,33.23,26.754,0.0689,0.0006,9.8506,-0.288,0.8729,-0.7964
1425,746,809,33.291,26.744,0.0222,0.0625,9.7298,-0.4802,0.6197,0.6141
1430,743,815,33.268,26.863,-0.053,0.0134,9.7874,-0.3813,-0.507,0.2473
1435,756,813,33.293,26.875,0.0281,0.0165,9.8371,-0.1216,0.4025,-0.7669
1440,746,806,33.333,26.74,-0.002,0.062,9.8129,0.6239,0.0687,-0.292
1445,754,808,33.245,26.826,0.0235,-0.0481,9.7849,0.1832,0.0709,-0.9421
1450,756,811,33.342,26.819,0.0175,-0.0041,9.8447,-0.2292,-0.5113,0.0201
1455,764,807,33.313,26.802,-0.0236,-0.0967,9.8107,0.4058,-0.1761,0.752
1460,760,812,33.292,26.868,-0.0104,0.047,9.8384,-0.2271,0.0965,0.5565
1465,769,812,33.237,26.806,-0.0361,-0.038,9.7489,0.0363,0.1407,0.4428
1470,756,806,33.319,26.843,0.0217,0.0387,9.7588,0.2899,-0.3978,-0.0114
1475,780,810,33.311,26.802,-0.0694,0.0085,9.7534,0.3247,0.5999,0.4013
1480,778,807,33.292,26.765,-0.0936,0.0696,9.8027,0.1301,-0.1129,0.3117
1485,791,803,33.338,26.776,0.0053,-0.0164,9.7504,-0.3723,0.5005,0.5458
1490,805,802,33.278,26.797,-0.0045,0.0467,9.9006,-0.1208,1.193,-0.3845
1495,804,797,33.293,26.763,0.0676,-0.0405,9.8405,-0.1215,0.554,-1.1003
1500,817,795,33.235,26.801,-0.1577,-0.017,9.7572,-0.1843,0.2086,-0.6557
1505,828,789,33.249,26.699,-0.0361,-0.0176,9.7997,0.1595,0.748,0.1464
1510,840,797,33.278,26.762,0.0894,0.0574,9.8926,0.0213,0.2183,-0.7153
1515,848,795,33.304,26.794,0.0778,0.0315,9.8057,0.5738,0.119,-0.688
1520,851,791,33.234,26.767,-0.0555,-0.0134,9.8398,0.0742,-0.4046,0.3951
1525,862,792,33.158,26.844,-0.0856,0.0033,9.8042,0.2437,-0.9996,-0.0761
1530,881,787,33.233,26.771,0.0167,-0.0028,9.7783,0.8366,-0.5025,-0.9107
1535,892,787,33.332,26.82,0.0233,-0.108,9.8274,-0.7052,0.0535,-0.2486
1540,892,785,33.37,26.843,-0.0302,-0.0268,9.7654,0.9212,0.525,-0.234
1545,908,789,33.254,26.854,-0.0451,0.0856,9.7688,-0.1228,-0.0272,-0.1774
1550,916,780,33.275,26.821,0.0349,-0.0154,9.8399,-0.3206,0.2621,0.417
1555,929,784,33.206,26.905,-0.0815,-0.0732,9.825,-0.7671,-0.0494,-0.3738
1560,944,784,33.212,26.83,-0.0577,-0.0525,9.7363,0.0179,-0.0557,0.1734
1565,965,771,33.361,26.772,-0.1261,0.1002,9.7118,0.8415,0.0663,-0.2168
1570,973,770,33.296,26.908,0.0444,-0.0128,9.8461,-0.3962,0.1337,0.4607
1575,979,775,33.264,26.862,-0.0441,0.0292,9.7162,-0.1132,0.3284,0.444
1580,996,774,33.353,26.873,0.0064,-0.0351,9.8137,-0.1055,0.252,0.4145
1585,1010,774,33.234,26.814,0.0576,0.0015,9.7399,0.5912,-0.3557,0.3358
1590,1018,768,33.269,26.812,-0.0439,-0.0656,9.7852,-0.1247,-0.2971,-0.323
1595,1020,763,33.285,26.865,0.0316,0.0093,9.8437,0.1913,0.0676,-0.5216
1600,1042,762,33.235,26.769,0.0664,-0.0553,9.7792,0.0793,0.7341,-0.2195
1605,1052,757,33.202,26.742,0.0198,-0.033,9.8594,-0.3834,0.4392,0.0619
1610,1056,759,33.262,26.769,0.0047,0.0432,9.7834,0.0888,0.3535,0.5471
1615,1073,764,33.38,26.779,0.0098,-0.0172,9.8684,-0.4437,0.7712,-0.1271
1620,1086,761,33.279,26.695,0.0473,0.0043,9.747,0.5905,0.0852,-0.0571
1625,1089,758,33.257,26.89,-0.0085,-0.0118,9.8175,0.1856,0.0257,-0.3581
1630,1101,756,33.294,26.758,-0.0493,0.0526,9.8611,-0.4696,-0.923,0.0005
1635,1104,755,33.222,26.89,0.007,0.0655,9.8975,-0.3838,0.5781,0.7568
1640,1124,758,33.288,26.769,0.0188,-0.0361,9.8248,-0.4623,0.2777,-0.2399
1645,1125,753,33.272,26.863,0.0465,0.0935,9.832,-0.0109,-0.3798,-0.3301
1650,1130,757,33.29,26.773,0.107,0.0572,9.7899,-0.0449,0.546,0.1278
1655,1138,747,33.375,26.888,0.002,-0.0599,9.8617,0.545,-0.3908,0.5604
1660,1147,752,33.358,26.771,0.1091,-0.0055,9.8071,-0.2574,0.283,0.6976
1665,1148,752,33.311,26.769,-0.0132,0.0675,9.8316,0.5947,-0.5906,-0.0965
1670,1154,744,33.323,26.793,-0.0493,0.0577,9.822,0.6089,0.0322,0.2238
1675,1162,750,33.249,26.864,-0.0771,0.0963,9.8781,0.3511,0.3058,-0.6932
1680,1167,751,33.298,26.835,-0.0394,-0.003,9.8296,0.6713,0.2126,0.246
1685,1174,748,33.217,26.792,0.0869,-0.0609,9.8114,-0.5279,-0.3525,0.9016
1690,1181,745,33.256,26.818,-0.039,0.0332,9.8054,-0.3817,-0.0359,0.0697
1695,1177,753,33.283,26.78,0.0403,-0.0541,9.7889,-0.6991,-0.6532,-0.1347
1700,1185,747,33.312,26.847,-0.0735,0.0349,9.8251,0.3265,0.9095,0.0046
1705,1182,747,33.231,26.842,0.0464,0.0304,9.8584,0.1355,-0.1367,1.006
1710,1194,751,33.273,26.798,-0.0458,0.0524,9.8546,-0.3497,0.2963,-0.2968
1715,1184,750,33.242,26.736,-0.0456,-0.0126,9.7981,0.0823,0.8114,0.263
1720,1188,749,33.346,26.759,-0.0229,-0.0242,9.8277,-0.6397,0.9637,0.0756
1725,1183,759,33.235,26.802,0.0123,-0.0193,9.7924,0.461,-0.4335,0.1647
1730,1186,757,33.272,26.811,-0.0397,-0.106,9.8237,0.457,-0.6555,-0.0082
1735,1183,757,33.307,26.785,-0.0615,0.0035,9.871,-0.319,0.4511,-0.5764
1740,1189,760,33.247,26.878,0.004,0.0478,9.7417,0.0861,0.619,0.2328
1745,1187,758,33.327,26.824,-0.0577,0.0274,9.7774,-0.257,-0.2504,-0.6445
1750,1172,760,33.343,26.745,-0.0424,-0.0038,9.8114,1.1859,0.1672,0.6833
1755,1191,761,33.288,26.852,-0.0471,-0.1104,9.7794,0.4425,0.2911,-0.4964
1760,1178,770,33.284,26.715,0.0616,-0.0609,9.7751,-0.3829,-0.2138,-0.5865
1765,1178,766,33.244,26.772,0.0497,-0.0301,9.7844,-0.0968,-0.2956,-0.1059
1770,1174,772,33.237,26.791,-0.0195,0.0565,9.7541,0.592,-0.1694,-0.2241
1775,1179,774,33.354,26.777,-0.0525,-0.0042,9.845,0.2399,0.5553,-0.5333
1780,1179,774,33.271,26.864,0.0029,-0.0053,9.8736,-0.1924,0.7832,-1.0094
1785,1169,774,33.256,26.788,-0.0802,0.0574,9.8271,0.1401,0.2567,-0.7012
1790,1159,775,33.271,26.759,-0.0067,0.0026,9.7817,-0.5873,-0.2473,-0.5723
1795,1169,779,33.297,26.773,0.0437,-0.0439,9.8558,-0.1003,-0.3159,-0.3301
1800,1159,780,33.3,26.784,-0.0305,0.0097,9.7875,0.1893,-0.8889,0.3567
1805,1154,787,33.271,26.805,-0.0857,0.0315,9.7856,0.5526,0.0612,-0.2318
1810,1149,784,33.267,26.85,-0.1119,0.0595,9.8236,-0.4695,-0.5053,-0.3699
1815,1148,794,33.347,26.825,0.0137,-0.0678,9.8265,-0.3004,0.7386,-0.3861
1820,1137,791,33.383,26.738,-0.0273,0.0444,9.8683,-0.5381,-0.5353,-0.0677
1825,1135,796,33.352,26.758,-0.0425,0.0633,9.882,-0.0876,-0.9288,-0.3399
1830,1131,797,33.272,26.848,0.0914,-0.0817,9.869,0.2854,-0.2944,0.0341
1835,1148,796,33.281,26.814,-0.0009,-0.0252,9.7381,-0.175,0.0103,0.5828
1840,1131,798,33.289,26.823,-0.0263,0.0459,9.7868,-0.0325,-0.7331,0.4464
1845,1138,805,33.232,26.776,-0.0065,-0.0049,9.8634,0.16,0.5446,-0.121
1850,1124,806,33.259,26.883,-0.0402,0.0444,9.7935,0.9286,-0.757,-0.5639
1855,1120,803,33.195,26.818,-0.0858,0.0221,9.8057,0.1197,-0.2092,-0.4239
1860,1114,802,33.387,26.801,0.0313,-0.0657,9.811,0.3299,-0.052,-0.0924
1865,1115,813,33.389,26.783,0.0094,-0.0382,9.7387,-0.4056,-0.0511,-0.3322
1870,1110,815,33.322,26.838,-0.0194,-0.0037,9.7642,0.5248,0.5155,-0.2488
1875,1111,813,33.314,26.828,0.0581,0.0528,9.6899,-0.6772,-0.3454,-0.9361
1880,1111,820,33.232,26.904,-0.0785,-0.055,9.7664,-0.0823,-0.5686,1.131
1885,1111,812,33.251,26.754,0.065,-0.048,9.8696,0.1013,0.2176,0.0727
1890,1102,820,33.244,26.85,0.0444,0.0741,9.799,-0.2334,0.5083,-0.2092
1895,1101,818,33.346,26.74,0.0897,-0.0371,9.7623,-0.0804,-0.0864,-0.3708
1900,1102,825,33.335,26.843,-0.0581,0.0434,9.6647,0.5183,0.0145,0.1041
1905,1105,827,33.326,26.717,0.0539,-0.0188,9.7786,0.385,-0.7513,-0.855
1910,1093,828,33.349,26.801,0.0532,-0.0057,9.755,0.0307,0.0087,-0.391
1915,1087,832,33.325,26.794,-0.0582,0.0072,9.7241,0.8324,-0.4919,-0.7002
1920,1091,828,33.342,26.757,0.0112,0.0429,9.7836,-0.4968,-0.4489,0.6431
1925,1092,832,33.295,26.819,-0.0362,0.1315,9.8303,-0.0707,0.0779,-0.1489
1930,1088,831,33.317,26.774,0.0378,-0.0937,9.7421,0.1578,0.4205,0.2636
1935,1087,834,33.236,26.85,0.0419,-0.0492,9.7922,-0.1321,0.0633,-0.4229
1940,1080,836,33.351,26.799,-0.0008,0.0152,9.7692,1.0701,-0.4326,0.2124
1945,1082,836,33.285,26.849,-0.0029,0.0937,9.8424,0.605,-0.6321,0.2818
1950,1080,835,33.303,26.797,0.0652,0.0443,9.7854,0.437,-0.1983,-0.0464
1955,1075,829,33.37,26.935,0.0682,-0.0562,9.8357,-0.0797,0.4673,0.147
1960,1073,842,33.283,26.843,0.028,0.073,9.8185,0.6249,0.1316,0.6623
1965,1069,831,33.302,26.805,-0.0348,-0.0148,9.8241,-0.4987,-0.4521,0.732
1970,1073,833,33.34,26.801,-0.0391,0.0426,9.7465,0.3454,-0.1285,-0.6942
1975,1065,832,33.31,26.827,-0.0255,-0.0149,9.7982,0.1998,-1.0486,0.5689
1980,1058,839,33.391,26.745,-0.0172,-0.0967,9.7605,0.659,0.6136,-1.0719
1985,1065,834,33.26,26.779,-0.0071,-0.0574,9.791,0.1142,-0.6283,0.5673
1990,1054,829,33.409,26.807,-0.0185,0.0106,9.8608,-0.1144,-0.4398,-0.4102
1995,1053,835,33.354,26.84,-0.0061,-0.0639,9.7385,0.7153,0.3284,0.4712
2000,1040,837,33.3,26.814,0.0539,0.0355,9.8408,0.3837,-0.665,0.1544
2005,1044,837,33.302,26.757,0.0468,-0.0272,9.8337,0.1359,-0.2428,-0.4844
2009,1033,836,33.392,26.813,-0.0431,-0.0201,9.8121,0.5286,0.3503,0.6664
2015,1036,835,33.319,26.832,0.0082,-0.1203,9.821,-0.1348,-0.1859,0.0197
2020,1020,837,33.248,26.769,-0.0374,0.0095,9.7673,-0.2351,-0.0878,-0.4994
2025,1018,836,33.289,26.762,-0.0122,0.0841,9.7264,0.4111,-0.1589,0.2037
2029,1014,834,33.371,26.786,-0.0559,0.0184,9.7458,0.0433,0.0579,0.1887
2035,1002,833,33.293,26.83,0.0196,-0.0586,9.8222,-0.1866,-0.1313,0.411
2040,990,833,33.331,26.856,-0.0196,-0.0101,9.7248,0.3167,0.0818,0.0356
2045,992,823,33.304,26.777,-0.0065,0.0481,9.8422,0.242,-0.0576,-0.783
2050,993,828,33.346,26.845,0.0291,-0.0463,9.8759,-0.3295,0.5845,-0.3571
2055,983,833,33.265,26.79,-0.0027,-0.0483,9.7919,0.062,-0.2809,0.613
2060,966,833,33.314,26.809,0.0218,0.0405,9.8791,-0.0729,-0.0075,-0.0502
2065,955,831,33.266,26.832,-0.0571,-0.0233,9.7604,0.5159,0.1251,-0.2892
2070,957,829,33.298,26.87,-0.0117,0.051,9.8338,-0.1404,0.2249,-0.2106
2075,940,828,33.266,26.846,-0.0498,0.0171,9.7414,0.1724,-0.474,-0.2138
2080,935,826,33.308,26.889,-0.0113,0.022,9.7609,-0.2801,0.4572,0.1548
2085,920,827,33.241,26.839,-0.003,-0.0143,9.7527,0.3505,-0.2973,0.7935
2090,922,826,33.347,26.787,-0.0693,0.1002,9.7925,-0.5749,-0.1699,-0.2911
2095,912,826,33.309,26.863,-0.061,-0.082,9.896,0.5352,0.1751,0.5531
2100,900,826,33.313,26.764,-0.0217,-0.0471,9.827,-0.7131,-0.7645,-0.4478
2105,892,829,33.351,26.832,-0.0964,0.0669,9.7454,0.39,0.4379,-0.2104
2110,891,818,33.351,26.855,0.0542,0.0003,9.7618,0.1237,0.1589,0.5343
2115,877,821,33.223,26.838,0.0374,-0.0557,9.9385,-0.4659,-0.1215,-0.7205
2120,865,821,33.326,26.838,0.0224,0.0266,9.8275,-0.3614,-0.5578,-0.6582
2125,857,826,33.256,26.857,-0.0347,0.0293,9.7926,-0.0481,-0.3914,-0.6469
2130,853,821,33.243,26.81,-0.0512,0.0892,9.7728,0.2791,0.6849,-0.2761
2135,841,821,33.318,26.872,-0.0429,-0.108,9.7849,0.6609,-0.0455,0.3484
2140,826,819,33.241,26.829,-0.1051,0.0738,9.8631,-0.1624,-0.0628,0.1101
2145,817,821,33.244,26.828,0.0105,0.0011,9.8334,0.2207,-0.5492,-0.5791
2150,818,822,33.371,26.785,0.0588,-0.0543,9.7972,0.3111,-0.6311,0.444
2155,812,819,33.293,26.8,0.0543,0.0209,9.7071,-0.4927,0.4173,-0.258
2160,793,819,33.249,26.901,0.0281,0.0118,9.7785,-0.516,-0.8769,0.4821
2165,783,819,33.23,26.85,-0.034,-0.0338,9.7667,-0.0573,0.3839,0.5461
2170,791,817,33.33,26.793,-0.0269,-0.015,9.721,0.4231,-0.0001,0.2451
2175,789,821,33.355,26.801,-0.063,0.0255,9.774,-0.6235,-0.1066,-0.2348
2180,781,822,33.276,26.884,0.0578,-0.0502,9.9105,-0.2908,-0.2957,-0.445
2185,775,816,33.274,26.845,-0.025,-0.08,9.7148,-0.4669,0.1427,0.8621
2190,756,811,33.323,26.758,0.0092,0.0687,9.8294,0.2557,0.9981,-0.487
2195,767,815,33.3,26.818,0.0159,0.0015,9.7035,0.7167,0.0143,0.4963
2200,759,817,33.334,26.785,0.1149,-0.0102,9.8232,1.0022,-0.1581,0.1054
2205,753,815,33.333,26.751,-0.0518,-0.0657,9.7011,0.7415,1.0778,0.1466
2210,757,815,33.301,26.853,0.0211,0.0469,9.8281,-0.2088,-0.0993,-0.4902
2215,748,814,33.243,26.816,0.0609,-0.0458,9.763,-0.2327,0.1363,0.4257
2220,733,812,33.363,26.83,0.0068,-0.0602,9.8882,-0.4794,-0.5661,-0.0052
2225,747,814,33.288,26.905,-0.0588,0.0947,9.7985,-0.0984,0.6752,-0.8785
2230,742,811,33.234,26.841,0.0093,0.0413,9.8213,-0.3376,0.23,-0.1286
2235,750,810,33.263,26.701,-0.0057,0.0845,9.786,-0.3693,-0.6148,-0.7448
2240,751,813,33.314,26.89,0.0782,-0.0423,9.8617,0.1717,-0.0997,0.0426
2245,743,816,33.327,26.801,-0.0181,0.028,9.803,0.0902,0.4116,0.9193
2250,754,811,33.298,26.845,-0.0409,0.0263,9.7991,-0.3279,-0.0357,-0.1943
2255,755,806,33.241,26.899,0.0654,0.0361,9.729,-0.1543,-1.3207,0.5028
2260,764,805,33.314,26.806,0.065,0.0546,9.7937,-0.4867,0.7609,0.7869
2265,762,812,33.289,26.803,-0.0008,-0.0124,9.8644,0.5102,0.6503,0.0284
2270,773,802,33.268,26.809,-0.0306,-0.019,9.845,-0.1058,0.3064,-0.447
2275,791,804,33.291,26.78,-0.0775,-0.0437,9.7697,1.6053,-0.1133,0.0067
2280,781,802,33.276,26.848,0.0488,-0.0554,9.7606,-0.1914,0.7672,0.3982
2285,793,804,33.246,26.807,0.0268,0.0061,9.7433,0.5929,0.2379,0.5412
2290,801,801,33.294,26.87,0.0113,-0.0321,9.8305,0.6237,-0.5399,-0.7255
2295,802,798,33.246,26.769,-0.0042,-0.0306,9.7208,0.1224,0.2518,-0.1071
2300,813,802,33.284,26.847,0.0794,0.0083,9.7524,-0.2125,0.8268,0.0969
2305,819,793,33.263,26.716,-0.0449,0.0421,9.8404,0.7752,0.6135,0.3804
2310,823,795,33.296,26.806,0.0196,-0.1072,9.8277,-0.1219,-0.0435,0.341
2315,849,796,33.357,26.819,0.0045,-0.0193,9.7916,0.4418,-0.2147,-1.1863
2320,848,798,33.279,26.92,-0.0238,-0.0004,9.8171,0.0147,-0.4769,0.0606
2325,867,792,33.334,26.773,-0.0152,-0.047,9.7518,0.5483,0.0157,0.2514
2330,870,787,33.253,26.804,-0.0052,0.0689,9.7504,0.315,-0.0404,-0.3293
2335,893,790,33.32,26.797,0.0782,-0.059,9.7493,0.2887,0.181,-0.386
2340,901,789,33.305,26.785,-0.0214,0.0106,9.9023,0.1616,-0.3778,0.8024
2345,912,785,33.206,26.815,-0.024,0.0358,9.877,-0.6792,0.3077,-0.2818
2350,920,783,33.239,26.884,-0.0353,0.0544,9.8092,0.1015,0.6339,0.8828
2355,932,778,33.351,26.852,0.0153,-0.0444,9.815,-0.0403,-0.5479,-0.4733
2360,939,779,33.335,26.799,-0.0432,-0.0118,9.8496,0.5733,0.0127,0.3515
2365,961,780,33.204,26.75,-0.075,0.016,9.8961,-0.2571,0.2786,1.0441
2370,963,780,33.306,26.844,-0.0075,0.0064,9.8562,0.1048,0.0606,0.3869
2375,982,776,33.256,26.89,-0.0292,-0.0436,9.7915,0.6234,0.5482,0.7449
2380,991,775,33.356,26.851,-0.0224,0.0325,9.8805,0.9046,-0.963,0.6716
2385,1002,767,33.315,26.785,-0.0202,-0.031,9.8341,0.3016,0.8922,0.1099
2390,1018,769,33.228,26.781,0.0003,0.0098,9.8172,0.1365,0.3066,0.6668
2395,1032,772,33.32,26.797,0.0224,-0.0102,9.7618,0.0938,1.3381,0.3032
2400,1037,769,33.308,26.884,0.008,0.0523,9.8139,0.2917,0.195,-0.7042
2405,1054,759,33.232,26.775,0.0178,-0.0305,9.789,0.6184,-0.7662,0.1919
2410,1067,759,33.206,26.791,0.0511,-0.0447,9.8651,0.6617,0.4045,0.1254
2415,1069,763,33.316,26.782,0.0063,0.0199,9.8391,-0.273,0.3076,-0.0701
2420,1078,761,33.34,26.755,0.0649,0.009,9.8295,0.9696,-0.7688,0.5819
2425,1091,761,33.335,26.805,0.0516,-0.0129,9.8485,-0.2371,0.5172,0.1355
2430,1101,757,33.248,26.795,-0.0016,0.0382,9.9064,0.1442,-0.1704,0.0649
2435,1105,752,33.342,26.848,0.0392,0.0384,9.7992,-0.2605,0.6338,0.6156
2440,1107,751,33.394,26.833,0.0279,0.0684,9.8069,-0.0575,0.0145,0.3488
2445,1132,756,33.256,26.75,-0.0465,0.053,9.8396,0.6306,0.4338,-0.1722
2450,1132,748,33.229,26.827,-0.0062,-0.0097,9.8696,0.3403,0.0778,0.445
2455,1138,750,33.21,26.955,-0.0532,0.0086,9.7842,0.1712,-0.0848,0.358
2460,1149,751,33.269,26.81,-0.0253,0.0262,9.7739,0.261,0.0908,0.2902
2465,1155,749,33.403,26.83,-0.0288,0.0888,9.9101,0.0407,-0.4123,-0.9361
2470,1159,753,33.31,26.854,0.0181,-0.0141,9.7962,-0.5747,-0.0021,-0.2992
2475,1164,752,33.312,26.817,-0.0844,-0.014,9.8496,0.2925,0.1459,-0.0145
2480,1171,748,33.374,26.797,-0.0254,0.0268,9.8838,0.6819,-0.2307,-0.756
2485,1176,747,33.208,26.799,0.1342,0.0683,9.8625,-0.1477,-0.3735,0.1082
2490,1176,743,33.311,26.82,-0.0276,0.0065,9.8502,-0.1257,0.4636,0.022
2495,1189,750,33.295,26.702,-0.1398,0.0598,9.8645,-0.6784,0.7703,0.8945
2500,1177,750,33.334,26.78,-0.0367,0.0109,9.8325,-0.642,0.3703,0.5288
2505,1179,748,33.257,26.89,0.0442,-0.0332,9.8662,-0.7632,1.2148,0.4871
2510,1189,750,33.242,26.792,-0.0228,0.0922,9.8895,-0.4079,-0.2008,-0.6207
2515,1182,759,33.246,26.789,-0.0977,0.0426,9.7274,-0.0816,-0.5908,0.1435
2520,1191,748,33.343,26.848,-0.0665,0.031,9.8003,-1.2543,-0.416,0.2677
2525,1190,757,33.271,26.757,0.0537,0.0566,9.8028,-0.3904,-0.6438,-0.5104
2530,1200,753,33.357,26.842,-0.0075,0.0249,9.852,0.5843,0.237,-0.1933
2535,1192,762,33.244,26.846,-0.0242,0.0823,9.8557,-0.3784,0.0545,-0.2975
2540,1184,758,33.309,26.837,-0.0153,0.0535,9.893,0.4676,-0.5037,0.0869
2545,1183,759,33.264,26.824,0.0294,0.0057,9.854,-0.2934,-1.1478,0.1342
2550,1174,760,33.271,26.86,-0.0318,0.0152,9.8222,-0.2019,0.4539,0.4168
2555,1179,758,33.345,26.794,-0.1131,-0.04,9.818,-0.7377,-0.2398,0.8247
2560,1181,764,33.299,26.803,-0.0084,-0.0284,9.7605,-0.7788,0.0864,0.4169
2565,1181,778,33.325,26.876,-0.0334,0.0538,9.7873,-0.0736,0.6868,-0.1551
2570,1168,765,33.291,26.753,0.0696,0.0656,9.7908,-0.2334,0.529,0.2898
2575,1165,766,33.336,26.736,-0.0612,-0.076,9.7852,-0.7354,0.2606,-0.1686
2580,1172,777,33.401,26.824,0.042,-0.0336,9.8386,0.2153,0.2692,0.1796
2585,1161,771,33.295,26.815,0.0579,0.009,9.7921,-0.185,-0.1103,-0.1398
2590,1162,778,33.313,26.725,0.0331,0.0742,9.8099,0.1814,-0.4778,-0.2822
2595,1155,781,33.324,26.765,-0.0225,-0.0089,9.7718,0.077,0.7312,0.197
2600,1164,779,33.275,26.961,-0.0422,0.042,9.8615,-0.6286,-0.7452,-0.3376
2605,1163,780,33.342,26.898,0.0561,0.0018,9.8596,-0.5308,-0.4973,-0.2379
2610,1148,785,33.319,26.847,-0.0268,-0.0504,9.8903,0.7843,-0.5403,-0.1385
2615,1146,791,33.27,26.811,-0.0074,-0.0559,9.8163,-0.4794,0.4523,-0.2814
2620,1137,795,33.248,26.798,-0.0167,0.0796,9.7766,0.5871,0.0175,-0.524
2625,1144,796,33.251,26.83,-0.0355,-0.0587,9.8137,-0.5591,0.0438,-0.1276
2630,1142,792,33.244,26.847,-0.0213,-0.0016,9.8053,0.4621,-0.7364,-0.0906
2635,1136,800,33.219,26.815,-0.0596,-0.0361,9.7846,-0.5876,-0.5583,0.0282
2640,1132,797,33.333,26.801,0.1834,0.0195,9.8148,-0.0412,0.1857,0.3743
2645,1120,802,33.299,26.803,0.0984,-0.058,9.7229,-0.2835,-0.143,0.398
2650,1123,800,33.192,26.898,-0.0549,0.0339,9.8488,0.2976,0.3317,1.0202
2655,1122,807,33.288,26.773,0.0652,0.0078,9.7423,0.2275,0.1718,-0.0458
2660,1121,808,33.263,26.818,0.0173,0.0111,9.7753,-0.5454,0.3096,-0.283
2665,1117,807,33.312,26.781,-0.0029,0.0768,9.8557,0.0903,-1.2043,-0.2493
2670,1109,814,33.249,26.787,0.0795,-0.0269,9.8995,-0.3389,0.1945,0.3574
2675,1110,816,33.26,26.849,-0.0021,0.0523,9.8386,-0.4198,0.7174,0.6712
2680,1117,816,33.331,26.822,0.0559,-0.0305,9.7737,-0.9135,0.3565,-0.0536
2685,1108,817,33.194,26.805,0.0087,0.0429,9.8209,0.0564,-0.1471,-1.2896
2690,1117,819,33.293,26.784,-0.0393,0.0931,9.8708,-0.5445,-0.0368,-0.2637
2695,1098,825,33.322,26.854,0.0523,0.0287,9.8632,0.3856,0.4172,0.0737
2700,1098,824,33.226,26.885,-0.0428,0.0428,9.8632,-0.0578,-0.2188,-0.1999
2705,1093,828,33.331,26.814,-0.0694,0.0653,9.8823,0.2571,-0.4916,0.3027
2710,1102,830,33.333,26.76,0.0289,0.1018,9.8682,-0.6139,0.593,-0.6915
2715,1090,827,33.264,26.89,-0.1228,0.0447,9.7692,0.0352,-0.3646,-0.1462
2720,1096,827,33.355,26.887,-0.0222,-0.0284,9.8723,-0.2479,0.3906,-0.773
2725,1085,833,33.313,26.732,0.073,0.0791,9.8014,-0.415,0.0985,-0.8222
2730,1097,830,33.28,26.822,-0.0159,0.063,9.7783,0.1244,-0.5785,0.1412
2735,1090,835,33.32,26.865,-0.007,-0.0496,9.8371,-0.5599,0.2586,-1.4168
2740,1085,838,33.404,26.932,-0.0417,0.0238,9.7529,0.2839,0.3867,0.2194
2745,1079,834,33.293,26.807,0.0568,-0.0405,9.7836,0.6772,-0.7106,-0.1955
2750,1080,836,33.304,26.722,0.0594,-0.0808,9.8598,0.3241,0.4371,-0.1479
2755,1074,834,33.213,26.807,-0.0822,-0.0355,9.7445,-0.3919,-0.2257,0.7031
2760,1067,835,33.261,26.762,-0.0281,-0.0682,9.8107,0.5967,1.0271,0.1238
2765,1064,834,33.305,26.814,-0.0026,-0.0287,9.8033,0.0163,-0.4648,0.7037
2770,1061,833,33.269,26.901,-0.069,0.0373,9.8079,0.3197,0.7258,0.6236
2775,1063,835,33.265,26.805,-0.0436,-0.0627,9.8049,0.0466,-0.5235,0.4423
2780,1061,833,33.28,26.722,0.0167,-0.0416,9.8452,-1.1228,-0.8713,0.5648
2785,1058,838,33.285,26.83,-0.1377,0.0015,9.8352,0.6073,0.702,-0.0336
2790,1049,844,33.327,26.839,-0.0433,0.0034,9.8451,0.2963,0.286,0.1506
2795,1052,835,33.289,26.795,0.022,0.0476,9.7898,-0.0089,0.6311,0.2753
2800,1044,836,33.295,26.858,-0.0304,-0.0235,9.7243,0.8824,0.0417,-0.231
2805,1036,840,33.263,26.84,-0.0728,-0.0066,9.8931,-0.5175,0.6361,0.4668
2810,1030,841,33.267,26.864,-0.0284,-0.0083,9.8196,0.0363,-0.0448,0.1955
2815,1027,838,33.318,26.79,0.0347,0.0028,9.8531,0.3794,0.1003,0.3706
2820,1020,838,33.368,26.769,-0.0118,-0.1063,9.8741,1.0982,-0.6464,0.1006
2825,1014,832,33.388,26.827,-0.0369,-0.1301,9.8812,-0.1113,-0.3353,0.5712
2830,1012,830,33.418,26.775,-0.0113,-0.0074,9.8793,-0.2008,-0.2816,-0.2646
2835,1000,838,33.239,26.795,0.0449,0.0009,9.7879,-0.1511,-0.1168,0.0459
2840,995,828,33.278,26.722,0.0214,0.0513,9.8561,0.2224,0.3768,-0.3517
2845,991,826,33.248,26.903,0.014,0.0275,9.7887,0.2851,0.2522,-0.3587
2850,981,829,33.298,26.749,-0.0595,0.0086,9.8767,0.6398,0.016,-0.1429
2855,971,830,33.401,26.835,0.0262,0.0654,9.8057,-0.4021,0.3998,-0.4268
2860,981,831,33.251,26.798,0.0319,-0.0654,9.8488,-0.0621,-0.2438,0.4921
2865,959,836,33.358,26.787,0.0702,0.0103,9.8098,-0.1842,0.0596,0.1604
2870,951,829,33.369,26.76,-0.0274,0.0661,9.874,-0.7106,-0.7463,0.9488
2875,945,830,33.322,26.823,-0.0091,-0.0686,9.6839,0.1202,0.0007,0.1486
2880,931,828,33.277,26.738,0.0799,0.0886,9.7804,-0.4549,-0.683,0.0826
2885,928,829,33.334,26.819,0.0489,0.0203,9.8871,-0.2799,-0.0217,0.6783
2890,919,824,33.297,26.777,0.0292,0.0248,9.753,-0.1156,0.7494,1.1196
2895,905,824,33.307,26.811,0.1089,-0.0359,9.8089,0.195,-0.409,-0.2859
2900,903,825,33.351,26.863,0.067,-0.0043,9.8009,0.4288,-0.1721,0.5464
2905,896,816,33.275,26.813,0.0195,0.0187,9.7782,-0.4985,-0.2628,-0.383
2910,894,823,33.287,26.822,0.0421,-0.0022,9.7854,1.2587,0.2938,-0.1296
2915,880,819,33.284,26.777,0.0483,-0.0894,9.8432,0.0972,0.5915,0.4779
2920,868,824,33.266,26.878,0.032,0.0741,9.7806,-0.0368,0.5503,-0.9149
2925,864,825,33.331,26.776,0.0742,-0.0052,9.8863,0.1655,-0.6995,0.1889
2930,855,825,33.435,26.961,0.0153,-0.0252,9.7868,0.1292,-0.1448,0.3099
2935,842,821,33.269,26.819,0.0634,-0.0189,9.8845,0.1612,-0.5543,-0.2212
2940,839,822,33.365,26.748,0.0327,0.0059,9.8445,0.4708,-0.1147,-0.5939
2945,829,813,33.259,26.832,0.0307,0.0293,9.8423,-0.431,0.0248,0.0507
2950,817,820,33.297,26.821,-0.0202,0.0571,9.7676,-0.4507,0.3955,-0.4348
2955,810,817,33.333,26.931,-0.0378,0.004,9.7403,-0.4965,-0.572,-0.4743
2960,802,821,33.355,26.872,-0.0615,0.0449,9.797,-1.5143,0.6791,0.5084
2965,797,816,33.327,26.845,-0.0072,0.0921,9.791,0.7205,0.4609,0.4101
2970,798,818,33.252,26.873,-0.0358,-0.1066,9.748,0.8184,0.0246,-0.1923
2975,775,825,33.341,26.76,-0.0565,-0.0799,9.9223,-0.0837,0.7793,0.6229
2980,782,820,33.311,26.706,-0.0612,0.0898,9.7825,-0.26,-0.0501,0.4954
2985,767,818,33.326,26.911,0.0259,-0.0158,9.8828,0.4504,-0.1436,-0.5322
2990,766,815,33.176,26.843,-0.0007,-0.0248,9.8283,0.1585,-0.5334,-0.493
2995,759,819,33.317,26.785,0.0454,-0.0216,9.746,-0.0677,0.4237,-0.3567
3000,758,815,33.266,26.817,-0.0056,0.0048,9.8017,-0.0257,-0.8656,-0.1469
3005,753,809,33.32,26.813,0.0393,0.0233,9.7804,0.1744,-0.0603,0.1743
3010,757,814,33.314,26.85,0.0175,-0.0379,9.7304,-0.7478,0.0252,-0.3193
3015,748,813,33.383,26.782,-0.0413,0.0551,9.8109,-0.466,-0.6273,-0.1357
3020,742,812,33.352,26.811,0.0037,-0.0018,9.8374,0.3071,0.5603,0.1873
3025,758,816,33.291,26.834,-0.0327,0.0394,9.8082,0.5856,0.2448,-0.0518
3030,754,812,33.274,26.835,0.0301,-0.1,9.7529,0.0214,0.2856,0.3244
3035,738,808,33.316,26.752,0.0263,-0.0045,9.8488,0.2707,0.1579,-0.2235
3040,749,811,33.319,26.766,-0.136,-0.0511,9.8592,-0.2185,-0.5402,-0.1936
3045,750,812,33.287,26.851,-0.1063,-0.0304,9.7491,0.0816,-0.4084,0.9562
3050,749,812,33.324,26.82,0.0218,-0.0419,9.8775,0.3222,0.3753,0.8146
3055,751,810,33.344,26.789,-0.0263,0.0537,9.8641,0.0601,0.0437,-0.1594
3060,760,808,33.363,26.881,-0.061,-0.0077,9.7636,-0.0126,0.6846,0.3045
3065,765,805,33.359,26.858,-0.0173,0.1584,9.8621,0.3972,0.0594,-0.0495
3070,765,802,33.267,26.845,0.0149,0.1308,9.8018,-0.6256,0.0405,-0.1777
3075,777,805,33.392,26.919,-0.0506,-0.0334,9.7637,-0.4316,-0.1207,-0.0093
3080,783,806,33.347,26.833,-0.0367,-0.0532,9.7142,-0.0973,0.4126,-0.2936
3085,783,801,33.366,26.745,0.0651,-0.0641,9.8111,0.65,0.0028,-0.5822
3090,802,802,33.28,26.828,-0.0293,0.064,9.8153,-0.8723,-0.0491,0.0899
3095,801,803,33.205,26.871,0.0406,-0.0417,9.8082,-0.182,0.5818,-0.4733
3100,813,800,33.293,26.8,0.0266,0.0014,9.7968,0.7186,0.1294,-0.1539
3105,812,796,33.26,26.764,0.0575,0.0805,9.7855,0.1638,0.3762,1.0922
3110,839,793,33.364,26.925,-0.0319,-0.0134,9.8506,0.7269,-1.5517,0.8219
3115,837,796,33.26,26.742,-0.0028,0.0587,9.8581,0.5654,0.3957,0.239
3120,851,793,33.359,26.9,-0.0164,-0.0376,9.9656,0.4168,0.3071,-1.0174
3125,867,790,33.275,26.824,0.0157,-0.105,9.8276,0.3734,0.1562,-0.1079
3130,874,786,33.394,26.925,-0.0254,-0.042,9.7663,-0.1146,-0.393,-0.6271
3135,885,788,33.246,26.802,0.0072,-0.0083,9.7668,0.9609,0.5601,-0.0221
3140,899,787,33.228,26.819,-0.0585,0.0197,9.7604,-0.101,0.6409,-0.4776
3145,906,783,33.294,26.849,0.0948,-0.0142,9.7798,-1.4099,-0.2493,-0.014
3150,915,781,33.252,26.803,0.0417,0.0385,9.7812,-0.434,0.6033,-0.7128
3155,926,779,33.231,26.865,-0.0166,-0.0755,9.78,0.224,-0.3115,-1.0947
3160,939,773,33.262,26.777,0.0114,0.0478,9.8105,-0.1065,-0.4054,0.3046
3165,953,778,33.352,26.808,-0.0757,0.011,9.7907,0.4554,0.4593,0.1154
3170,970,773,33.319,26.815,0.1208,-0.0437,9.8159,-0.7015,-0.8072,-0.1012
3175,976,770,33.385,26.739,0.0532,0.0323,9.7185,-0.0469,-0.6553,0.7123
3180,991,775,33.32,26.832,0.0587,0.0959,9.7657,-0.3551,-0.3666,0.7633
3185,1003,773,33.311,26.769,-0.0167,0.0668,9.7221,-1.0278,0.1349,-0.0036
3190,1011,766,33.299,26.835,0.0043,0.0641,9.8845,-0.8232,0.7901,-0.1368
3195,1018,769,33.36,26.799,-0.0282,-0.0018,9.7706,0.2152,-0.0798,0.2424
3200,1036,764,33.393,26.858,-0.0774,-0.0123,9.7909,0.78,-0.3189,0.449
3205,1050,768,33.329,26.842,-0.0266,-0.0392,9.8333,-1.0083,0.1876,0.285
3210,1059,761,33.372,26.872,0.0153,0.033,9.7831,0.0363,0.5772,-1.2954
3215,1064,759,33.315,26.779,-0.0252,0.0796,9.7906,-0.5253,0.0354,0.2828
3220,1086,766,33.245,26.713,-0.0103,0.0176,9.9023,-0.3186,-0.28,-0.8077
3225,1086,756,33.333,26.827,-0.0025,-0.0708,9.8027,0.2419,-0.0325,-0.7318
3230,1097,758,33.335,26.795,0.04,-0.002,9.8806,-0.1096,-0.3632,-0.0868
3235,1113,752,33.346,26.794,0.0909,0.0097,9.8254,0.2872,-0.073,-0.2254
3240,1110,756,33.372,26.833,-0.0266,-0.0085,9.8126,0.7865,-0.0218,0.1434
3245,1131,748,33.297,26.852,-0.0001,0.0087,9.7846,-0.376,0.0847,-0.1627
3250,1134,753,33.322,26.845,0.0138,0.0444,9.7932,-0.1762,-0.9615,0.0708
3255,1146,757,33.367,26.831,0.0207,-0.002,9.8326,-0.6869,-0.3298,-0.4156
3260,1144,753,33.415,26.898,0.062,-0.0776,9.8423,0.8919,0.1424,-0.2859
3265,1155,748,33.29,26.908,-0.0563,-0.0659,9.8127,0.2177,-0.2908,-0.022
3270,1162,749,33.226,26.775,-0.0928,0.0988,9.7464,-0.539,-0.0793,0.6223
3275,1161,751,33.289,26.769,0.0025,-0.0978,9.7945,0.9763,0.4042,0.1742
3280,1163,749,33.213,26.813,0.0488,-0.0721,9.77,0.6472,0.1476,-1.026
3285,1174,750,33.376,26.92,0.0312,-0.0133,9.8242,-0.5359,-0.1535,-0.1342
3290,1173,751,33.326,26.839,-0.0498,-0.0288,9.7751,1.2344,-0.534,0.3867
3295,1170,753,33.276,26.767,-0.0142,0.013,9.7946,0.5648,-0.1193,-0.1692
3300,1187,753,33.359,26.75,0.0441,-0.0225,9.8673,0.0914,0.1148,-0.0805
3305,1182,747,33.391,26.72,-0.0097,-0.0099,9.7081,0.1664,-0.2013,0.7757
3310,1187,747,33.313,26.78,-0.0396,0.0264,9.7608,-0.4767,-0.2139,-0.215
3315,1185,753,33.246,26.801,0.0415,-0.1133,9.8266,-0.0137,-1.1471,-0.0925
3320,1191,754,33.233,26.828,-0.0282,-0.0101,9.838,0.8151,-0.6556,-0.4811
3325,1195,756,33.224,26.803,0.0726,0.0435,9.7837,-1.6711,0.1436,-0.4602
3330,1191,752,33.375,26.827,0.0514,-0.081,9.8265,-0.1338,0.5995,0.1264
3335,1191,756,33.19,26.825,-0.0215,0.0146,9.828,0.2088,-0.558,-0.0884
3340,1191,753,33.301,26.827,-0.0053,-0.0832,9.7814,-0.1571,-0.2117,-0.1609
3345,1189,763,33.297,26.795,0.0123,0.0288,9.8301,0.362,1.0115,-0.2556
3350,1188,761,33.349,26.839,0.0418,-0.0534,9.8957,0.6328,0.1032,0.1037
3355,1176,762,33.279,26.831,0.0251,-0.027,9.8799,0.1522,0.1266,-1.0962
3360,1177,767,33.321,26.8,0.0918,-0.0386,9.8567,-0.0016,-0.8104,0.6528
3365,1180,766,33.288,26.82,-0.0134,-0.0376,9.8149,0.2697,0.3442,-0.1525
3370,1174,764,33.254,26.879,0.0814,-0.0373,9.8843,-0.7799,0.2046,0.0565
3375,1177,767,33.288,26.885,-0.081,-0.0231,9.8382,0.2245,-0.9787,0.036
3380,1178,773,33.306,26.814,0.065,-0.0081,9.7422,-0.1157,-0.7882,-0.2694
3385,1165,772,33.375,26.827,-0.0117,0.0606,9.7221,-0.4569,-0.3918,-0.02
3390,1169,781,33.309,26.887,0.0733,0.0291,9.8556,-0.7963,0.5998,-0.2203
3395,1162,781,33.305,26.794,-0.0259,0.0092,9.8268,-0.6224,1.1001,0.1539
3400,1161,782,33.174,26.79,-0.0292,-0.0031,9.7956,-0.0808,0.3658,0.2531
3405,1153,780,33.454,26.788,0.056,0.0701,9.7666,0.1811,0.1154,0.0803
3410,1158,786,33.324,26.839,0.0125,0.0341,9.738,-0.0464,0.0968,-0.1022
3415,1142,789,33.296,26.879,0.0085,-0.0872,9.8183,0.4622,0.46,0.407
3420,1151,792,33.337,26.877,-0.0484,0.0245,9.8651,0.1683,0.7532,-0.7039
3425,1147,790,33.381,26.839,0.1063,-0.0053,9.8571,-0.1932,0.5252,-0.6682
3430,1138,793,33.275,26.858,-0.0673,0.0596,9.8131,-0.2415,0.5978,0.3064
3435,1142,794,33.333,26.816,-0.0068,0.1113,9.8443,-1.131,-0.4847,-0.1186
3440,1129,799,33.3,26.901,-0.0533,0.1015,9.7986,0.5478,-0.2026,0.5851
3445,1126,805,33.199,26.73,0.0241,-0.0202,9.8315,0.8425,-0.6788,-0.4744
3450,1133,801,33.34,26.782,-0.0938,0.0247,9.8952,-0.102,-0.2832,-0.1206
3455,1125,804,33.21,26.829,0.0087,-0.0184,9.7821,0.4724,-0.4449,-0.3675
3460,1120,808,33.3,26.841,-0.0498,0.0801,9.8605,-0.4731,-0.0941,-0.2721
3465,1121,813,33.284,26.834,0.0465,0.0307,9.8054,0.3827,1.0181,0.1181
3470,1116,815,33.267,26.787,0.0315,-0.0383,9.8938,0.0036,-0.4913,0.2758
3475,1115,813,33.283,26.8,-0.028,0.0127,9.8067,-0.1985,0.085,0.0554
3480,1108,819,33.4,26.838,-0.0385,-0.0461,9.8643,0.6737,-0.5698,0.1464
3485,1107,813,33.245,26.843,0.0463,-0.0084,9.9176,0.6689,0.3848,-0.2054
3490,1114,822,33.424,26.743,-0.0445,0.0029,9.8049,-0.5568,-0.1969,0.0479
3495,1099,824,33.308,26.931,-0.0174,0.0122,9.7805,0.265,-0.2132,0.5354
3500,1096,824,33.298,26.832,0.0441,-0.0132,9.8457,0.7182,-0.2736,0.0983
3505,1105,828,33.327,26.743,-0.0019,0.0518,9.728,-0.3909,-0.6001,-0.4848
3510,1096,831,33.271,26.811,-0.0207,-0.0471,9.7495,0.2243,-0.065,-0.3092
3515,1086,831,33.38,26.884,-0.0224,-0.0422,9.7748,0.2003,-0.2415,-1.1404
3520,1099,828,33.311,26.88,-0.059,0.006,9.7562,-0.113,0.6778,-0.268
3525,1092,830,33.295,26.821,0.0381,0.0287,9.8449,-0.3114,-1.3774,-0.0276
3530,1096,831,33.373,26.87,-0.0095,-0.0343,9.8115,0.0273,0.3161,-0.2309
3535,1082,829,33.342,26.859,-0.0514,0.062,9.8203,0.4933,-0.0848,0.0855
3540,1080,831,33.28,26.791,-0.0622,-0.0371,9.7693,-0.784,-0.5408,0.1973
3545,1083,837,33.361,26.806,0.0214,-0.0108,9.7762,0.0582,0.1871,0.9485
3550,1076,835,33.319,26.724,0.0203,-0.0882,9.8367,-0.2154,0.0481,0.3997
3555,1075,837,33.321,26.73,-0.0084,-0.035,9.8285,-0.6001,-0.0959,-0.6715
3560,1070,837,33.342,26.848,0.008,0.095,9.8011,-0.1072,0.2938,-0.4226
3565,1073,842,33.243,26.807,-0.038,0.0002,9.835,-0.3344,0.1971,-0.5586
3570,1075,837,33.333,26.888,0.1018,0.0039,9.8803,0.0757,0.4316,0.5943
3575,1072,841,33.301,26.794,-0.0605,0.0315,9.8685,0.1777,0.6372,0.3321
3580,1059,836,33.306,26.88,-0.0197,-0.0497,9.7606,0.2748,-0.7872,0.4862
3585,1062,841,33.287,26.823,0.0241,-0.0662,9.8123,0.4039,0.8191,-0.1088
3590,1051,838,33.387,26.819,-0.0315,-0.0763,9.7844,-0.3369,-0.1977,-0.4527
3595,1057,833,33.217,26.783,-0.0219,0.0378,9.8896,-0.6707,-0.7029,0.2985
3600,1047,841,33.298,26.864,-0.0628,-0.0276,9.849,-0.2081,-0.3946,0.0114
3605,1035,835,33.366,26.825,-0.0179,0.054,9.7819,-0.3308,-0.6753,-0.2055
3610,1044,840,33.321,26.791,-0.0542,-0.0694,9.7535,0.2361,-0.2979,0.2613
3615,1028,839,33.257,26.746,-0.0663,0.004,9.7934,0.2821,0.079,-0.3202
3620,1025,833,33.241,26.897,-0.0329,-0.0815,9.8353,-0.28,-0.7818,0.2551
3625,1022,831,33.259,26.814,0.0009,0.0121,9.8134,0.449,-0.8536,0.5657
3630,1016,834,33.291,26.775,0.0074,0.03,9.8414,0.3299,-0.0849,0.8248
3635,1003,832,33.317,26.845,0.0376,0.0586,9.7655,0.6625,-0.1923,0.2842
3640,1003,836,33.328,26.781,-0.039,0.0082,9.7956,0.3331,0.539,-1.1593
3645,988,829,33.373,26.841,-0.1009,-0.0136,9.8303,0.5135,-0.3432,0.4422
3650,985,831,33.297,26.75,-0.0105,-0.0329,9.8118,-0.0298,0.6448,-0.8
3655,973,831,33.198,26.868,-0.037,-0.0183,9.9512,-0.6502,0.5162,-0.1507
3660,979,830,33.356,26.887,-0.0274,-0.0441,9.7179,-0.099,-0.2513,-0.5164
3665,958,836,33.393,26.814,-0.0441,-0.0656,9.7875,-0.4373,-0.9057,-0.392
3670,963,828,33.386,26.879,-0.0131,-0.0904,9.8219,-0.1481,-0.4555,0.4068
3675,945,829,33.215,26.891,-0.0344,-0.0551,9.7616,-0.106,-0.7157,-0.0615
3680,944,827,33.287,26.865,-0.1036,-0.0156,9.7688,0.7763,0.4428,-0.9706
3685,936,829,33.314,26.852,0.0634,-0.0255,9.6882,1.0716,0.9214,0.2845
3690,919,830,33.265,26.793,-0.0093,-0.0723,9.755,0.1477,0.1782,-0.2266
3695,907,828,33.335,26.805,0.0227,-0.0184,9.8235,0.2625,-0.9902,0.339
3700,896,828,33.346,26.78,-0.094,-0.0147,9.7248,-0.3419,0.4689,0.0808
3705,890,824,33.371,26.823,0.0318,-0.0392,9.7462,-0.2804,-0.3781,0.4107
3710,890,827,33.34,26.76,-0.0657,0.0384,9.7876,-0.1477,0.2346,0.5956
3715,882,822,33.357,26.808,-0.0266,-0.0655,9.7966,0.315,-0.4296,-0.4135
3720,868,826,33.362,26.706,0.0973,0.0277,9.7261,-0.094,-0.1072,-0.2438
3725,865,821,33.411,26.819,0.0018,-0.0222,9.7764,0.0105,0.6944,-0.5628
3730,847,820,33.26,26.904,0.0621,0.0504,9.7253,-0.2961,-0.776,0.0331
3735,847,821,33.366,26.919,-0.0979,-0.0368,9.8133,-0.2174,-0.4885,-0.1868
3740,835,823,33.294,26.858,0.0061,0.0246,9.7713,-0.3818,-0.6485,0.7271
3745,834,821,33.276,26.777,0.0262,-0.0458,9.7592,-0.5379,0.7499,-0.5573
3750,819,818,33.266,26.82,-0.0948,-0.0802,9.772,0.5748,0.5742,-0.6704
3755,806,818,33.334,26.905,-0.0365,0.0124,9.7688,-0.1818,0.1935,0.4931
3760,791,817,33.302,26.762,0.0249,0.0059,9.8732,-0.6184,0.2483,0.8185
3765,793,813,33.253,26.762,-0.0111,-0.0225,9.7715,-0.5146,-0.8063,-0.0582
3770,797,817,33.362,26.761,-0.0056,-0.0103,9.8024,-0.3297,0.1829,-0.2159
3775,779,818,33.301,26.797,0.0533,-0.0277,9.7828,-0.3847,0.3047,0.1556
3780,776,817,33.309,26.791,-0.0175,-0.0376,9.7587,0.6383,0.0196,0.2684
3785,770,824,33.381,26.759,-0.1183,-0.03,9.8024,0.0947,0.0915,-0.6713
3790,771,818,33.356,26.857,-0.0384,-0.0438,9.8204,-0.291,0.1833,0.0126
3795,767,811,33.397,26.869,0.0902,0.0006,9.8089,-0.0275,0.1076,-0.2625
3800,763,818,33.391,26.844,-0.0421,0.0096,9.8741,-0.1391,0.7419,-0.2625
3805,753,813,33.316,26.9,0.0017,0.0402,9.8179,-0.3527,-0.8,-0.387
3810,759,814,33.336,26.916,0.0001,-0.0113,9.8293,0.4247,0.3416,0.6777
3815,752,812,33.299,26.779,0.0373,-0.0171,9.8499,-0.5986,-0.4149,-0.0976
3820,750,814,33.259,26.884,-0.0511,-0.0217,9.8318,-0.3785,0.1211,-0.6884
3825,743,816,33.282,26.846,0.0345,0.0228,9.8213,0.0228,-0.0962,-0.2141
3830,754,813,33.37,26.883,-0.0208,-0.0563,9.8664,0.1374,-0.203,-0.0677
3835,749,813,33.385,26.788,0.1172,-0.0176,9.7707,-0.6764,-0.0432,0.2895
3840,756,805,33.331,26.833,-0.0112,0.0576,9.9077,0.1032,0.2095,-0.2459
3845,753,811,33.176,26.789,-0.0932,-0.0457,9.78,-0.4769,0.5093,-0.0328
3850,758,810,33.402,26.792,0.0156,-0.0928,9.7015,1.0062,0.1397,0.086
3855,758,806,33.301,26.751,0.0291,0.0053,9.89,-0.8417,-0.1573,-0.0857
3860,768,811,33.352,26.903,0.0706,0.0318,9.8727,0.2714,0.3921,0.2445
3865,755,809,33.25,26.81,-0.08,0.0144,9.7807,-0.5925,0.3801,0.8028
3870,771,804,33.356,26.78,-0.0522,-0.0195,9.8492,0.038,0.1695,-0.036
3875,771,808,33.307,26.795,-0.0739,0.0192,9.7698,-0.028,0.1743,-0.4588
3880,788,801,33.315,26.788,0.0488,-0.102,9.8559,1.164,0.6444,-0.0975
3885,780,811,33.332,26.742,0.0792,-0.0526,9.7957,-1.1674,-0.0453,-0.0011
3890,801,803,33.384,26.809,0.0591,0.0391,9.7466,0.1856,0.6026,-0.6944
3895,798,794,33.287,26.851,0.0553,-0.0524,9.7636,0.1109,0.3225,0.5302
3900,820,800,33.279,26.765,0.0019,-0.0481,9.8607,0.3985,-0.3161,0.222
3905,815,797,33.334,26.868,-0.0328,-0.0979,9.771,-0.7634,0.384,-0.4361
3910,833,801,33.337,26.729,-0.0254,-0.0553,9.796,-0.0564,-0.0036,-0.3318
3915,839,798,33.285,26.809,-0.0712,-0.0191,9.8847,-0.0071,0.5687,-0.226
3920,855,794,33.31,26.816,0.0056,-0.0858,9.7609,-0.17,-0.7954,-0.0682
3925,865,785,33.339,26.881,0.0092,0.047,9.9409,-0.2418,0.1557,0.162
3930,881,789,33.367,26.84,-0.0451,0.0142,9.7287,0.5534,0.678,-1.0553
3935,892,787,33.266,26.898,-0.0839,0.0378,9.8429,0.7758,-0.2062,-0.3108
3940,894,788,33.35,26.858,0.0404,-0.0206,9.7878,-0.1198,0.3908,0.233
3945,902,779,33.304,26.889,0.0132,-0.0343,9.9122,0.5254,0.498,0.1956
3950,915,780,33.209,26.689,-0.0501,-0.037,9.8139,0.76,0.1248,0.4095
3955,932,781,33.342,26.87,-0.0348,0.0588,9.8164,0.2539,-0.3812,0.1455
3960,939,775,33.316,26.804,-0.0289,0.0835,9.8186,-0.3941,0.2578,-0.3441
3965,951,781,33.26,26.899,0.0134,-0.0683,9.8424,0.191,-0.3241,-0.1334
3970,961,773,33.28,26.923,0.0332,0.0466,9.7584,-0.4459,-0.8424,0.1333
3975,985,774,33.291,26.86,-0.0468,-0.0233,9.8075,0.3229,-0.2386,0.3022
3980,998,771,33.362,26.81,-0.0559,0.0609,9.771,1.1725,-0.3867,0.2861
3985,998,777,33.317,26.755,0.0385,0.0157,9.8325,-0.2357,0.2363,0.1657
3990,1013,769,33.319,26.803,-0.0037,-0.1285,9.814,0.6848,-0.6275,0.2256
3995,1036,768,33.251,26.834,0.0297,0.0114,9.76,-0.0054,-0.8955,-0.0583
4000,1045,768,33.292,26.788,0.0159,0.047,9.8822,-0.0368,-0.8704,-0.5426
4005,1049,768,33.171,26.812,0.1031,0.0438,9.8184,0.653,-0.1531,-0.1264
4010,1055,765,33.411,26.804,0.1135,-0.0339,9.8372,-0.375,0.0639,-0.0825
4014,1068,756,33.369,26.827,0.0756,-0.0391,9.7725,0.3187,-0.5532,-0.4327
4019,1077,755,33.386,26.875,-0.0431,-0.0133,9.7291,-0.5081,1.2511,-0.6308
4025,1077,759,33.275,26.775,-0.0634,0.016,9.781,-0.217,-0.1615,-0.6346
4030,1099,755,33.325,26.858,0.0228,-0.0211,9.7795,-0.3801,-0.7239,-0.2173
4035,1108,754,33.266,26.95,0.0001,-0.0344,9.9016,-0.3088,-0.5086,-0.9465
4040,1115,752,33.331,26.769,-0.0338,-0.0854,9.7955,-0.0572,-0.3603,0.1965
4045,1123,754,33.317,26.908,-0.0585,-0.0636,9.7504,-0.2766,-0.0871,-0.1435
4050,1127,751,33.31,26.922,-0.0533,-0.0771,9.8369,0.7932,0.1234,0.723
4054,1138,751,33.26,26.882,0.0373,0.0748,9.7466,-0.0741,0.418,-0.3329
4059,1145,756,33.331,26.812,-0.0167,-0.0019,9.859,-0.0628,0.0199,-0.7219
4065,1154,752,33.288,26.835,-0.0181,-0.0191,9.7068,0.522,-0.2474,-0.6475
4070,1165,753,33.311,26.899,0.0546,-0.0096,9.7979,0.0135,-0.9506,-0.8136
4075,1163,755,33.392,26.801,0.0394,-0.045,9.8328,-0.4496,0.5838,-0.0749
4080,1178,749,33.41,26.842,-0.002,-0.0681,9.88,0.2717,-0.2752,-0.2972
4085,1169,749,33.364,26.825,-0.0171,0.0057,9.8752,0.4987,0.099,0.4173
4090,1178,749,33.236,26.861,0.0231,-0.0327,9.8793,0.0401,-0.1294,0.1365
4094,1189,748,33.265,26.823,0.0907,0.0561,9.8251,-0.3007,-0.7325,0.5817
4100,1181,753,33.306,26.855,-0.0228,0.158,9.8958,0.2174,-0.9428,-0.216
4105,1184,749,33.297,26.833,-0.1117,-0.0647,9.7723,0.2294,-1.064,-0.5857
4110,1187,748,33.333,26.8,0.0267,-0.0317,9.7933,0.537,0.0208,0.5017
4115,1188,751,33.275,26.787,0.0369,-0.0151,9.8678,0.1308,0.5439,-0.6047
4120,1193,755,33.375,26.83,0.0306,0.0379,9.928,-0.3877,-0.4796,-0.14
4125,1188,757,33.236,26.773,-0.0022,-0.0582,9.7454,0.937,0.0429,0.2869
4130,1187,755,33.405,26.857,-0.0178,-0.0847,9.8357,0.8915,-0.5283,-0.5494
4135,1191,757,33.271,26.883,-0.0155,-0.0298,9.8397,-0.5181,0.1332,-0.3078
4140,1186,756,33.293,26.808,0.0326,-0.0291,9.7912,-0.4694,-0.2529,-0.6548
4145,1191,759,33.333,26.92,0.0372,-0.0439,9.828,0.0731,-0.3204,-0.1147
4150,1186,758,33.306,26.828,-0.0412,-0.0852,9.8403,0.6861,0.0823,0.1136
4155,1185,762,33.354,26.77,-0.0271,-0.0141,9.7616,-0.326,-0.3356,-0.3881
4160,1181,764,33.259,26.905,0.05,0.0225,9.8052,0.1438,-1.2563,0.2968
4165,1169,763,33.252,26.759,0.0237,0.0057,9.816,0.5761,-0.8373,-0.0498
4170,1176,771,33.347,26.908,0.048,-0.0455,9.8686,0.3783,-0.4795,-0.4531
4175,1177,773,33.3,26.853,-0.0481,0.0379,9.7846,-0.1513,0.1453,-0.2678
4180,1179,770,33.335,26.894,-0.0583,-0.0089,9.799,-0.0953,0.1828,0.0154
4185,1166,774,33.281,26.881,0.0275,-0.0362,9.8964,0.1923,-0.1256,0.0413
4190,1174,777,33.276,26.818,0.0663,0.0267,9.7928,-0.0584,-0.4495,0.0048
4195,1155,776,33.345,26.747,0.0149,0.0669,9.8029,-0.4843,-0.811,0.6278
4200,1163,778,33.262,26.883,0.009,0.0576,9.8542,-0.499,1.1792,0.5798
4205,1153,785,33.361,26.91,-0.0582,0.0617,9.7414,0.0608,-0.9167,0.8354
4210,1156,785,33.383,26.871,0.029,0.0242,9.8225,-0.4546,-0.5999,0.4252
4215,1152,788,33.34,26.893,-0.0879,0.0294,9.8341,0.0195,-0.4309,-0.5787
4220,1153,785,33.289,26.821,-0.0131,0.0627,9.8547,0.1285,0.4369,-0.3072
4225,1150,792,33.251,26.862,0.1132,-0.0517,9.7433,0.2301,-0.8831,-0.4775
4230,1137,793,33.292,26.866,0.0899,0.0101,9.7546,0.2986,0.2619,0.1111
4235,1125,798,33.31,26.902,0.0093,0.0355,9.7672,0.3708,0.7715,-0.6778
4240,1119,800,33.294,26.871,-0.007,0.0537,9.8014,-0.54,-0.7825,-0.0919
4245,1120,799,33.261,26.788,0.1508,-0.0482,9.7627,0.6209,0.5907,0.9183
4250,1120,804,33.273,26.804,0.0115,-0.0075,9.8878,-0.0564,-0.5418,-0.0452
4255,1130,802,33.312,26.741,0.0322,0.004,9.8329,-0.9247,-0.0451,0.3256
4260,1120,811,33.424,26.874,0.0511,0.0251,9.8416,-0.5872,0.8335,0.1501
4265,1124,811,33.321,26.793,0.0768,0.0929,9.8762,0.0804,0.7518,0.2157
4270,1111,813,33.364,26.806,-0.0326,0.095,9.8966,0.0862,-0.0959,1.0963
4275,1110,817,33.331,26.872,0.0004,-0.0576,9.7019,0.0221,0.0676,0.2284
4280,1111,816,33.287,26.754,0.0581,0.004,9.7901,-0.1172,0.1508,-0.6306
4285,1113,819,33.346,26.808,0.0102,-0.1006,9.8556,-0.4033,0.2695,-0.0585
4290,1106,824,33.319,26.865,-0.0043,0.0189,9.8008,0.2079,0.1219,-0.0009
4295,1111,821,33.271,26.785,-0.004,0.0164,9.8111,-0.518,-0.7503,0.2066
4300,1098,826,33.311,26.839,-0.0166,-0.0068,9.8053,-0.3289,-0.8275,-0.5667
4305,1095,827,33.377,26.849,0.0672,0.0304,9.7587,0.6419,0.3361,0.1521
4310,1100,818,33.282,26.908,0.0446,-0.0143,9.7298,0.2157,0.1571,-0.2228
4315,1094,830,33.211,26.829,-0.0117,-0.0078,9.8619,-0.357,0.2328,-0.2534
4320,1099,826,33.333,26.894,-0.0754,0.0033,9.7863,0.1153,-0.4025,-1.2154
4325,1094,828,33.293,26.816,0.0095,0.002,9.7903,0.4563,-0.1262,-0.0711
4330,1086,834,33.332,26.683,-0.005,0.0096,9.8469,0.7381,0.1352,-1.0415
4335,1079,824,33.321,26.8,0.1188,0.0211,9.806,0.9047,-0.0155,0.0006
4340,1088,832,33.396,26.952,0.0356,0.0045,9.812,0.1615,0.0438,-0.0041
4345,1074,833,33.382,26.843,-0.0565,-0.0206,9.8756,-0.0855,-0.3783,-0.1858
4350,1083,838,33.389,26.783,-0.0402,0.0245,9.737,0.1861,-0.4005,-0.3702
4355,1062,834,33.28,26.857,-0.0312,0.0959,9.7829,-0.3939,0.934,-0.1985
4360,1073,834,33.321,26.78,-0.0354,-0.1002,9.8606,0.0138,-0.19,1.1239
4365,1074,840,33.44,26.77,-0.0697,-0.0266,9.7635,-0.1159,-1.2542,0.2542
4370,1063,838,33.34,26.843,0.026,-0.0278,9.8006,-0.3083,-0.638,-0.2974
4375,1057,837,33.249,26.88,0.0358,-0.0152,9.8428,-0.4821,0.6507,-0.2804
4380,1062,833,33.363,26.79,-0.0201,-0.0015,9.7537,0.9734,-0.4183,-0.2949
4385,1056,835,33.312,26.874,0.0053,0.0614,9.8572,-0.2749,0.3029,0.2781
4390,1040,837,33.23,26.915,-0.0536,0.1066,9.8182,-0.0411,-0.7258,-0.3664
4395,1048,839,33.254,26.811,-0.0345,0.0261,9.7237,-0.1984,-0.2091,-0.2823
4400,1049,836,33.353,26.854,-0.0399,0.0798,9.8802,-0.7771,-0.4685,0.082
4405,1043,837,33.299,26.886,0.0633,0.038,9.8585,0.007,0.4849,0.1438
4410,1043,835,33.304,26.739,0.0274,-0.0673,9.8231,0.4065,0.9815,-0.2653
4415,1031,833,33.275,26.841,0.0266,-0.0088,9.797,-0.2691,0.7935,0.4142
4420,1031,833,33.344,26.813,0.015,0.0411,9.7572,0.4449,-0.3771,-0.0675
4425,1008,841,33.295,26.799,0.0313,-0.011,9.8677,-0.1592,-0.4238,0.198
4430,1009,832,33.38,26.783,0.0294,0.032,9.8305,0.3972,-0.1521,-0.5183
4435,1010,838,33.256,26.875,-0.0347,0.0676,10.0062,0.5558,0.296,0.6142
4440,994,836,33.325,26.821,0.0203,0.0151,9.8464,0.2073,-0.0637,0.9717
4445,1005,835,33.266,26.84,0.0131,0.003,9.8364,0.3424,0.4217,-0.6061
4450,978,833,33.247,26.84,-0.0412,-0.0157,9.8117,-0.6507,-0.2122,-0.9448
4455,973,827,33.298,26.832,-0.0008,-0.0643,9.7888,-0.0897,0.1242,-0.8158
4460,961,828,33.297,26.827,-0.0061,0.0432,9.7934,-0.0798,-0.6769,0.2517
4465,962,829,33.355,26.809,0.034,0.0157,9.7614,0.6105,-0.2242,1.0338
4470,963,832,33.308,26.777,-0.0094,-0.017,9.8843,-0.4165,0.9231,0.0582
4475,941,820,33.269,26.884,0.0085,0.0724,9.7666,0.3778,-0.1349,0.7937
4480,937,827,33.389,26.824,-0.0169,0.0163,9.794,-0.1315,0.2991,0.1822
4485,937,834,33.353,26.856,0.0191,0.0324,9.747,-0.2351,-0.1897,-0.0582
4490,930,826,33.313,26.831,0.0744,0.0176,9.8289,0.4653,-0.0832,0.3972
4495,911,829,33.254,26.83,-0.0487,-0.0002,9.8158,1.3944,0.4765,-0.3282
4500,900,823,33.346,26.868,-0.0394,0.0201,9.8169,-0.849,0.9192,-0.1388
4505,900,825,33.419,26.874,-0.0056,0.0181,9.8249,0.2275,0.1715,0.6483
4510,890,828,33.306,26.804,0.0174,-0.0486,9.8092,0.1892,0.6523,-0.3294
4515,866,822,33.299,26.815,0.0346,0.0269,9.7925,0.0438,-0.981,0.3865
4520,867,819,33.322,26.866,0.0414,0.0456,9.7758,-0.3758,-0.0419,-0.3326
4525,860,817,33.325,26.889,0.061,0.078,9.892,1.5854,-0.0448,-1.1072
4530,851,822,33.27,26.841,-0.0315,0.0069,9.8288,-0.7751,0.2841,-0.2809
4535,848,822,33.439,26.823,0.012,0.1189,9.8704,-0.1416,0.0503,0.0703
4540,828,820,33.298,26.792,-0.0501,-0.0074,9.7896,-0.148,-0.4585,0.1273
4545,819,820,33.287,26.876,-0.0461,-0.009,9.719,-0.1495,-0.484,0.38
4550,825,817,33.354,26.757,0.0294,-0.0362,9.807,-0.0474,-0.142,-0.0807
4555,805,821,33.223,26.849,-0.0114,0.0509,9.761,-0.0604,-0.6097,0.6686
4560,797,815,33.234,26.88,-0.0137,0.0361,9.8481,-0.0183,-0.7083,-0.492
4565,796,820,33.34,26.854,0.0636,0.0304,9.8649,0.6748,-0.4046,0.1816
4570,779,819,33.363,26.866,-0.0158,0.0526,9.7803,0.3204,-0.4198,-0.0136
4575,795,819,33.297,26.767,0.0378,-0.0565,9.8621,-1.3127,0.2192,-0.6274
4580,774,818,33.293,26.911,0.0738,-0.0692,9.7474,-0.0573,0.2213,0.2658
4585,767,819,33.29,26.893,0.0068,0.0369,9.8094,0.8544,-0.5159,-0.4941
4590,766,817,33.368,26.83,-0.0677,-0.0799,9.8143,-0.6409,0.4821,0.7487
4595,762,823,33.399,26.847,-0.058,0.0053,9.8668,1.1646,0.2008,-0.1479
4600,755,813,33.341,26.813,-0.0039,-0.023,9.7978,0.6598,0.7497,-0.8737
4605,750,807,33.273,26.848,0.011,0.0053,9.8752,0.8402,0.7381,0.6599
4610,752,814,33.25,26.946,-0.0831,-0.0519,9.8341,0.1628,0.4256,-0.1149
4615,750,815,33.211,26.89,0.0306,0.0288,9.6646,0.3195,-0.421,-0.2263
4620,753,813,33.334,26.952,-0.0573,0.0318,9.7349,0.4467,0.7314,-0.2432
4625,753,816,33.318,26.839,-0.0204,0.0189,9.7257,0.107,0.125,-0.3125
4630,756,810,33.288,26.828,0.0503,0.0366,9.8682,0.1212,-0.1129,-0.4194
4635,748,815,33.325,26.755,0.0088,0.0561,9.8457,-0.0486,0.3686,-0.8495
4640,747,807,33.399,26.837,0.0431,0.0055,9.8127,0.1543,-0.3511,0.3706
4645,753,811,33.33,26.88,-0.0663,-0.0242,9.8189,0.3461,-0.3768,-0.018
4650,753,805,33.39,26.824,-0.0125,-0.0544,9.7922,0.8285,-1.1307,0.1624
4655,764,806,33.325,26.852,-0.0109,0.0241,9.7521,-0.5865,-0.4001,0.4188
4660,750,807,33.301,26.762,-0.0198,0.0884,9.8025,0.1037,-0.5375,0.3887
4665,772,804,33.387,26.765,0.0349,-0.0566,9.8707,0.129,-0.5555,0.3395
4670,774,811,33.475,26.87,-0.0695,-0.1005,9.8122,0.1119,0.211,-0.3005
4675,778,805,33.295,26.789,-0.0899,-0.0328,9.8737,0.1194,0.4412,0.8199
4680,783,795,33.344,26.824,0.0082,-0.0287,9.8334,0.0657,-0.0348,0.3603
4685,790,799,33.312,26.801,-0.0734,0.0419,9.8967,-0.8529,0.2651,-0.1125
4690,787,803,33.299,26.959,0.1562,0.0031,9.7815,-0.3587,-0.6932,0.8486
4695,807,799,33.432,26.865,0.0241,-0.0292,9.8293,0.026,-0.0878,-0.0385
4700,802,798,33.311,26.786,-0.0579,0.0667,9.7089,-0.8478,-0.2812,-0.0664
4705,826,800,33.287,26.851,-0.0025,-0.1147,9.8097,-0.1407,-0.6298,0.1376
4710,831,796,33.368,26.822,-0.0859,0.0083,9.8116,0.663,0.3402,-1.0494
4715,841,790,33.274,26.826,0.0009,0.0162,9.783,0.2149,-0.0351,0.869
4720,857,794,33.304,26.832,0.0221,0.0148,9.7853,0.0786,-0.5225,-0.3276
4725,862,790,33.402,26.87,0.0214,-0.0096,9.8877,-0.2762,-0.0763,0.985
4730,870,786,33.387,26.83,-0.0013,-0.0057,9.8119,-0.0119,-0.3276,-0.5308
4735,884,784,33.33,26.808,0.0522,0.0595,9.8277,0.6082,-1.1612,-0.3613
4740,910,789,33.408,26.772,-0.0331,-0.0115,9.8605,-0.3939,-0.2323,-0.4482
4745,901,785,33.268,26.831,0.0075,-0.0246,9.8107,0.8776,-0.2423,0.2149
4750,921,783,33.358,26.741,0.0462,-0.0715,9.839,-0.9151,-0.4936,0.1233
4755,933,779,33.337,26.812,-0.0493,-0.088,9.8057,-0.1974,-0.0292,0.2858
4760,939,780,33.339,26.861,0.001,-0.0106,9.9119,-0.4354,0.9535,0.4281
4765,954,778,33.386,26.895,0.0584,-0.0393,9.886,0.424,-0.0934,-0.3289
4770,964,775,33.33,26.759,-0.0362,-0.0095,9.7819,-0.2492,0.0366,-0.3254
4775,975,781,33.281,26.851,0.0201,0.0302,9.8337,-0.1081,0.907,0.0915
4780,993,770,33.374,26.81,-0.0921,0.0139,9.8477,-0.1693,-0.0581,-0.1149
4785,1002,769,33.301,26.902,-0.0577,0.0445,9.8604,-0.1171,-0.2771,-0.4568
4790,1019,766,33.327,26.759,0.0149,0.0252,9.9024,0.0925,-0.5766,-0.1552
4795,1026,770,33.385,26.936,0.0076,-0.0232,9.8682,-0.0113,0.7068,0.5741
4800,1041,766,33.349,26.876,-0.0849,0.0169,9.7759,0.1,0.8019,0.3481
4805,1037,768,33.288,26.881,0.0816,-0.0124,9.7372,-0.1128,0.5466,0.1681
4810,1058,765,33.397,26.827,0.0003,-0.0062,9.7814,-0.5785,-0.1338,-0.4191
4815,1067,763,33.257,26.849,0.0181,0.0188,9.7155,-0.0936,-0.0444,-0.2693
4820,1075,757,33.366,26.864,0.0072,0.0582,9.8744,-0.5756,-0.197,-0.5536
4825,1088,761,33.254,26.775,0.0612,-0.0607,9.7197,-0.5909,-0.5663,0.3264
4830,1107,752,33.292,26.888,0.0097,-0.1411,9.8446,-0.0617,0.0784,-0.3199
4835,1102,757,33.314,26.872,0.0152,-0.0543,9.8587,0.6319,-0.274,1.0778
4840,1117,758,33.305,26.824,0.0528,-0.0399,9.8903,-0.7498,-0.5185,0.3151
4845,1132,759,33.314,26.799,0.0379,-0.0484,9.866,-0.3067,-0.3363,0.8209
4850,1135,760,33.229,26.837,0.075,-0.011,9.8098,-0.4703,0.2623,0.6132
4855,1137,751,33.221,26.852,0.0249,0.0689,9.9039,-0.6876,-0.1,-0.6807
4860,1142,749,33.209,26.811,0.0215,0.0717,9.763,-0.1395,-0.8543,0.5195
4865,1162,752,33.289,26.825,-0.0408,0.0001,9.768,0.947,1.4908,0.5176
4870,1167,752,33.295,26.867,-0.0755,0.0273,9.8902,-0.2332,0.744,-0.2616
4875,1161,753,33.31,26.713,-0.0088,0.0349,9.869,1.0496,0.5083,-0.5023
4880,1162,747,33.381,26.876,0.0247,0.0356,9.7932,-0.2494,-0.2161,0.1544
4885,1173,752,33.404,26.781,0.061,0.0015,9.7847,-0.1146,-0.0719,0.5477
4890,1176,751,33.397,26.857,-0.016,-0.0542,9.7763,-1.329,0.2189,-0.3962
4895,1185,751,33.349,26.751,-0.0493,-0.0194,9.7821,-0.0366,-0.0497,0.3481
4900,1189,751,33.399,26.8,0.0724,0.0434,9.9101,-0.8291,-0.2057,1.3018
4905,1184,750,33.327,26.886,0.0346,0.0614,9.771,0.3086,0.5591,-0.0423
4910,1187,755,33.355,26.754,0.0378,0.019,9.8498,0.3734,-0.7009,0.4126
4915,1181,750,33.258,26.858,-0.084,0.0387,9.7897,-0.0665,-1.0838,-0.3531
4920,1182,752,33.366,26.832,-0.0718,-0.0542,9.8292,0.3774,-0.3069,-0.5083
4925,1185,747,33.284,26.858,0.0312,0.0204,9.8509,0.3856,-0.3222,-0.1146
4930,1177,754,33.31,26.836,0.011,0.0544,9.7034,-0.0724,-0.1279,-0.0689
4935,1189,757,33.308,26.773,-0.0145,-0.0228,9.7953,0.2592,0.7544,-0.0578
4940,1187,758,33.372,26.819,-0.0353,0.0396,9.8518,0.47,-0.0212,0.5189
4945,1176,760,33.388,26.848,-0.0354,0.0076,9.7309,-0.4423,-0.497,-0.3341
4950,1186,759,33.347,26.896,0.0355,-0.0355,9.8858,-1.6402,0.216,0.1876
4955,1177,760,33.397,26.779,-0.018,0.1165,9.8064,-0.0247,-0.1635,-0.7106
4960,1182,761,33.293,26.849,-0.0141,0.03,9.8026,-0.7059,0.3407,0.1469
4965,1180,763,33.323,26.956,0.0132,-0.0923,9.8131,0.4438,-0.3079,-0.5859
4970,1184,769,33.258,26.852,0.0463,0.0285,9.719,0.689,0.1547,-0.0222
4975,1176,772,33.437,26.774,-0.1104,-0.0015,9.839,-1.1411,-0.1333,0.4996
4980,1172,772,33.349,26.849,0.0751,0.0655,9.8826,-0.5242,1.0081,-0.5331
4985,1162,776,33.308,26.843,0.0667,-0.0014,9.7721,-0.7681,0.4538,-0.0491
4990,1169,776,33.337,26.813,-0.0895,0.0028,9.8805,0.589,-0.1017,0.0246
4995,1160,775,33.264,26.839,-0.0531,-0.0018,9.8208,0.0952,0.2023,0.9009
5000,1163,776,33.333,26.838,0.0265,-0.035,9.8735,1.2229,0.0789,-0.4203
5005,1163,784,33.358,26.928,-0.1149,0.0163,9.6641,0.5944,-0.1917,-0.255
5010,1160,783,33.26,26.844,0.0191,-0.0002,9.8444,0.1306,-0.6374,-0.0379
5015,1148,789,33.266,26.846,0.0436,0.0593,9.7129,0.64,-0.959,1.1895
5020,1140,786,33.221,26.868,0.0278,0.0078,9.8988,0.3587,0.4232,0.5795
5025,1143,791,33.314,26.825,0.1272,0.0178,9.9233,-0.9239,0.6778,-0.5787
5030,1138,791,33.373,26.758,0.0703,-0.0402,9.8323,0.5173,0.3242,-0.4825
5035,1139,797,33.298,26.851,-0.0605,-0.0226,9.7691,-0.0952,-0.8749,-0.182
5040,1135,795,33.337,26.891,0.0004,0.0047,9.8479,0.5111,0.0187,0.1141
5045,1127,797,33.346,26.833,-0.0432,0.0312,9.777,-0.4919,0.5737,0.4617
5050,1120,802,33.42,26.831,-0.0133,0.1052,9.756,-0.1518,-0.0406,0.4236
5055,1113,804,33.343,26.89,0.0592,-0.008,9.8334,0.3727,1.1901,-0.1798
5060,1116,816,33.284,26.784,-0.0048,-0.0165,9.8401,0.0873,-0.4988,0.8967
5065,1108,813,33.426,26.844,0.0309,-0.1143,9.7535,1.2116,-0.2324,0.1839
5070,1106,815,33.33,26.876,-0.0171,0.0095,9.6968,-0.5958,0.5285,0.0719
5075,1121,817,33.462,26.689,-0.0519,0.0079,9.8088,0.2431,-0.0172,0.8956
5080,1111,817,33.365,26.84,0.0557,-0.0004,9.8477,-0.6617,-0.0635,-0.4874
5085,1099,824,33.335,26.776,-0.0379,0.0045,9.7988,-1.4561,0.3298,-0.6356
5090,1109,825,33.341,26.864,-0.0415,0.0196,9.8624,-0.5197,-0.0099,1.0313
5095,1103,823,33.363,26.838,0.0532,-0.0604,9.8607,-0.3114,0.1194,0.2773
5100,1103,826,33.372,26.911,-0.0062,-0.0101,9.8377,0.4465,0.7647,1.1275
5105,1109,822,33.335,26.9,0.013,-0.078,9.7033,0.2817,-0.668,-0.1165
5110,1088,825,33.303,26.887,0.0613,-0.0025,9.827,0.1556,0.373,0.0293
5115,1089,825,33.263,26.862,0.059,0.0382,9.8653,1.2571,0.3399,0.4844
5120,1088,830,33.394,26.863,-0.0021,-0.0134,9.8079,-0.8139,-0.1033,0.2799
5125,1098,830,33.456,26.845,0.0225,-0.0566,9.8204,0.6373,0.3651,-0.1563
5130,1080,838,33.247,26.808,0.0012,-0.0058,9.8824,0.1274,0.3899,0.4042
5135,1084,834,33.317,26.794,-0.0063,0.1418,9.793,0.6629,-0.0702,0.4489
5140,1082,834,33.229,26.877,-0.0177,0.0289,9.7993,0.1219,1.0124,-0.3706
5145,1082,832,33.337,26.786,0.0206,0.0466,9.7764,-0.0067,-0.0365,-0.0085
5150,1076,834,33.29,26.833,-0.0574,0.0119,9.9035,0.9918,0.564,0.3182
5155,1079,836,33.323,26.842,0.0634,-0.0127,9.7815,0.4783,-0.1068,-0.5301
5160,1079,841,33.401,26.843,-0.085,-0.0229,9.8391,0.1532,0.2404,0.5038
5165,1079,838,33.366,26.916,0.0035,-0.0149,9.8321,0.0294,0.325,-0.011
5170,1073,836,33.236,26.848,0.0428,-0.0092,9.8169,0.1766,0.0086,-0.6234
5175,1062,842,33.386,26.869,-0.1017,0.0251,9.8273,-0.0461,0.0314,-0.3144
5180,1058,832,33.273,26.754,-0.0374,-0.0062,9.7957,-0.5519,-1.2478,0.3804
5185,1059,842,33.372,26.872,0.0703,0.0731,9.7723,-0.3359,0.4056,0.4064
5190,1052,838,33.268,26.903,-0.052,0.0937,9.8922,-0.7997,-0.1691,1.2521
5195,1045,836,33.334,26.789,0.0595,-0.0537,9.7928,-0.3831,-0.2437,-0.9009
5200,1041,837,33.306,26.83,-0.034,-0.0454,9.8146,-0.4326,-0.2329,0.2509
5205,1042,835,33.356,26.902,-0.0079,0.0711,9.7931,0.5331,-0.7544,-0.3876
5210,1039,838,33.368,26.835,-0.0222,0.0571,9.8187,0.3084,0.795,0.1453
5215,1032,837,33.331,26.916,0.0419,-0.0565,9.919,-0.0751,-0.0205,-0.0484
5220,1030,831,33.348,26.838,0.0052,0.0379,9.7516,-0.0605,-0.0644,0.9621
5225,1025,835,33.343,26.859,-0.0514,-0.2028,9.8735,0.0487,0.0632,0.2631
5230,1019,834,33.343,26.9,0.0338,-0.05,9.7521,-0.3478,-0.1526,-0.2761
5235,1009,835,33.32,26.843,0.046,-0.0158,9.8233,-0.4824,-0.0999,-1.0057
5240,999,835,33.327,26.897,0.0004,-0.0755,9.7615,0.3979,0.3046,-0.3047
5245,999,833,33.31,26.903,-0.0363,0.0752,9.8219,0.0302,-0.7547,0.0747
5250,982,838,33.446,26.796,0.0611,-0.0259,9.7695,-0.0935,-0.699,0.3212
5255,986,837,33.246,26.799,0.0514,-0.0612,9.8473,0.6453,0.1687,0.1031
5260,976,827,33.309,26.875,0.0315,-0.0296,9.8498,-0.2774,0.6265,0.4655
5265,953,831,33.256,26.886,-0.0385,0.0222,9.8014,-0.8163,-0.7027,0.0318
5270,951,832,33.332,26.802,0.0765,-0.0202,9.8029,0.6262,0.3399,0.11
5275,953,828,33.243,26.824,-0.0024,-0.054,9.865,1.1888,0.0511,-0.5416
5280,937,829,33.294,26.808,-0.0797,0.0258,9.8157,-0.2029,0.5534,-0.8313
5285,929,832,33.326,26.856,0.0075,0.027,9.8145,0.6984,-0.2683,0.1461
5290,922,816,33.25,26.848,-0.0181,-0.0027,9.74,0.0549,-0.3166,0.1646
5295,916,829,33.332,26.839,0.0387,0.0896,9.8026,-0.6612,0.0675,0.3352
5300,909,827,33.297,26.845,0.082,-0.0439,9.8455,0.1951,-0.699,-0.5832
5305,898,828,33.268,26.866,0.0731,-0.0332,9.8382,0.5397,-0.3146,-0.6467
5310,889,822,33.326,26.855,-0.0016,-0.0746,9.7669,-0.0304,0.2049,0.3431
5315,877,824,33.302,26.836,0.0154,0.0579,9.9143,-0.3504,-1.024,0.3992
5320,859,827,33.288,26.897,-0.0441,-0.0781,9.9081,0.4028,0.7669,0.4014
5325,858,825,33.333,26.906,0.0199,0.0079,9.7671,-0.2525,-0.1312,0.4017
5330,853,824,33.287,26.868,0.035,0.0444,9.7196,-0.0211,-0.1262,-0.1744
5335,849,829,33.345,26.808,-0.011,0.0219,9.8325,0.4327,0.6409,0.2211
5340,846,820,33.319,26.819,0.0834,-0.0241,9.8177,0.353,-0.6851,0.0454
5345,827,824,33.379,26.881,0.0968,-0.0198,9.8454,0.2094,0.4363,-0.5992
5350,818,823,33.22,26.911,-0.0509,-0.0241,9.761,0.3187,0.0697,0.5473
5355,814,822,33.285,26.893,-0.0166,-0.0342,9.8099,0.6379,0.1203,0.0097
5360,797,819,33.258,26.844,-0.0309,0.036,9.8385,-0.4491,0.3585,-0.7225
5365,796,821,33.294,26.769,-0.0357,0.0347,9.7486,-0.3973,0.145,0.0008
5370,786,817,33.311,26.772,-0.092,0.0429,9.7898,0.0513,-0.3049,0.1642
5375,780,814,33.388,26.829,-0.0046,0.0043,9.8517,-0.4027,-1.6333,-0.5826
5380,775,814,33.3,26.772,0.0282,-0.0652,9.8457,-0.4252,0.4015,-0.2402
5385,779,817,33.262,26.917,-0.0247,0.0679,9.7615,-0.1556,0.3158,-0.9808
5390,764,814,33.292,26.8,-0.0253,-0.0109,9.8422,0.3515,0.3502,-0.3331
5395,755,814,33.373,26.834,0.0858,0.0522,9.8897,0.2513,-0.4911,0.3043
5400,763,819,33.318,26.887,0.0556,-0.0289,9.7423,-0.6961,0.5157,0.5054
5405,752,812,33.276,26.948,-0.0218,-0.04,9.8083,0.6791,0.1804,0.4592
5410,751,812,33.344,26.883,-0.0351,-0.032,9.7769,0.0571,-0.1428,-0.8155
5415,750,808,33.328,26.838,-0.0217,-0.0068,9.7805,0.3332,-0.072,0.4556
5420,750,813,33.288,26.891,-0.0201,-0.0669,9.9054,-0.1144,0.8401,0.0348
5425,747,817,33.341,26.866,0.0596,0.0296,9.8534,-0.7039,0.4261,0.3366
5430,752,809,33.303,26.779,-0.0088,-0.0546,9.756,-0.9461,0.3633,0.5959
5435,740,809,33.334,26.88,-0.0567,0.0353,9.8513,0.0002,-1.0446,-0.7141
5440,757,807,33.33,26.777,-0.0478,-0.0793,9.7865,-0.3744,-0.1248,0.0699
5445,752,814,33.374,26.879,-0.0009,0.0174,9.8002,-0.0333,0.6678,0.8419
5450,760,805,33.332,26.825,0.0274,-0.0112,9.8051,-0.3842,0.1542,0.0875
5455,759,808,33.268,26.777,-0.0549,-0.0336,9.8579,0.3811,0.6414,0.3154
5460,758,816,33.32,26.884,0.0778,0.0326,9.73,0.7733,0.4065,0.1806
5465,765,810,33.378,26.82,-0.0774,-0.0271,9.8463,-0.0819,0.3185,-0.4496
5470,766,798,33.296,26.929,0.0458,0.0202,9.8526,0.1334,-0.6124,1.127
5475,780,805,33.3,26.874,-0.0664,0.009,9.8068,0.3754,0.0878,1.1484
5480,776,808,33.311,26.972,0.038,-0.0431,9.7103,-0.2135,1.0065,0.7313
5485,787,805,33.328,26.857,0.0468,-0.0862,9.7549,0.0389,-0.7693,0.3066
5490,788,800,33.275,26.752,0.0182,-0.0414,9.7653,0.6402,0.4703,0.0585
5495,795,803,33.326,26.861,-0.0643,-0.0525,9.7347,0.3965,0.0985,0.9474
5500,812,798,33.335,26.788,-0.0196,-0.0414,9.8375,-0.1556,0.4578,-0.1738
5505,826,804,33.442,26.91,-0.0397,-0.0696,9.7164,-0.0891,-0.3091,0.2651
5510,831,801,33.425,26.894,-0.1102,0.0305,9.7433,0.0295,0.5988,-0.1186
5515,826,792,33.334,26.909,0.0262,0.0352,9.801,-0.1951,-0.1984,-0.6556
5520,857,795,33.289,26.928,0.0439,0.0914,9.7402,-0.3426,-0.1324,-0.2656
5525,854,789,33.325,26.834,0.0328,-0.0961,9.6956,-0.9298,-0.3336,-0.2096
5530,879,791,33.34,26.841,-0.0413,0.0582,9.8001,0.1926,0.0818,0.128
5535,880,784,33.332,26.88,0.0601,-0.0725,9.7031,0.0021,-0.3008,0.047
5540,893,785,33.308,26.911,-0.0706,-0.009,9.8113,0.1436,0.4716,0.2725
5545,909,785,33.243,26.881,-0.0354,-0.0689,9.9076,0.6347,-0.731,0.1133
5550,917,782,33.317,26.821,0.0011,-0.0209,9.8601,0.0844,0.1553,0.7962
5555,933,782,33.317,26.925,-0.0229,0.0418,9.7774,-0.6078,0.3681,0.2459
5560,943,783,33.285,26.829,0.0039,-0.0012,9.8434,0.0444,-0.8612,-0.4259
5565,950,785,33.315,26.928,0.0734,-0.0156,9.8447,0.1711,0.053,0.1413
5570,966,776,33.385,26.796,0.0108,0.0014,9.8127,0.3972,-0.6676,0.357
5575,979,776,33.261,26.803,-0.0157,-0.0309,9.7693,-0.1616,0.3129,0.2344
5580,982,768,33.373,26.78,-0.1033,0.0584,9.772,0.1313,0.0782,0.1335
5585,997,774,33.353,26.754,-0.0652,-0.098,9.7759,0.0789,0.1299,0.3918
5590,1000,771,33.395,26.822,-0.0531,0.0979,9.789,0.4615,0.6749,0.8767
5595,1017,774,33.402,26.794,-0.059,-0.0209,9.9025,-0.6668,0.9947,0.4975
5600,1032,763,33.271,26.946,0.0089,0.074,9.8106,-0.274,-1.0132,0.0753
5605,1049,763,33.342,26.849,-0.1004,-0.0087,9.8226,0.6235,-0.0088,-0.3486
5610,1057,763,33.272,26.847,-0.041,0.0418,9.8503,0.0741,-0.1772,0.1146
5615,1066,759,33.35,26.756,0.0036,0.0441,9.9515,-0.3525,0.2976,-0.7572
5620,1078,759,33.235,26.813,0.0422,0.0426,9.8469,1.0101,0.655,-0.0008
5625,1094,757,33.285,26.867,0.0556,-0.0083,9.8005,-0.4621,-0.5702,-0.1908
5630,1105,756,33.28,26.877,-0.0345,0.0361,9.8748,0.0871,0.1665,-0.0324
5635,1108,752,33.298,26.865,0.1305,0.0149,9.8111,0.3403,0.0898,-0.5608
5640,1105,755,33.364,26.83,-0.0341,-0.076,9.8472,0.0916,-0.8748,-0.4053
5645,1122,757,33.237,26.817,0.0068,-0.0062,9.7553,-0.9011,0.3708,0.3374
5650,1116,752,33.293,26.863,0.0473,-0.0371,9.7887,0.3553,0.584,0.3907
5655,1133,755,33.264,26.869,-0.0003,0.0709,9.829,-0.0951,0.2027,0.3893
5660,1142,752,33.328,26.858,-0.0104,0.0139,9.8232,0.1174,0.1244,0.5256
5665,1149,752,33.333,26.76,-0.025,0.0011,9.8399,-0.393,0.6491,0.5505
5670,1155,748,33.299,26.933,0.0563,0.0047,9.8069,0.0057,-0.5896,-0.2326
5675,1154,749,33.262,26.759,0.031,0.0446,9.7761,1.0547,-0.0345,-0.2806
5680,1168,752,33.334,26.771,-0.0038,-0.0942,9.7659,-0.0043,0.4728,-0.1874
5685,1175,748,33.227,26.858,0.0027,0.0594,9.8201,-0.8589,-0.3589,-0.7185
5690,1174,751,33.27,26.832,-0.0234,-0.0486,9.874,0.1233,-0.431,0.4313
5695,1175,753,33.329,26.876,-0.0254,0.0012,9.8084,-0.1968,-1.0413,0.2384
5700,1182,750,33.383,26.865,-0.025,-0.0453,9.8744,0.7384,-0.8116,-0.7504
5705,1186,755,33.333,26.825,-0.0334,0.0058,9.8556,-0.8845,0.3746,-0.7306
5710,1178,751,33.227,26.827,-0.038,0.0033,9.881,0.0426,0.2674,-0.2623
5715,1189,749,33.343,26.838,0.0048,0.1457,9.8236,-0.2038,0.0119,0.195
5720,1196,749,33.332,26.803,0.0023,0.0638,9.8303,-0.21,0.2904,-0.2987
5725,1193,756,33.239,26.906,-0.0018,0.0496,9.855,-0.0848,0.4901,0.1849
5730,1184,751,33.28,26.833,-0.0312,-0.012,9.8671,0.2471,1.3202,-0.3488
5735,1182,755,33.332,26.828,-0.0784,-0.0965,9.8238,0.1789,-0.432,0.3156
5740,1181,758,33.422,26.911,-0.0432,-0.0067,9.7535,-0.1285,0.1322,-0.1315
5745,1189,757,33.347,26.836,-0.0385,0.049,9.8552,-0.723,0.421,0.396
5750,1192,759,33.293,26.793,-0.1107,-0.0472,9.7359,-0.048,-0.4816,1.2016
5755,1175,760,33.31,26.854,-0.0376,0.0522,9.7523,-0.0541,0.6158,-0.4143
5760,1182,764,33.317,26.81,0.0024,0.0223,9.7985,0.6465,-0.1616,-0.5567
5765,1182,772,33.323,26.772,0.0295,0.0559,9.7863,0.3527,0.0807,-0.0203
5770,1172,768,33.268,26.814,-0.0394,-0.0025,9.7848,-0.3054,-0.067,0.6323
5775,1174,768,33.358,26.826,-0.0749,0.0794,9.8377,-0.1627,0.025,-0.9185
5780,1175,774,33.286,26.951,-0.0442,-0.0906,9.7772,-0.2861,0.1068,0.5198
5785,1167,773,33.376,26.834,0.0725,-0.0975,9.8066,-0.8075,-0.6649,-0.0864
5790,1157,778,33.372,26.868,-0.0263,0.1253,9.7501,0.3355,-1.0429,0.2012
5795,1163,780,33.383,26.689,0.0467,0.0312,9.7866,-0.1088,0.197,-0.6886
5800,1155,780,33.408,26.712,0.0702,-0.022,9.8214,-0.5564,-0.4396,0.2641
5805,1152,782,33.265,26.879,-0.1102,-0.0672,9.7049,0.3803,-0.3458,-0.2592
5810,1154,779,33.346,26.822,0.0593,-0.0295,9.7944,0.1024,-0.004,-1.0182
5815,1151,782,33.301,26.829,0.0157,0.069,9.7815,-0.0252,0.0535,-0.3349
5820,1150,792,33.297,26.863,-0.0124,0.0589,9.8329,0.436,0.4732,-0.0024
5825,1143,796,33.26,26.903,0.0149,0.0178,9.8329,0.4473,0.4428,0.9642
5830,1140,795,33.336,26.998,0.0664,-0.0996,9.8364,-0.2655,-0.5448,-0.4811
5835,1136,801,33.276,26.751,-0.0745,0.0268,9.8484,-0.2109,-0.2411,0.0697
5840,1137,796,33.37,26.937,-0.0566,-0.0422,9.7607,-0.1123,-0.3763,-0.5032
5845,1137,804,33.321,26.845,-0.0515,-0.0687,9.7455,0.6663,-0.3956,-0.2454
5850,1137,804,33.364,26.828,0.1355,-0.0275,9.7595,-0.0857,-0.3316,-0.4749
5855,1121,809,33.372,26.752,0.0022,0.0487,9.8291,-0.3307,-0.0921,0.022
5860,1124,810,33.349,26.844,0.0368,0.0245,9.834,-0.0325,0.2338,0.6548
5865,1122,810,33.407,26.734,0.0931,-0.0033,9.7939,0.511,-0.1006,0.9556
5870,1115,813,33.345,26.868,-0.0979,0.0404,9.8256,-0.2656,-0.1095,0.0779
5875,1109,816,33.355,26.855,0.0395,-0.0179,9.799,0.2838,-0.9582,-0.3523
5880,1111,816,33.323,26.908,0.0543,-0.0196,9.7752,-0.7073,-0.2701,-0.3243
5885,1108,819,33.3,26.793,-0.0388,0.0202,9.8345,-0.3852,0.1054,0.1999
5890,1115,826,33.414,26.867,-0.1088,0.0215,9.8194,-0.3806,0.3304,-0.4997
5895,1103,825,33.354,26.909,-0.0311,0.0008,9.8264,-0.2466,0.9887,0.7275
5900,1098,822,33.359,26.834,-0.0426,0.0986,9.8204,1.3822,-0.7535,0.2362
5905,1096,825,33.324,26.901,-0.1453,-0.0162,9.7817,-0.0487,-0.2056,0.6105
5910,1102,821,33.29,26.775,-0.0009,0.0529,9.7867,0.4974,-0.0973,0.9162
5915,1097,831,33.364,26.908,0.0243,0.0369,9.8286,-1.026,0.0512,-0.5955
5920,1102,832,33.281,26.877,-0.1159,-0.0108,9.7843,-1.0477,-0.716,-0.3155
5925,1092,827,33.246,26.843,-0.0076,-0.0075,9.8535,0.7219,-0.0367,-0.2348
5930,1089,835,33.398,26.731,0.0003,0.0358,9.7392,0.1491,0.3608,-0.6253
5935,1093,826,33.309,26.798,0.0382,-0.0216,9.8112,0.8313,0.2698,-0.7135
5940,1081,837,33.339,26.803,-0.0227,0.0417,9.8047,-0.4585,0.0653,0.4403
5945,1083,834,33.351,26.855,-0.008,-0.0191,9.793,-0.0112,-0.3218,-0.4966
5950,1085,834,33.236,26.765,-0.0581,0.0965,9.7619,0.5246,-0.1756,0.1536
5955,1074,836,33.35,26.819,0.0431,0.012,9.7554,-0.3698,1.3218,0.254
5960,1074,834,33.449,26.822,-0.0443,0.0388,9.8447,0.3636,0.6291,-0.1461
5965,1064,839,33.328,26.872,0.0488,-0.0074,9.7754,-0.5369,0.8748,0.3187
5970,1067,834,33.277,26.805,0.0217,-0.0757,9.7459,-0.2433,0.3781,-0.0758
5975,1065,838,33.346,26.779,-0.0781,-0.0892,9.8134,-0.2558,-0.6348,-0.2904
5980,1068,837,33.279,26.859,-0.0674,-0.0311,9.7705,0.6361,0.4815,1.0728
5985,1054,837,33.294,26.759,-0.0115,-0.0048,9.7137,-0.0108,0.9039,0.4593
5990,1053,835,33.372,26.78,-0.0737,-0.0821,9.8228,-0.2048,0.4642,0.0579
5995,1056,838,33.372,26.84,-0.0217,0.0678,9.8269,-0.2669,-0.0804,-0.3996
6000,1042,836,33.301,26.841,-0.0031,0.0764,9.7642,0.4824,-0.086,0.1492
6005,1034,835,33.264,26.957,0.1022,-0.0449,9.7637,0.6828,-0.2661,-0.8706
6010,1039,836,33.413,26.839,0.0319,-0.0393,9.8205,-0.8948,1.3867,-0.2969
6015,1037,835,33.385,26.838,0.0093,0.0129,9.8804,-0.3929,-0.7303,0.1562
6020,1031,833,33.287,26.898,-0.0338,0.0132,9.837,1.317,0.4395,-0.4034
6025,1020,833,33.323,26.811,0.0642,-0.0008,9.8205,0.1603,-0.2564,0.0844
6030,1014,836,33.374,26.891,0.0016,-0.0547,9.8225,-0.3385,-0.4698,-0.5161
6035,1006,831,33.335,26.841,0.0001,0.0001,9.855,-0.4167,-0.2038,0.1135
6040,1009,830,33.317,26.931,-0.0485,0.0027,9.854,-0.6769,-0.0034,-0.609
6045,994,832,33.246,26.879,-0.0028,0.0514,9.8486,-0.1373,-0.339,-0.77
6050,978,834,33.393,26.801,0.0658,0.0528,9.8658,0.625,0.5176,-0.226
6055,990,831,33.36,26.787,-0.0348,-0.0302,9.7011,-1.4601,0.1346,0.5473
6060,979,832,33.374,26.806,-0.0051,0.0208,9.7367,0.3704,-0.0652,-0.1196
6065,968,833,33.396,26.887,-0.0485,0.064,9.8979,-0.6009,-0.2611,-0.1874
6070,958,832,33.358,26.946,0.0063,-0.0044,9.8623,-0.2073,-1.2064,0.8549
6075,948,827,33.289,26.851,-0.0487,-0.0318,9.7726,-0.0852,-0.0907,0.5116
6080,944,826,33.324,26.809,-0.0924,0.0735,9.7864,0.131,-0.4054,0.5767
6085,939,825,33.414,26.783,-0.0121,-0.0405,9.738,0.2642,0.186,-1.0541
6090,917,831,33.374,26.867,-0.0406,0.1089,9.743,0.7879,-0.1695,0.6221
6095,913,822,33.368,26.951,0.0582,-0.0702,9.7235,-0.4789,0.2652,0.9482
6100,907,827,33.255,26.88,-0.0508,-0.0284,9.8962,-0.139,0.6549,-0.0118
6105,899,823,33.302,26.846,-0.046,0.0257,9.8744,0.5131,-0.0375,-0.2009
6110,884,826,33.32,26.801,0.023,0.0775,9.8031,-0.3475,0.3444,0.0668
6115,877,821,33.316,26.863,0.0141,0.0253,9.863,0.1765,0.8229,0.2686
6120,882,825,33.358,26.886,0.0202,0.0011,9.7544,0.1237,-0.2984,0.8986
6125,861,819,33.415,26.741,0.0039,0.0187,9.7395,0.3961,0.291,-0.5331
6130,852,826,33.309,26.93,-0.056,-0.0385,9.6657,-0.3907,0.0423,0.5633
6135,837,820,33.224,26.912,-0.1193,0.0402,9.9118,-0.6955,-0.0463,-0.113
6140,845,820,33.352,26.751,0.0468,-0.0252,9.8741,-0.3966,0.3649,0.5368
6145,836,823,33.299,26.84,-0.0278,0.043,9.8318,-0.7779,-0.4781,-0.6789
6150,815,823,33.395,26.79,-0.0096,-0.0282,9.7884,-0.1266,0.1564,-0.0133
6155,802,825,33.328,26.801,0.0272,0.0575,9.8602,-0.0966,0.525,0.6655
6160,802,817,33.404,26.837,0.0651,0.0085,9.8942,0.7171,0.7483,0.1601
6165,803,815,33.273,26.763,0.0618,-0.0321,9.7031,0.5786,-0.0996,1.0586
6170,791,818,33.293,26.878,-0.0595,0.0378,9.8405,0.0852,-0.4976,-0.4496
6175,790,821,33.348,26.822,0.0389,-0.0514,9.7324,-0.4522,0.516,0.1203
6180,778,816,33.343,26.88,0.0209,0.0544,9.8774,0.7234,-0.9573,1.2426
6185,767,816,33.271,26.894,0.0172,0.0278,9.7946,-0.5357,-0.3429,0.0446
6190,761,820,33.296,26.933,-0.0064,-0.0516,9.8087,-0.9364,0.7527,0.6018
6195,759,814,33.29,26.876,-0.0382,-0.0201,9.7791,0.1082,0.3292,0.0097
6200,756,813,33.328,26.829,-0.0073,-0.0608,9.8509,0.5415,0.9221,-0.5215
6205,754,812,33.253,26.768,-0.0072,-0.0683,9.7649,0.6472,0.1674,-0.1313
6210,752,812,33.383,26.88,-0.0309,-0.0439,9.762,-0.1058,-0.0162,0.8207
6215,762,816,33.401,26.775,0.0784,0.0078,9.7053,0.138,0.4622,-0.1716
6220,752,807,33.293,26.792,0.0585,-0.0231,9.8877,-0.178,-0.0732,0.4745
6225,748,816,33.394,26.811,0.0123,0.0029,9.7448,0.4796,-0.4707,-0.7065
6230,757,809,33.316,26.8,0.0111,0.0153,9.8108,-0.2824,0.1064,0.0892
6235,747,810,33.421,26.849,0.0393,0.0223,9.8047,-0.4994,-0.3889,-0.2269
6240,742,810,33.4,26.843,-0.0026,-0.0298,9.8332,0.7521,0.0939,-0.5339
6245,750,807,33.382,26.882,-0.0663,-0.0335,9.7396,-0.082,0.8412,0.2828
6250,756,810,33.304,26.952,-0.1419,-0.0269,9.8027,-0.3423,-0.2891,-0.2131
6255,759,808,33.336,26.845,0.0298,0.0445,9.7267,-0.291,0.6751,-0.3014
6260,764,812,33.447,26.9,0.0351,-0.1116,9.8304,0.3001,-0.0809,-0.2049
6265,754,808,33.236,26.872,0.0458,0.0092,9.8135,0.8043,0.8081,-0.1616
6270,770,802,33.357,26.787,0.0157,-0.0031,9.758,-0.1568,-0.6344,0.2221
6275,774,800,33.364,26.804,0.0059,0.0468,9.7871,0.7972,-0.5146,-0.252
6280,776,805,33.427,26.903,-0.0197,-0.0617,9.7219,-0.7442,-0.4295,-0.669
6285,789,799,33.39,26.757,-0.0131,-0.0628,9.8465,-0.2817,0.6241,0.2034
6290,794,804,33.39,26.863,0.028,-0.0358,9.8917,0.2574,-0.3838,0.0317
6295,807,795,33.364,26.843,-0.0313,0.0749,9.8132,-0.0605,-0.1542,0.9479
6300,802,795,33.303,26.732,0.0697,-0.0352,9.7342,0.4217,0.431,-0.3322
6305,817,795,33.356,26.78,0.0054,0.0392,9.8714,-0.2595,0.1524,-0.3758
6310,826,797,33.29,26.785,0.0143,0.0549,9.7764,-0.6951,-0.4644,0.3582
6315,834,796,33.312,26.846,0.0109,0.0119,9.8763,0.0753,0.2753,-0.0307
6320,846,790,33.372,26.83,-0.0091,-0.0183,9.8429,0.0675,-0.2907,-0.0373
6325,856,791,33.37,26.779,-0.0348,-0.0323,9.768,-0.0212,0.4199,-0.1204
6330,869,798,33.284,26.822,-0.0866,-0.0913,9.7731,0.3084,0.5022,0.1083
6335,878,791,33.368,26.951,0.0103,-0.045,9.6935,-0.6401,0.4086,0.132
6340,887,789,33.306,26.852,0.0003,-0.0434,9.7472,-0.2019,0.0277,0.0091
6345,902,786,33.331,26.906,0.037,0.0425,9.7485,-0.7938,-0.1165,0.3261
6350,914,787,33.343,26.788,-0.0547,0.0073,9.8116,-0.0126,0.5417,0.3403
6355,927,780,33.293,26.882,0.0368,-0.0365,9.8328,0.22,-0.6669,0.2843
6360,932,774,33.331,26.822,-0.0963,0.0927,9.823,0.2369,-0.3603,0.7876
6365,953,778,33.325,26.905,0.0734,-0.0537,9.796,-0.2326,-0.0808,0.43
6370,967,775,33.332,26.827,0.0056,0.0025,9.8404,0.3097,-0.2405,-0.2021
6375,968,770,33.324,26.868,-0.0482,-0.0283,9.8093,0.5484,0.2326,0.2063
6380,983,768,33.317,26.862,0.0013,-0.062,9.8516,0.4018,0.3535,-0.2007
6385,1000,770,33.295,26.928,0.0186,0.0424,9.8047,0.1365,-0.4814,0.9621
6390,1009,765,33.332,26.924,-0.0314,0.0029,9.8176,-0.3355,0.1578,0.0719
6395,1030,768,33.405,26.823,0.0789,-0.0022,9.8394,-0.1446,-0.4087,0.3805
6400,1032,767,33.333,26.809,-0.0001,0.0304,9.7764,0.2754,-0.3654,0.2473
6405,1041,765,33.311,26.851,0.0728,-0.0077,9.9441,0.1382,-0.4848,-0.0847
6410,1050,765,33.352,26.904,-0.0335,-0.0623,9.7441,0.1248,0.299,-0.0008
6415,1065,763,33.458,26.835,-0.1683,0.0173,9.6624,0.5161,0.4962,0.0763
6420,1072,750,33.321,26.795,-0.0381,0.0082,9.7356,0.208,-0.1405,0.0437
6425,1078,758,33.313,26.843,0.0248,-0.0119,9.7136,-0.2598,0.3895,0.3846
6430,1105,755,33.297,26.873,-0.0139,0.0336,9.8771,-0.0512,0.2219,0.6416
6435,1102,756,33.352,26.878,-0.0302,-0.0626,9.8757,-0.6558,-0.1695,-0.0762
6440,1116,751,33.366,26.782,0.0569,-0.0043,9.7104,0.3248,-0.2416,0.2818
6445,1121,752,33.284,26.881,0.0342,-0.0391,9.7946,-0.3424,0.6367,-0.0372
6450,1135,754,33.282,26.836,0.0285,0.0877,9.7889,-0.4472,-0.2805,-0.2801
6455,1134,756,33.394,26.9,-0.0001,-0.0208,9.786,-0.1794,-0.4111,0.4249
6460,1143,751,33.247,26.857,-0.046,-0.0823,9.743,-0.32,0.2629,-1.0121
6465,1157,751,33.281,26.877,0.0891,0.0744,9.7575,-0.3854,0.4285,0.1388
6470,1154,749,33.239,26.789,0.0517,0.075,9.7494,-0.0073,0.1773,-0.3181
6475,1149,751,33.347,26.737,0.0087,-0.0594,9.7982,0.3737,-0.3037,0.178
6480,1172,748,33.312,26.84,-0.07,-0.0228,9.79,-0.0025,-0.6984,-0.2402
6485,1169,747,33.325,26.848,-0.0441,0.0104,9.7939,-0.2874,0.4436,-0.1868
6490,1180,751,33.317,26.844,-0.03,-0.059,9.7566,-0.3026,0.1214,0.9656
6495,1175,749,33.317,26.89,0.0228,0.0018,9.8866,0.4096,-0.7825,0.555
6500,1182,746,33.364,26.793,-0.0709,0.0108,9.7225,0.0204,0.642,0.5946
6505,1187,748,33.253,26.85,0.0118,-0.0698,9.8103,0.4504,0.2947,0.5598
6510,1184,749,33.371,26.807,0.0912,0.0033,9.8324,-0.6376,-0.044,-0.9922
6515,1185,753,33.272,26.9,0.0664,0.034,9.9174,-0.5481,0.2868,-0.1812
6520,1183,754,33.419,26.718,0.0564,0.085,9.8131,-0.0176,0.0416,-0.6471
6525,1181,749,33.284,26.803,-0.1307,0.0633,9.8402,0.3078,-0.0005,-0.0889
6530,1199,750,33.281,26.84,-0.1582,0.0213,9.7957,-0.6388,-0.353,0.399
6535,1184,755,33.212,26.8,-0.0216,0.0581,9.8395,0.0529,0.4717,0.1987
6540,1174,757,33.432,26.985,-0.0035,0.0289,9.7393,-0.7924,0.3627,-0.218
6545,1181,757,33.341,26.894,0.0401,0.0573,9.7671,1.2649,-0.7835,-0.2703
6550,1183,761,33.385,26.827,-0.0109,0.0008,9.8134,-0.2944,0.4276,-0.3775
6555,1182,762,33.269,26.857,0.0517,0.0093,9.9128,0.4524,-0.1319,-0.3751
6560,1182,759,33.311,26.878,-0.0165,0.0152,9.8113,0.6944,0.0153,0.4212
6565,1182,763,33.375,26.913,0.0464,-0.0709,9.8843,0.1466,-1.0856,0.7527
6570,1170,770,33.302,26.796,0.0389,0.0346,9.8678,-0.5855,0.0188,1.0109
6575,1178,771,33.327,26.791,-0.0147,-0.1087,9.9089,-0.2784,-0.2855,0.577
6580,1178,767,33.295,26.812,0.0386,-0.0061,9.7563,-0.0856,-0.4977,-0.0904
6585,1173,771,33.324,26.922,0.1429,-0.0655,9.9064,-1.3774,-0.4389,-0.3323
6590,1169,772,33.444,26.838,-0.0184,0.0819,9.8672,0.3174,0.3754,0.5456
6595,1165,775,33.297,26.83,0.0288,-0.0422,9.8825,-0.3871,-0.1776,-0.3893
6600,1158,776,33.301,26.822,0.024,-0.0861,9.784,0.0519,1.0536,0.0866
6605,1159,780,33.364,26.837,-0.0326,-0.1145,9.827,0.314,0.2379,0.8168
6610,1154,782,33.184,26.875,-0.018,0.0591,9.7905,-0.059,-0.4379,0.4743
6615,1146,784,33.325,26.858,0.0367,0.0181,9.7788,-0.0334,0.1765,0.5092
6620,1135,793,33.311,26.843,-0.0626,-0.0237,9.8391,0.2965,0.2429,0.0639
6625,1137,791,33.347,26.854,0.1278,0.0033,9.8536,0.6647,-0.0975,-1.3255
6630,1137,794,33.33,26.755,-0.0018,0.0702,9.7716,0.4666,-0.4393,0.7641
6635,1135,792,33.391,26.942,0.0371,0.0111,9.8234,-0.3733,-0.7318,-0.5557
6640,1132,791,33.368,26.85,-0.0629,-0.0828,9.8205,-0.2101,0.3934,-0.4502
6645,1130,798,33.351,26.922,-0.0244,-0.0287,9.8643,0.0223,0.4257,0.6188
6650,1124,803,33.329,26.786,0.0252,0.0428,9.8129,0.397,0.8024,-0.5923
6655,1125,811,33.341,26.885,-0.0847,-0.0241,9.9079,0.1026,-0.7888,-0.0029
6660,1120,803,33.372,26.836,0.0643,0.0336,9.8605,-0.2294,-0.4751,0.7825
6665,1109,810,33.337,26.892,-0.0085,0.0478,9.9099,0.4139,-0.2789,0.5004
6670,1113,813,33.381,26.807,0.006,0.003,9.7843,-0.5949,-0.1328,0.1438
6675,1120,812,33.247,26.865,0.0337,0.0667,9.828,-0.2726,-0.9039,0.0621
6680,1109,815,33.295,26.854,0.0034,0.0242,9.8436,0.0834,-0.2058,-0.9238
6685,1117,814,33.348,26.83,-0.0338,0.0112,9.7238,-0.1206,-0.2794,0.2992
6690,1111,821,33.353,26.81,0.1088,-0.0235,9.7248,-0.6348,-0.645,-0.4937
6695,1104,823,33.265,26.844,-0.0397,0.0406,9.8407,0.6124,0.1067,0.2136
6700,1103,817,33.397,26.846,0.038,-0.0816,9.8325,0.7603,0.1882,0.1948
6705,1094,827,33.371,26.869,-0.1563,-0.039,9.7785,0.1825,0.4773,0.3369
6710,1096,831,33.363,26.944,0.037,0.0941,9.8589,-0.0408,0.1691,-0.7444
6715,1098,827,33.262,26.739,-0.0223,0.013,9.8789,0.4697,-0.0874,-0.0388
6720,1094,829,33.251,26.853,-0.0469,0.0276,9.7915,0.4704,-0.5001,-0.5243
6725,1087,828,33.301,26.938,0.0475,-0.0696,9.8084,0.0593,-0.0196,0.2077
6730,1086,833,33.345,26.939,-0.029,-0.0062,9.8012,0.104,-0.4323,0.6548
6735,1090,829,33.345,26.772,-0.0093,0.0322,9.7742,0.1447,0.7254,0.3989
6740,1084,838,33.379,26.762,0.0498,-0.0129,9.7626,-0.2047,0.0376,0.5246
6745,1083,835,33.253,26.771,-0.021,-0.0197,9.8212,1.0313,0.2193,-0.1563
6750,1081,838,33.309,26.896,0.0174,0.021,9.8301,-0.4536,-0.2585,0.7089
6755,1066,830,33.403,26.887,0.023,-0.0343,9.8159,0.3881,-0.3641,-0.437
6760,1074,834,33.446,26.867,0.032,0.0499,9.8524,-0.4129,-0.1324,0.5514
6765,1075,838,33.345,26.836,-0.0119,0.0695,9.8535,0.2916,0.6086,0.319
6770,1068,833,33.372,26.848,-0.0132,0.0606,9.8403,-0.5638,0.9786,-0.6637
6775,1067,837,33.293,26.806,-0.1046,-0.0073,9.894,-0.0512,-0.8804,0.4024
6780,1059,839,33.312,26.939,0.0011,-0.0606,9.8113,-0.6411,-0.2776,-0.7712
6785,1060,836,33.289,26.794,0.0022,0.091,9.8216,0.3987,-0.2617,-0.7764
6790,1048,837,33.244,26.853,0.0486,-0.0158,9.8173,-0.5695,0.1775,-0.1859
6795,1061,840,33.282,26.859,-0.0821,-0.0712,9.7797,-0.7315,-0.223,0.0916
6800,1045,835,33.262,26.858,0.0675,0.0225,9.8237,0.0536,1.1188,-0.2647
6805,1039,838,33.287,26.929,0.006,-0.0184,9.7922,-1.071,-0.2199,-0.2515
6810,1035,841,33.398,26.799,0.0683,-0.0255,9.8308,-0.3354,-0.0959,-0.4274
6815,1040,831,33.288,26.84,0.0864,-0.0641,9.7301,-1.727,-0.4891,0.3494
6820,1021,834,33.339,26.794,-0.0749,0.0521,9.8569,0.7311,-0.523,0.1348
6825,1021,834,33.362,26.909,-0.03,0.0198,9.6703,0.097,0.504,-0.4643
6830,1017,836,33.341,26.852,-0.0197,0.0222,9.8389,0.4121,-0.1433,-0.035
6835,1020,830,33.417,26.847,0.0369,0.0794,9.7709,-0.3527,-0.567,0.1546
6840,1002,831,33.399,26.911,0.0494,0.0112,9.8139,-0.0731,0.2621,-0.0344
6845,993,834,33.266,26.814,0.0152,0.0129,9.8017,-0.2551,-0.1999,-0.2475
6850,993,823,33.209,26.892,-0.0522,-0.0178,9.8566,0.0604,-0.1583,-0.4874
6855,976,828,33.417,26.877,0.0456,-0.0377,9.7998,0.7304,0.8344,-0.2747
6860,977,827,33.347,26.918,-0.0626,-0.022,9.7743,0.2631,0.5711,-0.0504
6865,963,829,33.26,26.883,-0.011,-0.0137,9.772,0.3194,0.0493,0.0129
6870,951,830,33.324,26.956,-0.075,0.0095,9.8672,-0.5802,-0.277,0.0303
6875,951,822,33.385,26.98,-0.0172,-0.0428,9.7824,0.094,0.5965,0.3719
6880,945,827,33.278,26.923,-0.0642,-0.0026,9.6981,-0.2296,0.2862,-0.3421
6885,937,827,33.392,26.866,0.0101,-0.034,9.812,-0.1369,-0.7172,-0.0394
6890,927,826,33.243,26.864,0.0667,-0.0205,9.8004,0.4698,0.0372,0.1054
6895,923,819,33.27,26.852,-0.0622,0.0046,9.9447,0.7326,-0.682,-0.2185
6900,912,827,33.341,26.847,-0.0709,0.0393,9.8129,-0.161,-0.7045,0.2743
6905,895,830,33.337,26.917,-0.045,-0.0453,9.8222,-0.0175,0.0091,-0.4076
6910,891,822,33.355,26.761,-0.0985,0.0464,9.813,-0.38,0.2249,0.501
6915,881,824,33.29,26.834,-0.0321,-0.027,9.8429,0.1791,0.0568,-0.6953
6920,880,816,33.325,26.775,-0.0177,0.0895,9.7792,-0.2058,-0.3705,0.8304
6925,858,817,33.363,26.772,0.0065,0.0011,9.7764,-0.0082,0.3121,-0.7757
6930,848,818,33.37,26.861,-0.006,-0.0676,9.7565,0.3573,-0.7474,0.4177
6935,836,822,33.237,26.858,0.1175,-0.0165,9.876,0.4957,0.1675,0.6695
6940,846,818,33.366,26.924,-0.0351,0.0217,9.8648,-0.1593,-0.0485,1.0475
6945,815,823,33.375,26.915,-0.0395,-0.0057,9.7437,-0.8334,0.623,0.041
6950,817,819,33.295,26.89,-0.0133,0.0361,9.8667,-0.2925,-0.444,-0.0177
6955,811,818,33.363,26.964,-0.018,-0.0495,9.8534,-0.3814,-0.4022,0.4048
6960,811,822,33.315,26.88,-0.0186,-0.0259,9.8268,0.2288,-0.2661,0.7374
6965,793,820,33.389,26.864,0.0026,0.0241,9.8571,0.3439,0.2122,0.4165
6970,795,824,33.319,26.832,0.0495,0.0583,9.8425,-0.5852,-0.3524,-0.2737
6975,787,821,33.391,26.831,-0.0048,-0.0631,9.7649,0.0349,-0.1844,-0.0799
6980,783,816,33.347,26.969,-0.0049,-0.0102,9.773,0.2669,-0.0608,-0.3059
6985,770,811,33.449,26.874,0.0337,-0.0204,9.7545,0.1506,0.051,-0.4445
6990,770,821,33.348,26.953,-0.0752,0.0412,9.7651,0.2819,-0.0712,0.8261
6995,759,818,33.303,26.802,0.0172,-0.031,9.8288,-0.9681,-0.6044,0.7796
7000,760,813,33.318,26.856,-0.0429,0.0449,9.8825,-0.4754,0.0804,-1.0278
7005,754,816,33.377,26.914,-0.0352,0.0526,9.7831,-0.0405,0.4341,0.0929
7010,753,816,33.323,26.875,-0.0038,-0.0044,9.8012,0.0474,-0.3829,-0.0271
7015,750,812,33.359,26.865,0.0948,-0.0144,9.8521,-0.6356,0.4215,0.7683
7020,753,813,33.335,26.83,-0.1318,-0.0296,9.749,0.4672,0.3569,0.1459
7025,740,814,33.319,26.855,0.0324,0.0457,9.8032,-0.4969,-0.3508,-0.6877
7030,744,816,33.396,26.961,-0.0347,-0.0242,9.7866,-0.5095,-0.1334,0.6489
7035,739,812,33.361,26.834,0.0603,-0.0497,9.8053,-0.1742,-0.6683,-0.4178
7040,748,813,33.262,26.85,-0.06,-0.0149,9.8733,-0.1926,-0.792,-0.7701
7045,745,813,33.295,26.765,-0.0212,0.0017,9.7432,0.2021,-0.3634,-0.1288
7050,759,809,33.295,26.836,-0.0068,0.0141,9.8369,0.477,-0.0926,0.5246
7055,766,811,33.277,26.875,0.0075,0.0056,9.8238,0.2573,-0.2979,0.1204
7060,753,803,33.322,26.86,-0.0556,-0.0849,9.7875,0.312,-0.3063,-0.3355
7065,767,808,33.28,26.867,0.0227,-0.0023,9.7543,0.2025,-0.1866,-0.5314
7070,773,808,33.416,26.825,0.0106,0.0375,9.8149,0.3491,0.0187,0.1569
7075,780,802,33.394,26.877,0.0866,-0.0601,9.7317,0.2491,0.0379,0.0245
7080,779,802,33.326,26.839,-0.0004,-0.0587,9.7709,-0.1271,-0.2361,-0.5682
7085,788,808,33.395,26.846,-0.0299,-0.0559,9.7103,-0.0007,0.8831,0.3876
7090,793,803,33.421,26.838,-0.0241,0.0136,9.7267,0.1526,-0.8635,1.0925
7095,804,801,33.304,26.882,-0.0384,-0.0454,9.7878,-0.0873,-0.3535,0.6378
7100,802,803,33.286,26.898,-0.0134,0.0418,9.7991,-0.7204,0.1649,-0.2515
7105,814,800,33.382,26.982,-0.0823,0.0216,9.7394,-0.3108,-0.3206,0.7144
7110,827,791,33.36,26.847,-0.0619,-0.0021,9.861,-0.7921,-0.696,0.0618
7115,835,789,33.378,26.779,0.0175,0.0695,9.7821,0.1944,-0.3178,-0.0797
7120,845,796,33.383,26.883,0.0249,-0.0626,9.8073,0.1498,0.1286,0.349
7125,859,792,33.359,26.843,0.0983,0.0838,9.6896,-0.065,1.2151,0.0135
7130,874,793,33.378,26.865,0.0562,-0.0144,9.783,-0.0845,0.0437,0.2923
7135,883,792,33.356,26.821,-0.0725,-0.0322,9.8261,-0.0815,0.6996,-0.1025
7140,895,789,33.303,26.84,-0.0057,-0.0562,9.7607,0.8667,0.2068,-0.5194
7145,907,783,33.278,26.805,-0.0213,0.1872,9.8097,-0.581,-0.4765,-0.059
7150,914,782,33.324,26.773,-0.0363,-0.0629,9.7922,-0.0167,-1.0967,0.0246
7155,922,781,33.385,26.842,0.0015,-0.06,9.8444,-1.042,-0.2082,-0.6198
7160,938,778,33.354,26.784,-0.0157,-0.0113,9.861,-0.0547,-0.5002,-0.0988
7165,952,778,33.276,26.802,-0.0884,0.0235,9.7832,0.3389,0.4185,-0.1839
7170,962,776,33.304,26.818,0.0897,0.0164,9.8078,0.6789,-0.2047,-0.2304
7175,976,774,33.406,26.9,0.013,-0.0238,9.6925,-0.3409,0.1988,0.1568
7180,993,772,33.361,26.847,0.0843,0.0367,9.8703,0.3755,0.2014,0.338
7185,1007,769,33.426,26.917,0.0308,-0.0464,9.8099,0.4874,0.3684,0.0968
7190,1012,768,33.325,26.768,0.0519,-0.0633,9.7179,-1.3006,0.4034,-0.5924
7195,1019,771,33.314,26.893,0.0162,0.0061,9.7843,0.3504,-0.1212,-0.6884
7200,1039,766,33.335,26.891,-0.0392,0.0042,9.7551,-0.5265,1.1281,-0.1697
7205,1042,767,33.371,26.851,0.0929,0.0287,9.7989,0.5555,0.3269,0.1079
7210,1046,760,33.29,26.812,0.0288,-0.0397,9.8641,-0.0776,0.4545,-0.4741
7215,1066,763,33.386,26.755,0.0676,0.03,9.8514,-0.4855,-0.0344,-0.538
7220,1069,758,33.309,26.85,0.0065,0.0526,9.9197,0.0294,0.0404,-0.1116
7225,1084,758,33.272,26.868,0.0279,-0.0757,9.8074,-0.1816,-0.5354,0.1305
7230,1098,756,33.339,26.845,-0.032,-0.0355,9.788,0.225,0.1444,0.2264
7235,1102,755,33.369,26.96,0.0078,-0.0447,9.7794,0.3041,0.2509,-0.5446
7240,1114,753,33.365,26.861,0.0652,-0.014,9.8185,0.2086,-0.6735,-0.1143
7245,1121,749,33.361,26.908,0.0722,-0.0252,9.6758,0.4035,-0.4449,0.5292
7250,1126,752,33.461,26.877,-0.0269,-0.0321,9.8179,-0.3066,0.4998,-0.1881
7255,1136,746,33.327,26.925,0.0619,-0.011,9.9194,-0.2698,0.2038,-0.5373
7260,1144,750,33.35,26.75,-0.0374,0.0337,9.8275,0.382,-0.4864,-0.3994
7265,1154,751,33.295,26.884,0.0793,0.0413,9.8485,-0.7544,-0.3399,0.1432
7270,1150,745,33.374,26.794,0.0172,-0.0023,9.8833,0.4065,-0.7019,0.1638
7275,1166,752,33.294,26.813,0.0325,0.0093,9.7909,-0.0223,-0.231,0.9055
7280,1166,748,33.375,26.869,0.0221,0.0422,9.7448,0.5802,0.3597,0.1219
7285,1171,747,33.378,26.814,0.0683,0.0209,9.7773,0.1604,-0.2669,-0.218
7290,1181,749,33.345,26.916,0.006,-0.0487,9.7442,0.1763,-0.8054,0.448
7295,1178,752,33.19,26.822,0.0614,-0.0803,9.8063,0.9616,-0.1737,-0.4499
7300,1177,747,33.405,26.94,0.0352,0.0898,9.8185,-0.0844,-0.2226,-0.22
7305,1182,751,33.394,26.9,-0.0848,0.0499,9.9076,0.2546,-0.2141,0.8154
7310,1185,756,33.253,26.836,-0.0026,0.0308,9.7399,0.0642,0.0206,0.3278
7315,1182,750,33.435,26.901,0.013,-0.0733,9.7949,0.6903,1.3545,0.5702
7320,1184,757,33.333,26.857,-0.0194,0.0082,9.8166,-0.728,-0.0334,0.4072
7325,1188,754,33.294,26.908,0.0018,-0.0339,9.9044,-0.4941,0.4423,0.1208
7330,1187,751,33.359,26.827,0.0584,-0.0298,9.823,-0.7018,0.0081,0.3282
7335,1188,758,33.271,26.906,0.0552,0.071,9.8511,0.503,0.2129,0.7084
7340,1185,758,33.358,26.753,0.0492,-0.0086,9.7798,-0.8158,-0.6088,-0.3343
7345,1182,755,33.274,26.825,-0.0443,0.0351,9.7663,-0.0378,-0.7371,-0.246
7350,1194,762,33.305,26.733,0.0313,-0.0598,9.836,-0.2017,-0.7329,0.1708
7355,1182,762,33.372,26.768,-0.018,0.0778,9.7673,0.3908,0.189,0.1786
7360,1184,763,33.364,26.865,-0.0005,0.0695,9.8319,-0.8225,-0.2204,-0.1629
7365,1177,767,33.302,26.948,0.0567,-0.0237,9.8715,0.8898,-0.5772,0.0515
7370,1172,766,33.362,26.91,-0.042,0.0063,9.8042,0.592,-0.2637,-0.0668
7375,1180,765,33.371,26.848,0.011,-0.0675,9.8023,-0.0837,-0.1403,0.5179
7380,1178,770,33.363,26.87,0.0098,-0.0342,9.7512,0.1506,-0.5669,0.3425
7385,1167,778,33.311,26.876,-0.0369,-0.0388,9.8593,0.3874,-0.0717,0.3655
7390,1167,777,33.515,26.833,-0.028,-0.0678,9.7779,-0.1431,0.283,0.3626
7395,1161,775,33.354,26.833,-0.034,-0.0298,9.8356,0.6605,-0.0253,0.3524
7400,1158,777,33.22,26.803,0.0606,-0.0625,9.8168,-0.5117,0.1174,1.5213
7405,1161,784,33.369,26.856,0.0624,-0.0246,9.8077,-0.2755,-0.1505,0.3252
7410,1162,784,33.319,26.881,-0.0126,0.0117,9.8751,1.1416,0.1993,-0.2527
7415,1147,785,33.265,26.869,-0.0276,-0.0061,9.8067,-1.1153,0.2742,0.5549
7420,1143,791,33.328,26.845,-0.0585,0.0325,9.8761,0.6045,-0.0768,0.6149
7425,1142,793,33.283,26.911,0.0796,0.0007,9.7726,0.1558,0.6503,-0.0677
7430,1136,793,33.361,26.887,-0.0908,0.0299,9.79,0.5131,1.2556,0.4991
7435,1141,799,33.351,26.807,-0.0342,-0.0024,9.7603,-0.3716,-0.0982,-0.5734
7440,1137,801,33.308,26.854,-0.0688,0.0008,9.8255,-0.0445,0.5252,-0.9331
7445,1124,796,33.322,26.952,0.0884,-0.0164,9.7941,-0.6468,0.9638,0.0218
7450,1125,801,33.404,26.847,0.0548,0.0138,9.7514,0.2084,-0.7523,-0.5099
7455,1131,803,33.375,26.869,-0.0333,-0.0543,9.8313,0.4616,-0.5991,0.3473
7460,1114,805,33.361,26.83,0.0156,-0.0295,9.7606,-0.8478,0.4696,0.131
7465,1119,814,33.342,26.918,0.0526,-0.0273,9.8544,-0.015,0.7278,-0.035
7470,1109,812,33.316,26.896,-0.0557,0.0174,9.8689,-0.5624,0.2799,-0.1274
7475,1114,818,33.376,26.817,0.0563,-0.0042,9.8414,-0.2157,0.6253,0.031
7480,1112,814,33.363,26.854,-0.0578,-0.0315,9.8088,-0.1201,0.2378,-0.0274
7485,1110,822,33.242,26.863,0.0785,0.0957,9.7623,-0.2196,-0.0961,0.3306
7490,1103,822,33.325,26.946,0.0068,0.0101,9.7749,-0.0817,0.1358,0.0285
7495,1100,822,33.442,26.89,0.0632,-0.0257,9.8436,0.2617,-0.2369,-0.0568
7500,1095,824,33.339,26.871,-0.0233,-0.0172,9.743,0.0104,0.3482,-0.3668
7505,1107,826,33.342,26.841,-0.0932,0.0535,9.839,0.0192,-0.598,0.0104
7510,1100,829,33.361,26.831,0.0692,-0.0332,9.7802,0.2859,0.2238,-1.2827
7515,1105,829,33.353,26.913,-0.0466,0.0831,9.8283,-0.4206,0.9351,-0.6569
7520,1086,828,33.323,26.947,-0.0943,-0.01,9.8259,0.4912,0.0584,0.4437
7525,1092,829,33.365,26.765,-0.0419,-0.0473,9.8132,-0.2349,-0.023,-0.2854
7530,1087,834,33.325,26.853,0.0172,-0.0082,9.8385,-0.8106,-0.8467,-1.0799
7535,1087,833,33.398,26.89,-0.035,-0.0267,9.7637,0.3252,-0.2212,-1.5384
7540,1086,830,33.292,26.87,-0.0439,0.0506,9.7828,0.0858,0.3166,0.6359
7545,1083,835,33.308,26.844,0.0586,0.0589,9.7844,-0.4518,0.5448,0.2227
7550,1085,837,33.36,26.898,0.0321,-0.0402,9.8121,-0.3311,0.194,-0.4892
7555,1076,838,33.306,26.774,0.039,0.0109,9.739,-0.4948,0.0199,0.3569
7560,1080,838,33.37,26.816,-0.0176,0.0276,9.8678,0.459,-0.4946,0.3965
7565,1076,838,33.391,26.85,0.0107,0.019,9.8118,0.4364,0.6329,-0.1106
7570,1078,841,33.398,26.843,-0.0104,-0.0619,9.8051,1.0835,0.3032,-0.5332
7575,1063,837,33.329,26.852,0.028,0.0156,9.794,-0.7112,-0.2131,-0.3858
7580,1071,835,33.341,26.932,0.0372,0.0073,9.7401,-0.3229,0.3778,0.1138
7585,1063,835,33.294,26.859,0.0554,-0.0069,9.7899,-0.0457,0.9787,0.4666
7590,1051,840,33.363,26.793,0.1029,-0.0027,9.7979,0.1961,0.1332,-0.1858
7595,1055,836,33.314,26.774,0.0091,0.0029,9.8586,-1.0111,0.4365,-0.0417
7600,1043,838,33.315,26.815,-0.018,0.1613,9.7941,0.2418,-0.5203,0.0118
7605,1037,837,33.421,26.831,0.0565,0.0898,9.733,-1.1916,-0.1445,1.1165
7610,1034,837,33.389,26.948,-0.07,-0.0214,9.8155,-0.2484,-0.5962,0.557
7615,1038,835,33.381,26.856,-0.0084,0.0465,9.8559,-0.3224,-0.981,-0.0161
7620,1030,834,33.299,26.919,0.0148,-0.0669,9.843,0.2168,0.4073,-0.1771
7625,1029,834,33.293,26.942,-0.0641,0.1028,9.8687,-0.4801,0.2948,0.5847
7630,1015,839,33.348,26.821,0.0223,-0.0132,9.7682,0.1781,-0.2635,-0.0124
7635,1008,835,33.417,26.877,0.0382,0.0633,9.7901,-0.0008,-0.9496,0.3145
7640,1001,833,33.365,26.816,0.0401,0.0115,9.8335,-0.2592,-0.0232,0.0714
7645,1002,834,33.365,26.916,-0.0441,-0.0245,9.8312,-0.3489,-0.1569,0.0923
7650,991,830,33.444,26.882,-0.013,0.0177,9.8632,-0.7223,-0.0552,-0.2948
7655,984,829,33.322,26.813,-0.0662,-0.0022,9.6909,-0.5028,0.399,0.2206
7660,977,833,33.361,26.934,0.0173,-0.0337,9.8788,0.0842,-0.0806,1.1677
7665,967,835,33.314,26.797,-0.0002,0.0246,9.8571,-0.045,0.4915,0.3013
7670,962,830,33.352,26.891,-0.0969,-0.059,9.8642,0.2411,-0.91,0.393
7675,957,826,33.239,26.846,0.0002,0.0171,9.7075,0.1064,-0.802,-0.0413
7680,943,829,33.322,26.895,-0.0141,-0.0112,9.8372,-0.5545,-0.2178,0.1805
7685,938,828,33.344,26.863,0.0012,0.0002,9.78,0.8686,-0.2297,-0.0711
7690,934,825,33.334,26.84,0.0335,0.0115,9.8039,0.5787,-0.2033,-0.0466
7695,926,822,33.301,26.897,-0.0667,-0.0038,9.7859,0.6595,-0.1339,-0.3788
7700,906,828,33.32,26.836,0.002,0.0042,9.7977,0.5588,0.0064,-0.2774
7705,892,822,33.321,26.885,0.0002,-0.0183,9.7403,0.2446,-0.0037,0.6374
7710,891,829,33.339,26.832,0.0029,0.0367,9.8281,0.1022,-0.2531,-0.0333
7715,892,819,33.262,26.726,0.066,-0.0439,9.7949,0.5876,0.298,0.3303
7720,877,824,33.326,26.902,0.1087,-0.0061,9.7853,0.4562,0.172,-0.544
7725,864,822,33.34,26.976,0.0029,0.111,9.8203,0.3123,-0.4707,-0.2026
7730,848,822,33.391,26.778,-0.0668,0.0361,9.8024,1.2851,-0.1193,-0.5145
7735,841,820,33.298,26.908,0.0033,-0.053,9.778,0.6981,0.3307,0.2361
7740,831,823,33.326,26.867,-0.0235,0.0158,9.8107,0.0583,0.6347,0.3267
7745,828,817,33.327,26.926,0.05,-0.0138,9.7633,-0.1055,-0.1722,0.522
7750,810,826,33.334,26.841,-0.0004,0.0221,9.8899,0.0252,-0.1517,-0.0352
7755,824,824,33.303,26.881,-0.0697,-0.0401,9.8361,-0.097,-0.2746,0.6545
7760,803,824,33.399,26.995,-0.0065,0.022,9.7581,0.5739,0.7007,-0.1561
7765,790,819,33.339,26.856,-0.0136,0.0567,9.8273,-0.0639,0.7347,-0.3405
7770,793,815,33.351,26.836,-0.0813,0.0955,9.7508,-0.0495,-0.5767,-0.5469
7775,789,817,33.397,26.916,-0.0373,-0.0653,9.8729,-0.8475,0.19,0.5608
7780,777,818,33.395,26.85,-0.0552,0.0118,9.7688,0.2106,0.0456,-0.4946
7785,775,814,33.321,26.918,0.0288,0.08,9.8259,-0.3764,-0.3918,-0.2427
7790,769,820,33.313,26.827,0.0358,0.0007,9.7706,0.4297,0.3984,-0.1094
7795,760,818,33.38,26.831,0.0166,-0.0505,9.7985,0.364,-0.5932,0.1312
7800,766,813,33.39,26.812,0.0511,0.0346,9.9095,-0.8099,-0.4121,-0.3245
7805,756,812,33.407,26.916,0.0268,0.0507,9.786,-0.0776,1.0213,0.7858
7810,746,820,33.345,26.897,-0.0392,-0.0529,9.7906,-0.4853,-0.164,-0.3854
7815,749,817,33.346,26.913,-0.0272,-0.0768,9.7475,1.2626,-0.1235,1.6379
7820,745,813,33.315,26.878,0.019,0.0664,9.7603,-0.2671,0.4874,0.4156
7825,751,814,33.422,26.864,0.0058,0.0558,9.8079,0.2417,0.0825,0.0632
7830,751,812,33.423,26.845,-0.0024,0.0015,9.8743,0.523,-0.5795,0.333
7835,753,814,33.24,26.789,0.0377,0.0542,9.8191,0.6241,-0.2476,0.0994
7840,759,809,33.299,26.883,0.0175,-0.0151,9.775,-0.4167,-0.8617,0.5445
7845,738,810,33.389,26.844,-0.0499,-0.053,9.7698,0.0156,-0.4353,0.1839
7850,760,810,33.332,26.879,-0.0019,-0.1905,9.7887,-0.069,-0.1682,-0.2211
7855,753,810,33.332,26.912,-0.0251,0.0321,9.7969,-0.5204,0.1733,-0.2384
7860,768,809,33.285,26.873,-0.0765,0.0857,9.7623,0.2036,-0.7345,-0.1792
7865,764,803,33.349,26.895,-0.0046,-0.0534,9.8724,0.1147,0.2427,0.0152
7870,778,801,33.321,26.796,0.0146,0.0439,9.7202,-0.0921,-0.3005,-0.5218
7875,783,803,33.346,26.864,-0.0247,-0.0508,9.7952,-0.2022,0.8643,-0.4321
7880,770,801,33.277,26.879,-0.0203,-0.0344,9.7813,-0.2894,0.8076,0.0068
7885,771,800,33.334,26.82,-0.0588,0.008,9.7813,0.7054,-0.677,-0.3734
7890,796,799,33.326,26.83,-0.0938,0.0235,9.8281,-0.2986,-0.2177,-0.0552
7895,796,801,33.337,26.842,0.0218,0.0197,9.774,0.1588,-0.9146,-0.0071
7900,810,799,33.345,26.902,-0.011,-0.0643,9.7489,-0.4465,-0.5636,-0.6564
7905,820,802,33.313,26.912,0.0392,-0.0875,9.8408,-0.8337,0.1965,0.4664
7910,821,795,33.342,26.856,-0.0276,0.0389,9.8694,0.2011,-0.2775,-0.4484
7915,834,796,33.394,26.889,-0.0806,-0.0728,9.8058,0.6316,0.0477,-0.2245
7920,841,800,33.246,26.774,0.0485,-0.0344,9.811,-1.0607,0.3243,-0.0784
7925,855,793,33.325,26.883,-0.0322,0.0123,9.8391,0.7609,-0.291,-0.0004
7930,863,793,33.393,26.907,0.0049,-0.0193,9.7933,-0.0784,-0.0083,-0.1483
7935,876,786,33.309,26.857,0.0579,-0.0638,9.8184,-0.7224,-0.1168,0.3712
7940,892,791,33.407,26.861,0.0485,-0.0071,9.8686,0.9439,0.0019,0.5772
7945,902,792,33.426,26.856,-0.0647,0.0072,9.8157,-0.957,0.1128,-0.4139
7950,914,785,33.292,26.833,0.0015,-0.0039,9.8298,0.8326,-0.0479,-0.4655
7955,933,784,33.278,26.844,-0.0347,0.0062,9.7449,0.1856,0.4661,-1.1135
7960,937,778,33.389,26.861,0.0019,0.0231,9.8244,0.111,-0.7179,0.4161
7965,953,776,33.223,26.883,-0.0249,0.0414,9.7724,0.4298,0.7744,1.0909
7970,968,775,33.336,26.822,0.0948,0.0622,9.8352,0.3437,0.0978,0.3544
7975,969,774,33.359,26.855,0.0069,-0.004,9.8029,1.0592,0.3151,-0.7121
7980,981,776,33.401,26.833,0.0068,0.0684,9.7794,-0.1263,-0.1895,-0.8809
7985,995,769,33.369,26.806,-0.0531,0.0507,9.8253,0.0045,0.3084,-0.4739
7990,1001,772,33.336,26.868,0.0476,-0.0225,9.7434,-0.814,0.2808,0.42
7995,1013,765,33.397,26.816,0.0354,0.0051,9.8935,-0.0241,0.2873,-0.7316
8000,1024,765,33.33,26.812,-0.0282,-0.0981,9.7761,-0.2582,0.4189,0.751
8005,1045,763,33.449,26.901,-0.0254,-0.042,9.84,0.2262,-0.5091,-0.3037
8010,1041,762,33.317,26.835,0.0767,-0.0127,9.6926,-0.1963,0.6936,-0.5075
8015,1059,760,33.38,26.814,-0.0045,0.03,9.8437,-0.1373,-0.4939,0.0642
8020,1076,765,33.348,26.844,0.0246,0.04,9.8333,0.0994,-0.1406,-0.1859
8025,1089,760,33.263,26.927,-0.0051,-0.017,9.9004,0.0667,0.4818,-0.7348
8029,1097,758,33.302,26.921,-0.0118,0.0786,9.7934,0.8973,-0.0853,0.5457
8035,1100,760,33.353,26.865,0.0006,-0.0219,9.7749,0.2908,0.2569,-0.037
8039,1112,753,33.353,26.887,0.0054,0.0022,9.8622,0.0489,-0.0925,-0.3644
8045,1112,753,33.423,26.835,-0.0072,-0.0542,9.8233,1.1653,0.5477,0.1589
8050,1133,750,33.262,26.857,0.0298,-0.0304,9.8186,0.1257,0.7298,-0.1593
8055,1142,755,33.413,26.831,-0.0481,-0.051,9.792,0.7275,0.7272,-0.0943
8060,1144,747,33.289,26.829,-0.0012,0.0836,9.7367,-0.9459,0.4896,-0.2777
8064,1144,751,33.233,26.856,-0.0443,-0.0483,9.8092,-0.2,0.0315,-0.7216
8070,1149,751,33.395,26.847,0.0428,0.0078,9.845,0.1534,0.3941,-0.6515
8074,1157,752,33.376,26.899,0.0493,0.0241,9.8165,0.8638,0.3952,0.9503
8080,1163,752,33.32,26.849,-0.0807,-0.0098,9.8021,-0.4562,-0.2537,0.3911
8085,1162,746,33.328,26.873,0.053,0.0935,9.8479,1.0663,0.4756,-0.2239
8090,1179,751,33.329,26.871,-0.0227,0.003,9.7571,-1.3197,-0.6053,-0.008
8095,1176,754,33.3,26.874,-0.0194,-0.0036,9.824,0.8306,0.0505,0.0759
8100,1185,748,33.22,26.876,0.0485,0.0295,9.7638,-0.1214,-0.7675,0.8523
8105,1189,745,33.306,26.887,-0.0528,0.0169,9.8313,0.4183,-0.077,-0.4919
8109,1189,748,33.395,26.923,-0.0193,0.0292,9.8057,-0.7957,-0.5721,-0.3366
8115,1185,752,33.341,26.87,0.0327,0.0967,9.8347,-0.4803,0.2746,0.1545
8119,1188,750,33.358,26.939,-0.0754,-0.0206,9.7965,-0.2988,-0.3622,0.3814
8125,1183,749,33.344,26.874,0.0522,0.102,9.8475,0.0976,-0.364,-0.6491
8130,1198,756,33.328,26.923,-0.0035,-0.0111,9.8013,0.5127,0.6548,0.2325
8135,1191,754,33.296,26.866,-0.014,-0.0073,9.8572,-0.9221,0.2061,0.0355
8140,1191,755,33.364,26.894,0.0768,0.0003,9.8212,0.2366,0.1052,0.2758
8145,1180,760,33.301,26.861,0.0107,0.0226,9.8572,0.034,-1.4304,0.0608
8150,1184,765,33.322,26.845,0.0598,-0.0171,9.7378,0.9924,-0.4028,-0.127
8154,1177,751,33.322,26.859,0.0502,0.0115,9.8526,-0.0907,-0.4873,0.5987
8160,1181,770,33.256,26.901,0.0103,0.0101,9.7828,0.1005,-0.4172,0.1227
8164,1167,769,33.349,26.879,-0.0133,0.0412,9.8278,0.2166,-0.5666,0.3649
8170,1181,770,33.283,26.824,-0.028,-0.0272,9.7947,-0.5376,-1.1059,-0.6123
8175,1167,774,33.317,26.812,-0.0742,0.0524,9.7419,1.0772,0.6525,-0.2322
8180,1164,771,33.326,26.864,0.0175,-0.0842,9.8245,-0.5441,-0.2359,-0.0255
8185,1169,771,33.356,26.9,-0.0647,0.0566,9.8081,0.1035,0.69,-0.5923
8189,1168,773,33.434,26.85,0.0074,0.0297,9.8367,-0.6937,0.5958,0.7032
8195,1167,774,33.333,26.819,-0.0177,-0.049,9.7563,0.777,-0.0365,0.3877
8200,1161,779,33.402,26.738,0.0148,-0.0091,9.7246,0.4863,0.0139,-0.4203
8205,1158,782,33.399,26.875,0.0917,-0.0159,9.8259,-0.2394,0.5601,-0.029
8210,1152,783,33.352,26.862,-0.014,-0.0587,9.8305,-0.3603,-1.0078,-0.8625
8215,1153,786,33.345,26.891,0.0387,0.0316,9.7907,0.3633,0.3194,-1.0416
8220,1144,790,33.244,26.758,-0.0326,0.0521,9.7795,-0.0321,0.4635,0.4863
8225,1139,796,33.269,26.939,-0.0318,0.007,9.7405,-0.4462,0.2138,0.6693
8230,1147,797,33.315,26.847,0.0289,0.0435,9.8288,-0.1504,0.3785,0.3635
8235,1137,796,33.317,26.839,-0.0709,-0.0155,9.8875,0.6825,-0.0585,0.0114
8240,1140,799,33.418,26.877,-0.0779,-0.0331,9.8483,0.7352,-0.496,0.8421
8245,1128,799,33.315,26.87,-0.0117,0.0421,9.7466,0.0187,-0.1105,0.2983
8250,1117,806,33.359,26.818,-0.0434,0.0205,9.7927,0.5234,-0.4547,-0.1951
8255,1124,805,33.394,26.874,0.039,-0.0161,9.7946,0.0398,-0.6096,0.3506
8260,1115,808,33.313,26.963,0.0261,0.0089,9.8068,0.7429,-0.3434,0.2435
8265,1122,814,33.333,26.854,0.098,0.0137,9.7831,-0.5903,0.1097,-0.4113
8270,1116,819,33.297,26.879,0.0677,0.1142,9.8431,0.1726,0.0279,-0.112
8275,1107,812,33.343,26.804,0.0219,-0.0246,9.8142,-0.3274,-0.2002,-0.2219
8280,1115,819,33.24,26.79,-0.005,0.0294,9.7662,-1.0047,-0.9862,-0.3834
8285,1108,816,33.33,26.863,0.0187,-0.085,9.8097,-0.7902,-0.0253,-1.0349
8290,1102,815,33.328,26.862,-0.0286,0.0003,9.8363,-0.0817,0.2814,-0.2803
8295,1103,820,33.32,26.845,-0.0738,-0.0452,9.8592,1.081,0.388,-0.1022
8300,1096,818,33.379,26.757,0.1043,-0.0128,9.7638,0.2343,0.8326,0.7053
8305,1100,826,33.325,26.939,-0.0447,0.0213,9.8257,-0.2087,0.7901,-1.0364
8310,1095,821,33.376,26.779,-0.0881,0.0011,9.7093,0.3385,0.2255,-0.1058
8315,1094,830,33.3,26.986,0.0388,0.0373,9.7782,0.0038,0.4323,0.5008
8320,1089,826,33.366,26.875,0.0311,0.0016,9.7624,0.7947,-0.134,0.3396
8325,1093,830,33.334,26.834,-0.0769,0.0308,9.857,0.2784,-1.0258,0.1329
8330,1093,834,33.382,26.811,-0.028,0.0454,9.7542,-0.028,0.1734,-0.433
8335,1082,823,33.381,26.855,-0.0571,-0.0291,9.7905,-0.1762,0.403,-0.1701
8340,1087,832,33.389,26.871,0.0315,0.0086,9.7777,0.1345,0.4225,-0.7491
8345,1088,834,33.374,26.976,0.0465,0.0241,9.7911,0.5382,0.0316,1.0026
8350,1088,834,33.372,26.815,-0.0446,-0.0362,9.7962,-0.3697,0.2592,1.127
8355,1081,837,33.328,26.941,-0.0844,0.0316,9.7791,0.3683,0.7527,-0.6173
8360,1064,833,33.332,26.858,0.0145,0.0384,9.8682,0.1152,0.1494,0.0144
8365,1070,832,33.304,26.856,0.019,0.0269,9.7922,-0.0733,0.1333,-0.1924
8370,1067,840,33.328,26.805,-0.0893,0.0029,9.8271,-0.1678,0.4911,-0.4946
8375,1061,836,33.381,26.786,0.0364,0.0086,9.78,-0.3964,-0.5976,0.021
8380,1057,837,33.255,26.891,0.0289,0.0055,9.8085,0.1629,0.4711,0.8751
8385,1061,836,33.309,26.879,0.0004,0.0446,9.7567,-0.5115,0.4904,0.3527
8390,1050,835,33.379,26.913,-0.0872,-0.0067,9.7868,0.1711,0.188,-0.3842
8395,1054,841,33.341,26.858,-0.0971,-0.0006,9.8537,0.2047,0.3907,-0.1694
8400,1039,830,33.298,26.923,0.0158,0.0011,9.7965,0.2876,0.2998,0.918
8405,1041,834,33.295,26.871,0.0913,-0.0471,9.7681,0.9501,0.3144,0.2537
8410,1036,837,33.389,26.869,0.0655,-0.1253,9.7247,0.109,-0.035,-0.4475
8415,1029,833,33.354,26.874,0.0042,0.0303,9.8217,-0.2448,-0.5411,-0.2034
8420,1033,838,33.349,26.926,-0.0262,0.0474,9.8509,-0.4265,0.3848,-0.9028
8425,1021,838,33.309,26.863,-0.0427,0.0618,9.8722,0.8625,0.015,-0.2185
