timestamp_ms,ir_finger,ir_toe,temp_finger,temp_toe,ax,ay,az,gx,gy,gz
0,1045,766,33.882,25.995,-0.0845,0.059,9.7389,-0.0675,-0.264,-0.2009
5,1050,764,33.867,25.984,-0.0595,-0.0247,9.8302,-0.378,0.6291,-0.2964
10,1070,764,33.856,25.89,0.0711,-0.0261,9.8253,0.2522,-0.3347,-0.5313
15,1063,763,33.928,26.048,0.0009,0.0206,9.7405,0.9745,0.1432,-0.4532
20,1084,760,33.906,26.052,-0.1022,0.0078,9.8475,0.1159,0.2527,-0.4171
25,1084,760,33.927,26.063,-0.0063,0.0222,9.7937,0.6729,0.6693,-0.7046
30,1093,763,33.877,25.986,-0.0074,-0.0177,9.8454,0.4981,0.354,0.1268
35,1102,758,33.83,25.928,-0.1005,-0.0156,9.8085,-1.0043,-0.4488,-0.5602
40,1116,758,33.855,25.964,0.0387,-0.0775,9.7756,0.219,0.7665,0.3289
45,1119,750,33.861,26.017,-0.1046,0.1064,9.8871,-1.2031,-0.86,0.735
50,1124,755,33.849,25.974,-0.0545,0.0085,9.8018,-0.5705,-0.0737,0.0989
55,1127,753,33.875,25.93,0.0179,-0.0276,9.8697,-0.012,-0.0408,-0.1446
60,1136,757,33.911,25.942,-0.0197,0.0002,9.8124,-0.383,-0.3698,-0.1549
65,1139,756,33.884,25.913,-0.0592,-0.1179,9.789,0.5112,-0.4646,-0.7693
70,1158,753,33.954,25.979,-0.0729,0.0314,9.7754,-0.7911,-0.3623,-0.9034
75,1146,748,33.898,25.978,0.0003,0.0803,9.8327,-0.4501,0.3387,0.0629
80,1160,748,33.895,26.031,-0.0474,-0.0194,9.8069,-0.0892,0.4585,0.3799
85,1164,753,33.875,26.003,-0.0526,0.0157,9.8386,0.2314,-0.3435,0.6493
90,1170,750,33.897,25.935,-0.0405,-0.0118,9.7438,-0.0263,-0.1468,-0.281
95,1168,749,33.896,25.979,0.0024,0.0067,9.7185,0.7025,-0.4816,-0.3056
100,1181,752,33.91,26.0,-0.0082,-0.1599,9.9238,0.6617,0.6859,0.2727
105,1185,748,33.96,25.981,0.0555,0.0319,9.7842,-0.0623,0.2378,-0.0954
110,1177,745,33.893,25.942,0.0056,0.0271,9.8312,0.5138,0.4233,-0.1142
115,1182,746,33.881,25.924,-0.0569,-0.1475,9.8569,0.2991,0.2061,0.2208
120,1181,751,33.83,25.963,-0.0192,-0.0364,9.7458,0.3202,0.0505,-0.5806
125,1186,748,34.008,26.065,0.0399,0.055,9.8409,-0.3731,0.8467,-0.0437
130,1187,753,33.875,26.021,0.0024,0.0491,9.8339,-0.5695,0.6657,0.3077
135,1193,752,33.956,25.918,0.0039,0.0276,9.7791,-0.4804,0.4101,-0.1094
140,1192,750,33.937,25.989,0.055,-0.0821,9.8047,-0.6461,0.8243,0.2478
145,1183,752,33.89,26.089,-0.0999,-0.0694,9.8526,-0.0539,0.5372,-0.0631
150,1190,756,33.987,25.965,0.0919,-0.0474,9.8697,-0.2475,0.5363,-0.4286
155,1190,755,33.85,25.961,-0.0323,0.0716,9.8586,-0.3534,-0.3338,0.0577
160,1189,749,33.881,26.038,-0.0003,-0.11,9.838,0.3529,0.0672,0.3906
165,1180,754,33.901,25.93,-0.0228,-0.0455,9.7492,-1.215,-0.8282,0.815
170,1184,759,33.841,25.943,-0.0261,-0.0799,9.805,0.083,-0.3756,0.2773
175,1183,759,33.8,25.863,-0.0766,0.0061,9.8966,-0.5155,0.2886,-0.0323
180,1183,758,33.925,25.963,0.0312,-0.0237,9.7185,-0.4836,-0.4652,0.1945
185,1176,766,33.93,25.991,-0.0454,0.0749,9.8204,0.2322,-0.1772,0.4264
190,1172,763,33.863,25.912,-0.0198,0.0089,9.7803,0.5545,0.6177,-0.2538
195,1178,764,33.924,25.915,0.0459,0.0739,9.8257,0.3287,-0.4971,0.3506
200,1173,768,33.81,25.963,0.0118,0.0344,9.8056,-1.1513,-0.6808,-0.0167
205,1178,769,33.85,25.966,-0.0094,-0.0099,9.8654,0.2703,0.0277,0.22
210,1175,769,33.803,26.061,-0.0236,0.0099,9.8852,0.3934,0.0748,-0.2419
215,1176,767,33.896,25.916,-0.022,-0.0336,9.8105,0.0169,-0.6344,0.0379
220,1174,775,33.838,25.943,-0.0056,0.0388,9.8477,0.3672,-0.0832,0.8982
225,1168,774,33.912,25.905,-0.0012,-0.0289,9.9228,-0.5702,0.2531,0.2894
230,1155,770,33.926,25.991,0.0576,-0.0708,9.7352,-0.2901,-0.8899,0.9315
235,1157,778,33.805,26.003,0.0372,-0.0608,9.7745,0.0339,-0.2165,0.3325
240,1155,776,33.858,25.956,0.0094,0.034,9.7567,-0.9516,0.258,0.2825
245,1149,784,33.84,26.011,-0.0939,0.0216,9.809,1.3207,-0.4885,-1.2778
250,1155,780,33.849,25.924,-0.0647,0.0395,9.7739,-0.0353,0.532,-0.3408
255,1159,781,33.963,25.942,0.0069,0.0806,9.8518,-0.2563,-0.2711,0.2644
260,1140,783,33.85,25.962,-0.0297,0.0812,9.8313,-0.1215,0.3792,-0.0976
265,1137,789,34.059,26.054,0.0482,0.0005,9.8196,-0.3041,-0.9392,-0.1477
270,1142,792,33.784,25.907,-0.0446,-0.0342,9.726,-0.1664,-0.7761,0.1637
275,1141,795,33.853,25.952,-0.0009,-0.043,9.8645,0.6562,0.3875,-0.8337
280,1127,796,33.915,25.956,-0.0644,0.0696,9.835,-0.0964,-0.1699,-0.0009
285,1134,801,33.814,26.036,0.0153,-0.0215,9.7773,0.9859,0.3626,1.0773
290,1130,794,33.822,25.948,0.018,0.0566,9.7912,0.0827,0.2203,0.1858
295,1129,799,33.863,25.999,0.0075,-0.0069,9.732,-0.979,0.0913,0.989
300,1120,805,33.935,25.915,0.0044,0.1122,9.8263,0.2405,0.6135,1.0062
305,1126,804,33.837,26.027,0.0547,-0.0459,9.8042,0.1647,0.1177,-0.404
310,1116,809,33.814,26.018,-0.0098,0.0549,9.8831,0.5617,0.1981,-0.3402
315,1117,806,33.941,25.888,-0.0963,-0.1153,9.8203,0.4739,1.0414,-0.4173
320,1123,800,33.841,25.966,0.0734,0.0089,9.7803,-0.4262,-0.277,0.1273
325,1120,812,33.911,25.977,-0.0273,0.0012,9.8852,-0.0472,0.6397,1.0824
330,1106,812,33.917,26.031,0.0464,0.0108,9.8673,0.5913,0.7102,0.0683
335,1105,813,33.897,26.02,-0.0955,0.0171,9.807,-1.2296,0.1403,-0.0792
340,1115,811,33.881,26.003,0.0096,-0.0191,9.7812,-0.1929,-0.1032,-0.2965
345,1093,818,33.895,25.97,0.0204,-0.0432,9.8542,0.8871,0.2522,0.2277
350,1100,823,33.894,25.963,0.0105,0.0488,9.8336,-0.0028,0.3822,0.3009
355,1108,822,33.803,25.944,0.0196,-0.029,9.7652,-0.9506,0.153,0.3923
360,1109,825,33.838,25.945,0.0555,0.0042,9.8773,-0.5479,-0.5848,0.3039
365,1101,824,33.848,26.033,0.004,0.0324,9.8727,0.4814,-1.0469,-1.0376
370,1093,833,33.811,25.973,0.0118,0.0441,9.7993,-0.5956,-0.8639,-0.5043
375,1089,829,33.929,25.94,0.0404,-0.0154,9.7666,0.7362,-0.3679,-0.3215
380,1096,827,33.922,26.046,0.078,0.0381,9.8205,0.3077,0.1737,0.1842
385,1089,829,33.774,26.015,0.0549,-0.0265,9.8052,0.1226,-0.4126,0.3339
390,1090,827,33.947,25.891,0.0831,-0.0768,9.8365,-0.1811,0.2865,0.1169
395,1084,828,33.847,25.967,0.0726,0.0019,9.808,0.3344,0.4039,0.022
400,1084,833,33.882,25.898,0.0143,0.0083,9.7922,-1.0295,-0.4295,0.53
405,1082,835,33.875,25.962,0.0107,-0.0123,9.8398,0.2664,0.0546,0.1739
410,1082,835,33.933,26.014,0.0243,0.0079,9.8508,0.0924,0.7908,-0.7702
415,1073,832,33.963,26.016,-0.069,0.0039,9.6978,-0.4812,0.5229,0.3754
420,1074,838,33.92,26.009,0.0478,-0.063,9.8214,-0.3558,0.3929,0.4047
425,1080,839,33.865,26.049,0.0385,0.0352,9.8883,0.137,0.2262,0.2736
430,1081,836,33.84,25.919,0.0339,-0.0813,9.8194,-0.4589,0.0807,-0.6385
435,1065,836,33.822,25.959,0.0889,0.0035,9.8192,0.4229,-0.5836,0.6213
440,1065,831,33.869,25.885,0.013,0.0215,9.7165,0.8481,0.167,0.0687
445,1072,838,33.907,25.937,-0.0486,-0.0517,9.7587,-0.5513,-0.101,0.9563
450,1060,842,33.877,25.956,0.0674,0.0808,9.885,0.9341,-0.3858,1.0468
455,1073,836,33.902,25.997,-0.0321,0.0483,9.7839,0.3192,0.6194,0.6672
460,1061,838,33.858,26.048,0.0686,0.0738,9.8757,0.6749,-0.5865,-0.2509
465,1049,843,33.871,25.968,0.0445,0.0146,9.8464,0.3947,0.8417,-0.5104
470,1068,839,33.929,25.871,-0.0023,0.036,9.7912,0.2123,0.3316,0.21
475,1055,840,33.891,26.007,-0.0097,0.0369,9.7728,-0.0632,0.1158,0.2722
480,1052,837,33.823,26.044,-0.03,0.0216,9.7567,0.3086,-0.3555,0.6287
485,1040,836,33.847,25.932,-0.0655,-0.0541,9.7975,0.8761,-0.5982,0.538
490,1042,839,33.856,26.041,0.0551,-0.0859,9.8394,0.1614,0.107,-0.1274
495,1033,839,33.818,25.989,-0.0159,-0.0105,9.8726,0.2201,0.6933,-0.1741
500,1035,839,33.931,25.984,-0.0473,0.0683,9.7884,1.0253,-0.3627,0.9175
505,1023,833,33.921,26.067,0.076,-0.0108,9.8402,-0.3635,0.4045,0.9711
510,1028,839,33.916,26.06,0.0423,0.0693,9.7706,0.3523,-0.2696,-0.4491
515,1017,833,33.822,25.958,-0.0693,0.0371,9.8507,-0.5503,0.122,0.6491
520,1016,837,33.83,26.013,0.073,0.0539,9.8099,0.6334,0.3566,-0.0116
525,1014,832,33.853,25.937,0.0481,0.0595,9.8082,-0.0871,0.3965,0.3847
530,1007,827,33.828,25.925,0.0512,-0.0017,9.8458,-1.2644,0.3653,0.1661
535,990,832,33.874,25.985,0.0027,0.0115,9.814,0.0194,0.5644,-0.7656
540,984,834,33.936,25.986,0.015,-0.0353,9.7537,0.0759,-0.9414,0.5049
545,979,835,33.86,26.075,-0.0417,-0.0932,9.7671,0.1438,-0.662,-0.1382
550,980,831,33.944,26.047,-0.0908,-0.0407,9.7758,0.0417,-0.3963,0.0135
555,974,835,33.802,25.986,0.0857,0.0424,9.7662,0.0314,-0.4405,0.3904
560,971,829,33.88,25.941,0.0174,-0.0602,9.7531,0.068,0.7178,0.7784
565,966,830,33.886,25.987,0.0027,0.0977,9.8321,-0.0274,0.9652,-0.3614
570,957,830,33.923,26.025,-0.03,0.0582,9.7576,0.0045,0.6967,0.4683
575,944,828,33.83,25.916,-0.1036,0.0674,9.7076,0.5079,-0.7523,0.1946
580,932,837,33.915,25.984,-0.0224,0.0237,9.8492,-0.2277,1.1088,0.0109
585,930,830,33.848,26.027,-0.0141,0.0038,9.8262,-0.5093,-0.1865,0.2016
590,922,830,33.904,26.028,-0.0331,-0.0755,9.8289,-0.7596,-0.3591,-0.7009
595,919,826,33.873,26.03,-0.0041,-0.0125,9.6916,0.7089,0.0385,-0.449
600,908,828,33.869,25.907,0.0387,0.0983,9.8373,0.7642,0.86,-0.0805
605,898,830,33.84,26.026,-0.0756,-0.0322,9.8728,-0.0387,0.7318,-0.1848
610,894,828,33.954,26.0,0.0194,0.0221,9.8172,0.1767,-0.2832,0.0513
615,887,824,33.912,25.983,-0.0858,-0.0518,9.8589,0.6698,-0.3261,-0.2935
620,880,824,33.892,26.046,0.0302,0.0108,9.7605,0.8338,-0.8564,0.1119
625,875,824,33.941,25.991,-0.0593,-0.0108,9.8065,-0.3983,0.7607,-0.0514
630,870,824,33.878,26.006,-0.0312,-0.0157,9.7852,0.5053,0.1728,-0.2577
635,858,825,33.817,25.932,-0.0566,-0.013,9.8554,0.9044,0.5268,1.362
640,849,824,33.892,26.002,-0.0631,0.0154,9.8649,0.7179,0.4944,-0.4272
645,846,824,33.789,26.004,-0.0401,-0.0713,9.8009,0.0037,0.1418,-0.5199
650,838,825,33.802,25.969,0.0826,-0.0323,9.825,-0.1168,0.3021,0.0085
655,831,820,33.902,25.946,0.0368,-0.0105,9.7956,0.0738,-0.0431,0.0657
660,831,826,33.903,25.971,-0.0287,0.045,9.8709,0.2027,0.0619,-0.7231
665,807,818,33.916,25.932,0.0163,-0.0192,9.7848,0.2655,0.1283,-0.8045
670,807,827,33.899,25.994,0.0113,-0.123,9.8584,0.7352,-0.5171,-0.0794
675,806,817,33.931,26.034,0.0651,0.033,9.8478,-0.4665,-0.1164,-0.9855
680,805,821,33.84,25.971,0.0044,-0.0424,9.8435,0.5468,-0.3008,0.154
685,791,823,33.859,25.993,-0.016,0.0389,9.8479,0.6233,-0.5724,1.0824
690,783,823,33.87,26.008,0.0311,0.0449,9.8722,0.3674,0.041,-0.3148
695,791,825,33.923,26.009,0.0181,0.0418,9.8213,0.157,0.5251,0.4474
700,779,820,33.849,26.008,0.0303,0.0999,9.7994,-0.4765,-0.2598,-0.508
705,770,821,33.898,26.019,0.0053,-0.1312,9.8548,-0.2696,0.4697,-1.1413
710,763,820,33.924,25.909,0.0184,-0.1011,9.756,0.0441,0.0681,0.3698
715,767,820,33.904,25.979,0.1021,0.0218,9.7308,-0.4299,-0.3315,0.2339
720,762,820,33.974,25.936,0.004,0.0526,9.795,-1.0315,0.0655,-0.6255
725,756,813,33.895,25.956,0.0347,0.0352,9.8183,-0.7259,0.0443,-0.2108
730,758,816,33.885,26.024,-0.0801,-0.0252,9.7704,0.3911,-0.1357,0.7629
735,759,810,33.907,25.977,-0.0238,-0.009,9.859,-0.0483,-0.6215,0.2942
740,755,815,33.971,25.99,-0.0324,0.0872,9.8326,0.2356,0.3394,-0.8725
745,742,816,33.816,25.943,-0.0165,-0.0463,9.7274,-0.9038,-0.7918,-0.0387
750,753,815,33.891,25.983,0.0522,0.0449,9.825,0.496,-0.4552,-0.2683
755,751,814,33.795,25.889,-0.107,0.0057,9.8026,0.3415,0.4541,-0.0388
760,742,816,33.886,26.051,-0.0722,0.0723,9.7983,0.5162,-0.0838,-0.7717
765,749,810,33.81,25.941,0.0663,-0.1233,9.8338,-0.2007,0.1516,0.1872
770,752,814,33.976,25.971,0.054,0.0743,9.7895,-0.8334,-0.4427,-0.3232
775,749,811,33.831,25.886,-0.0512,0.0231,9.731,-0.2423,0.3085,-0.41
780,753,811,33.903,25.975,-0.0155,0.0254,9.8526,0.1093,0.3094,0.8463
785,755,808,33.821,25.982,0.039,-0.018,9.75,0.0965,-1.0099,-0.7293
790,756,803,33.934,25.973,-0.0379,0.0021,9.8636,0.0909,-0.9551,-0.905
795,749,810,33.916,25.982,-0.0078,0.0791,9.8,1.2897,-0.518,0.2537
800,756,807,33.873,25.943,0.0048,0.016,9.8601,0.9697,-0.3331,0.3444
805,761,810,33.901,25.962,0.0004,0.091,9.8498,0.1063,-0.596,-0.0288
810,771,809,33.835,26.034,-0.0249,-0.0086,9.898,-0.3722,0.3389,-0.2136
815,779,801,33.811,25.897,0.0225,-0.0636,9.8822,-0.2909,-0.2674,0.1014
820,781,804,33.851,26.08,0.0322,-0.0515,9.7681,-0.2338,-0.2047,0.2908
825,789,797,33.967,26.051,0.0408,0.0375,9.9429,0.14,1.0602,-0.0679
830,790,798,33.918,25.977,-0.0366,-0.0136,9.8412,-0.5373,1.0018,-0.7647
835,798,801,33.844,25.975,0.0339,0.05,9.7662,0.5457,-0.2282,-0.8186
840,805,801,33.935,25.97,0.0328,0.0227,9.8421,0.0817,0.5362,1.0321
845,816,805,33.896,26.022,0.0833,-0.0461,9.8118,0.4023,-0.0724,0.1763
850,827,805,33.829,26.066,0.0218,-0.056,9.7901,-0.0549,-0.3511,0.0305
855,831,795,33.835,26.01,0.0885,-0.0079,9.8808,-0.0155,0.1577,0.716
860,833,795,33.814,25.907,-0.0683,-0.0315,9.8555,-0.309,0.1722,-0.0054
865,833,798,33.903,25.978,-0.0869,0.0353,9.7158,0.4335,-0.3453,0.5147
870,851,794,33.945,25.999,-0.0362,-0.0021,9.8405,-0.1163,0.629,-0.3143
875,861,790,33.929,26.052,-0.0089,0.0092,9.9112,0.0452,0.7557,-0.3523
880,856,793,33.919,25.91,0.0554,-0.0037,9.8254,0.2494,0.0965,0.103
885,883,788,33.904,26.022,0.017,0.0059,9.8945,-0.4333,-0.4978,0.0242
890,880,786,33.823,26.01,-0.0047,0.0026,9.6672,0.2163,-0.0061,0.1941
895,889,787,33.872,25.948,-0.0098,0.0756,9.8031,-0.2743,-0.536,-0.1524
900,900,786,33.818,26.054,-0.1454,-0.0586,9.7734,0.2617,0.243,0.3846
905,920,784,33.89,25.99,-0.0394,0.0416,9.8326,-0.2775,-0.0701,-0.1499
910,920,787,33.877,26.067,0.0319,0.0497,9.7897,-0.5068,-0.1903,0.593
915,932,776,33.822,26.067,0.0237,0.0176,9.7786,0.6857,0.7598,0.5573
920,937,782,33.967,26.007,-0.0273,0.105,9.7322,-1.3138,0.6265,1.0124
925,954,782,33.925,25.939,0.043,-0.0987,9.8331,0.5304,0.369,-0.0197
930,959,774,33.786,25.972,-0.0076,-0.0332,9.7767,0.4158,-0.9908,0.6531
935,977,771,33.881,26.04,0.0181,0.0377,9.7921,-0.2653,0.2082,-0.4099
940,993,770,33.915,26.036,0.0108,-0.0327,9.8082,0.4748,0.8166,-0.4847
945,997,771,33.882,25.986,0.1005,-0.0758,9.8159,0.596,-0.559,-0.9835
950,1000,767,33.884,26.006,0.0189,0.0197,9.8489,0.4686,-0.3632,-0.2774
955,1025,763,33.928,26.004,-0.035,-0.0576,9.7818,0.2059,0.4976,0.566
960,1020,772,33.87,25.981,-0.0491,-0.0424,9.8229,-0.3507,-0.5608,0.5354
965,1026,766,33.875,26.012,-0.0142,0.0241,9.8675,0.211,0.3008,0.3911
970,1045,766,33.827,25.897,0.1058,0.0158,9.8256,-0.6131,0.2839,0.3287
975,1053,766,33.918,26.061,-0.0234,-0.0351,9.8422,-0.2307,0.0518,-0.004
980,1059,761,33.887,25.963,0.0458,0.0456,9.7282,0.1504,0.599,-0.4441
985,1074,763,33.909,25.938,0.0009,-0.0102,9.7775,-0.3325,1.1058,-0.2928
990,1070,756,33.876,25.966,0.0617,0.001,9.8356,0.1227,-0.0988,0.0165
995,1085,764,33.827,26.002,0.0118,-0.091,9.7952,-0.7789,0.058,-0.0878
1000,1082,753,33.894,25.953,-0.0929,-0.1023,9.8602,-1.0112,-0.0442,-0.6399
1004,1103,754,33.921,25.923,0.0264,-0.0045,9.7277,0.4325,-0.2384,-0.2794
1010,1105,758,33.866,25.962,-0.0296,-0.0913,9.8131,0.3384,-0.1228,0.7722
1014,1108,755,33.861,25.998,0.0243,-0.0268,9.8777,-0.547,-0.232,0.4312
1020,1115,751,33.814,26.009,0.0818,0.0159,9.7889,0.5759,-0.0866,0.3321
1025,1130,756,33.851,25.98,-0.0267,0.0501,9.8237,-0.8721,0.0126,-0.4597
1030,1144,752,33.948,26.0,0.0989,0.0558,9.7685,0.5991,0.1464,0.989
1035,1144,755,33.91,25.987,-0.0142,0.0454,9.8025,0.3761,0.3884,0.2596
1040,1144,749,33.926,25.991,-0.0147,0.0185,9.7993,-0.1087,0.0956,-0.4815
1045,1150,755,33.974,25.972,-0.0236,-0.0434,9.7287,-0.5809,-1.1164,0.1332
1050,1151,749,33.926,26.044,-0.0665,0.0338,9.8316,0.5425,0.3215,0.022
1055,1166,748,33.849,25.938,-0.0311,0.0027,9.7874,0.4303,-0.689,0.3384
1060,1159,752,33.97,25.835,-0.0135,-0.0162,9.7953,0.0166,-1.4764,-0.3504
1065,1169,749,33.859,25.995,-0.0686,-0.0365,9.8438,-0.0173,-0.2205,0.1813
1070,1166,747,33.798,26.023,0.0211,0.0442,9.8757,1.0256,-0.9271,0.8038
1075,1178,746,33.853,26.103,0.0042,-0.0855,9.829,-0.7461,-0.0441,-0.3467
1080,1178,745,33.924,26.009,0.1067,-0.0422,9.835,0.5881,0.1484,-0.1802
1085,1175,751,33.872,26.021,-0.0763,-0.0376,9.7218,0.2736,-0.3974,-0.1276
1090,1186,751,33.933,26.008,0.0042,-0.0549,9.7948,0.7447,0.3327,0.9693
1095,1185,748,33.866,26.019,0.0832,0.0121,9.8181,-0.1498,-0.9272,-0.1816
1100,1178,757,33.863,26.009,0.0189,0.0178,9.788,0.9765,0.8175,-0.6226
1105,1189,752,33.872,25.928,-0.0393,-0.0178,9.7443,-0.0803,0.3772,-0.8647
1110,1190,754,33.973,26.042,-0.0481,0.0294,9.7874,0.2467,-0.6698,-0.2342
1115,1183,752,33.908,25.99,-0.07,-0.0846,9.7455,0.0184,-0.2459,-0.4957
1120,1182,752,33.881,26.031,0.0039,0.0966,9.8323,0.7587,-0.0019,0.0501
1125,1190,754,33.905,26.079,0.0358,-0.0183,9.697,0.0025,-0.0656,0.0348
1130,1179,753,33.898,25.988,0.0013,-0.0422,9.8479,-0.4051,-0.4281,0.0396
1135,1195,755,33.831,25.968,-0.0311,0.0298,9.8167,-0.0533,0.2634,0.0447
1140,1185,760,33.872,25.926,0.0471,0.0402,9.812,-0.2036,0.0719,-0.1595
1145,1179,759,33.969,26.024,0.0318,0.0315,9.7391,-0.3909,-0.0608,0.1203
1150,1180,753,33.915,26.082,-0.0278,0.0197,9.7553,-0.2537,-0.3005,-0.2781
1155,1173,759,33.898,25.986,0.0283,-0.0234,9.7835,0.5786,0.4323,-0.1449
1160,1187,759,33.846,25.987,-0.0349,0.0125,9.7969,-0.4744,-0.3016,-0.1525
1165,1181,766,33.902,25.997,-0.0627,0.0108,9.9212,-0.1557,0.0209,0.1332
1170,1185,764,33.917,25.954,0.0694,-0.0533,9.7398,-0.9131,0.3355,-0.6974
1175,1174,764,33.853,26.106,0.0148,-0.0215,9.7788,0.2845,-1.0484,-0.4214
1180,1169,765,33.845,25.978,0.0952,-0.081,9.8014,0.4352,-0.6704,0.21
1185,1170,770,33.98,26.042,0.0008,0.0499,9.7327,-0.4204,-0.3691,0.1218
1190,1168,776,33.892,25.927,0.023,-0.0036,9.8826,0.2338,-0.2186,-0.5559
1195,1166,772,33.944,25.95,-0.0215,0.0444,9.768,0.6094,-0.0937,0.1274
1200,1161,776,33.852,26.004,0.0398,0.0455,9.8328,0.4105,-0.2677,0.5672
1205,1175,776,33.915,26.036,-0.0034,0.0181,9.8447,-0.5484,0.7197,-0.199
1210,1158,786,33.859,26.033,0.0518,-0.0919,9.7808,0.636,-0.1249,1.3185
1215,1154,782,33.94,25.97,0.0405,-0.0081,9.6977,-0.4753,0.8577,-0.5009
1220,1151,784,33.83,26.036,0.032,-0.0815,9.802,0.4743,0.0282,0.3246
1225,1148,787,33.866,25.978,0.0066,0.1195,9.8845,0.5667,0.3478,-0.1745
1230,1154,787,33.921,25.993,0.0737,-0.0213,9.805,0.4037,-0.3027,0.0811
1235,1145,788,33.891,26.032,0.0493,-0.0132,9.8592,-0.44,-1.0652,0.1571
1240,1142,789,33.889,26.042,-0.0468,-0.0386,9.7599,0.6613,-0.6898,0.2757
1245,1143,793,33.813,25.936,0.0392,-0.0058,9.8308,0.439,0.1556,0.5174
1250,1135,794,33.933,25.932,-0.0041,0.008,9.7411,0.3433,-0.4313,-0.7759
1255,1136,794,33.788,25.967,0.0705,-0.0487,9.7348,-0.0643,0.0443,0.0759
1260,1132,797,33.896,25.936,0.0207,-0.026,9.767,0.0211,0.286,-0.4471
1265,1133,803,33.844,25.937,0.0547,-0.0316,9.806,0.1444,0.247,-0.5359
1270,1136,801,33.901,25.994,-0.0078,0.0053,9.7441,-0.267,-0.3873,-0.0468
1275,1123,803,33.817,26.068,0.0248,0.0451,9.8257,0.1285,0.4309,-0.1761
1280,1119,809,33.966,26.01,0.106,-0.0543,9.8334,-0.8442,-0.9762,0.8605
1285,1118,813,33.882,25.968,-0.0606,0.01,9.8648,-0.1984,-0.5258,0.7459
1290,1114,808,33.844,25.96,-0.0355,0.0005,9.8686,-0.6045,-0.4084,0.3936
1295,1114,811,33.867,25.962,-0.0201,-0.0806,9.7028,-0.474,0.1446,-0.2891
1300,1115,815,33.888,25.999,-0.0472,-0.0022,9.8672,-0.3323,0.1182,0.3274
1305,1113,813,33.941,26.104,-0.0478,-0.0464,9.8479,-0.1255,-0.1875,0.5349
1310,1107,818,33.909,26.0,0.0961,-0.0378,9.8153,-0.0238,0.2869,0.0333
1315,1099,822,33.897,25.918,-0.0307,-0.0228,9.6988,0.6675,-0.2141,-0.6306
1320,1103,818,33.857,25.989,-0.0156,-0.0003,9.7874,0.2659,-0.4599,0.676
1325,1091,823,33.899,25.965,-0.1508,0.0141,9.8287,0.3371,0.2257,0.1196
1330,1104,818,33.879,26.021,0.0343,-0.0384,9.781,-0.377,1.1839,-0.6146
1335,1095,824,33.873,26.008,0.0464,0.0835,9.9156,-0.3593,-0.0116,-0.4444
1340,1096,827,33.903,25.959,0.066,0.0166,9.8609,1.1062,0.2814,-0.7036
1345,1093,826,33.86,26.084,0.0086,0.0243,9.8972,-0.8502,0.3643,0.282
1350,1094,829,33.946,26.016,-0.0241,-0.0176,9.7283,0.1179,0.3206,0.6513
1355,1096,828,33.902,26.026,-0.0326,0.0302,9.8187,-0.1596,0.0074,0.3195
1360,1090,831,33.916,25.987,-0.083,-0.024,9.8898,0.3993,-0.0563,0.9709
1365,1091,833,33.85,25.943,-0.0502,0.0631,9.799,-0.1725,0.3802,-0.3011
1370,1084,833,33.933,25.968,-0.1086,-0.0087,9.776,-0.2857,-0.2255,-0.3798
1375,1077,832,33.937,25.98,0.0131,-0.0423,9.7873,0.511,-0.5881,0.8245
1380,1082,830,33.872,25.928,-0.0382,0.0072,9.8067,-0.697,0.8095,0.1484
1385,1074,836,33.971,25.968,0.0452,-0.0953,9.8077,0.507,0.1653,0.1561
1390,1087,836,33.879,25.962,0.012,0.0013,9.856,-0.2547,0.2187,0.1724
1395,1073,830,33.878,26.043,-0.0466,0.0788,9.7811,-0.3341,0.0952,-0.9316
1400,1075,836,33.892,25.944,0.0044,0.1278,9.7979,0.5343,0.3419,0.0261
1405,1066,835,33.798,26.009,0.0481,0.0177,9.792,0.5741,-0.379,1.2065
1410,1066,834,33.978,26.051,0.0672,0.0527,9.8915,-0.1856,-0.4271,-0.3388
1415,1064,839,33.879,25.957,0.0324,-0.011,9.843,0.0282,0.4163,0.631
1420,1063,842,33.927,25.962,0.0098,-0.0165,9.6938,0.4838,0.6498,-0.3783
1425,1057,834,33.898,25.924,-0.0028,0.0138,9.7698,0.6078,0.4408,-0.0707
1430,1064,839,33.881,25.87,-0.0447,0.0291,9.7692,-0.3701,0.0517,-0.1573
1435,1055,839,33.867,25.959,0.0391,0.0033,9.8124,-0.0069,0.1492,0.3727
1440,1054,838,33.83,26.069,0.0271,0.0185,9.8331,0.6138,-0.0105,-0.5301
1445,1056,836,33.942,25.991,-0.0666,-0.0122,9.8097,-1.0541,0.5359,0.8067
1450,1049,834,33.931,25.888,-0.041,-0.0548,9.7768,0.4687,0.5139,-0.0508
1455,1040,834,33.896,25.972,0.0328,0.057,9.8158,0.5306,-0.2177,-1.0036
1460,1031,840,33.9,26.014,-0.0337,0.1123,9.8223,0.839,0.3331,0.3571
1465,1035,843,33.9,25.91,0.011,0.0215,9.8415,1.1819,-0.0473,0.9953
1470,1028,841,33.812,26.009,0.007,-0.0673,9.8195,0.5258,-0.5645,-0.6767
1475,1028,840,33.876,26.072,0.1053,-0.0028,9.8388,0.0923,-0.0687,0.4727
1480,1015,839,33.933,25.955,0.0668,0.0319,9.774,0.4604,-0.5215,0.1148
1485,1010,836,33.88,25.977,-0.0015,-0.0084,9.7425,0.4817,-0.2192,-0.3772
1490,1002,841,33.908,25.995,-0.1299,-0.0549,9.8423,1.0577,-0.0915,0.6781
1495,1005,837,33.857,26.036,-0.0174,-0.0407,9.7939,0.025,-0.4854,-0.0523
1500,1005,832,33.788,26.08,0.0211,-0.0111,9.7551,-0.2745,0.6743,-0.3966
1505,997,831,33.811,25.946,0.0222,0.0275,9.7861,0.1373,0.4636,0.6041
1510,989,831,33.973,26.044,0.0128,-0.0309,9.8002,0.9246,-0.3534,0.6801
1515,994,829,33.868,25.957,-0.0053,-0.0214,9.8216,-0.0566,0.6555,0.5853
1520,984,830,33.878,26.039,-0.0649,-0.0015,9.9215,0.1289,-0.0025,0.9442
1525,976,830,33.867,25.994,0.1012,-0.0248,9.7425,0.226,-0.1604,0.9431
1530,962,838,33.9,26.032,-0.029,-0.0241,9.8323,-0.66,0.4575,-0.0501
1535,962,834,33.933,26.042,0.0919,-0.0416,9.8496,1.4164,0.7185,-0.2283
1540,960,830,33.906,26.001,0.0839,-0.0089,9.8505,0.2875,-0.0234,0.132
1545,950,828,33.865,25.938,0.0114,-0.0432,9.8085,0.8853,0.1833,-0.3464
1550,934,834,33.901,26.038,-0.0805,-0.073,9.8482,-0.1289,-0.1652,0.2681
1555,935,834,33.931,25.953,0.0354,0.0449,9.8147,-0.479,-0.5325,-0.9476
1560,929,832,33.954,26.03,0.0762,0.0544,9.8171,-0.4217,-0.4461,-0.1829
1565,914,827,33.881,25.991,0.0058,-0.0059,9.8441,0.2045,-0.024,-0.2958
1570,905,826,33.88,25.969,-0.1247,-0.0576,9.7788,0.5771,-0.1469,0.0653
1575,903,827,33.865,26.083,0.047,0.0056,9.7578,-0.0178,0.3689,-0.0385
1580,900,832,33.928,25.988,-0.0363,0.0042,9.783,0.3878,-0.3801,0.34
1585,883,829,33.845,25.928,-0.024,0.1342,9.7992,0.4039,0.6596,0.2793
1590,878,831,33.834,26.099,0.0031,0.0178,9.8392,-0.216,0.0786,0.2888
1595,878,830,33.938,25.943,-0.0141,0.0511,9.7776,-0.1378,-0.016,-0.1759
1600,858,828,33.894,26.042,-0.0131,0.0059,9.78,-0.1922,0.7572,-0.1432
1605,854,824,33.986,25.986,-0.0364,0.0231,9.7655,0.4796,-0.6476,-0.0615
1610,853,822,34.008,26.047,-0.1189,0.0208,9.8584,-0.3084,0.2501,-0.3955
1615,845,824,33.863,25.977,0.03,0.0023,9.757,0.5152,0.0281,0.2549
1620,837,825,33.921,25.898,-0.0414,-0.0443,9.8576,-0.063,-0.867,0.8227
1625,828,824,33.902,25.972,0.0897,0.0321,9.8689,0.7259,-0.3474,0.6821
1630,821,820,33.943,26.047,0.0109,-0.0934,9.691,0.7427,-0.0929,1.0379
1635,819,820,33.906,26.005,-0.101,0.0127,9.8211,-0.8422,0.7721,0.0125
1640,817,823,33.845,26.035,0.0555,0.1344,9.8792,-0.742,-0.7133,-0.1709
1645,801,820,33.864,25.986,0.0397,0.0007,9.8252,0.3526,0.4501,0.0218
1650,794,820,33.931,26.034,0.0601,0.0412,9.7922,0.2675,-0.8916,-0.0871
1655,788,820,33.937,26.072,0.0025,0.0153,9.7621,0.1593,0.1696,-0.5268
1660,787,811,33.891,25.981,-0.0043,-0.0384,9.8022,-0.2553,-0.427,0.0209
1665,788,818,33.825,26.009,-0.0709,0.021,9.7899,-0.0111,-0.0811,0.2496
1670,779,823,33.851,26.063,0.0254,-0.0637,9.7388,0.3492,0.4599,0.126
1675,775,817,33.952,25.966,0.0079,0.056,9.8172,-0.8364,0.8275,0.2458
1680,765,820,33.837,25.966,0.0398,0.0467,9.8223,0.3201,0.1989,-0.2333
1685,765,818,33.894,25.996,-0.0061,0.045,9.8626,0.2329,-0.0893,-0.2447
1690,764,815,33.964,25.958,0.0405,-0.0377,9.8195,-0.3513,-0.1094,-0.0233
1695,758,815,33.892,25.986,0.0791,0.0165,9.7755,-0.1984,-0.1156,-0.662
1700,750,813,33.882,25.922,-0.0123,0.0274,9.7651,-0.0175,-0.3779,-0.07
1705,754,812,33.918,25.958,-0.0855,0.0172,9.8388,-0.2634,0.8401,0.1101
1710,752,815,33.865,26.005,-0.0515,-0.0284,9.747,-0.7118,-0.0508,0.4209
1715,754,818,33.851,26.049,-0.026,0.0023,9.7632,-1.0942,-0.033,0.8417
1720,758,814,33.926,25.976,0.0111,-0.03,9.7541,0.6448,-0.2272,-0.7125
1725,757,814,33.877,26.003,0.0396,0.0228,9.7331,0.2459,0.6691,-0.3788
1730,754,813,33.888,25.978,-0.0551,-0.0386,9.8981,-0.0159,-0.3445,-1.0583
1735,746,816,33.88,26.069,-0.0043,0.0471,9.8736,0.4723,-0.0802,-0.3557
1740,742,811,33.861,26.016,-0.0316,-0.081,9.8029,-0.1195,0.1416,0.2515
1745,751,810,33.963,26.021,0.0086,0.0599,9.8233,0.3005,0.0969,-0.0238
1750,753,813,33.956,26.004,0.0067,0.0369,9.7773,0.7573,-0.1395,-0.5862
1755,753,811,33.897,25.998,-0.0348,-0.0045,9.8517,0.6618,-0.6467,-1.0756
1760,755,813,33.904,26.01,0.0878,0.0733,9.8216,-0.5207,0.1481,-0.0331
1765,758,809,33.794,26.09,0.0237,-0.0368,9.755,-0.1014,-0.6035,-0.1418
1770,757,805,33.866,25.981,0.0448,0.0975,9.8295,-0.7207,0.5529,0.2661
1775,765,806,33.93,25.992,-0.0314,-0.0949,9.9158,-0.2074,0.2649,0.4766
1780,762,804,33.878,25.972,-0.0492,-0.0092,9.7845,0.3453,0.5031,-0.1997
1785,780,808,33.897,26.063,0.088,-0.0976,9.7807,0.7271,-0.2464,-0.2758
1790,784,801,33.763,26.022,0.0532,-0.0188,9.8531,0.8208,-0.4655,0.5043
1795,786,801,33.904,25.966,0.0276,-0.1018,9.782,-0.2165,-0.4064,0.6578
1800,795,805,33.946,25.91,-0.0272,-0.0213,9.8333,0.0256,0.5994,1.3717
1805,799,805,33.956,25.979,-0.0536,-0.0147,9.7712,-0.7597,0.3172,0.7795
1810,801,799,33.936,26.042,-0.0317,-0.0295,9.8359,0.2656,-0.0133,-0.2725
1815,805,799,33.919,25.978,0.0204,0.022,9.7302,-1.0005,0.3165,-0.6928
1820,815,800,33.803,26.085,-0.0544,0.1225,9.785,0.1838,-0.4637,-1.5615
1825,822,798,33.937,25.997,-0.01,0.0029,9.856,-0.4149,0.6822,-0.4827
1830,837,800,33.809,25.938,-0.0289,0.0192,9.8233,-0.4459,-1.065,-0.7771
1835,834,798,33.891,25.951,0.003,-0.0663,9.7669,0.2039,-0.1396,0.7519
1840,849,799,33.892,25.974,0.0016,0.0386,9.7373,0.1169,-0.6102,0.1837
1845,849,793,33.912,25.966,0.074,0.0261,9.8418,-0.3163,0.1381,-0.4827
1850,862,796,33.966,25.931,0.0141,-0.0341,9.8294,-0.9296,0.3159,0.4776
1855,880,783,33.94,25.993,0.0348,0.0637,9.8153,0.9994,-0.444,1.1934
1860,885,785,33.89,26.12,-0.0569,-0.012,9.7335,0.5896,0.3216,-0.3008
1865,892,785,33.801,25.938,-0.0199,-0.0979,9.8201,0.1104,-0.3251,-0.6126
1870,900,787,33.84,26.073,0.0895,-0.0293,9.7575,-0.1762,-0.3339,-0.26
1875,912,787,33.948,25.918,-0.0291,-0.0043,9.8072,0.319,0.0158,-0.8272
1880,916,778,33.949,26.0,0.0684,-0.0005,9.878,-0.5524,-0.2732,-0.7091
1885,929,785,33.805,26.007,0.0293,-0.0185,9.8107,0.1338,-1.0981,0.417
1890,942,777,33.873,26.061,-0.0903,0.0033,9.8305,0.774,0.5898,-0.3152
1895,955,778,33.896,26.022,0.0393,-0.0155,9.8625,-0.0766,0.5716,-0.1038
1900,967,774,33.958,25.991,-0.013,0.0067,9.7599,-0.7105,-0.5931,0.041
1905,970,771,33.934,26.041,-0.0494,-0.0246,9.8179,0.1521,0.5029,0.153
1910,986,772,33.98,25.976,-0.0422,-0.0016,9.8759,1.0793,-0.1825,0.3275
1915,988,772,33.854,26.041,0.0523,-0.0164,9.8403,-0.9983,-0.3563,-0.0117
1920,996,773,33.88,25.984,0.0208,0.035,9.6929,0.274,-0.6505,0.234
1925,1019,772,33.786,26.001,0.0022,0.0014,9.8357,0.968,-0.2462,-0.1691
1930,1014,768,33.898,25.996,-0.0308,0.0431,9.8587,0.809,0.3434,-1.3298
1935,1030,768,33.84,26.085,0.025,0.0293,9.7143,-0.0161,0.018,0.0814
1940,1045,766,33.787,25.953,-0.0241,-0.0901,9.7968,0.791,0.1572,-0.0681
1945,1064,772,33.796,25.961,-0.0195,-0.0427,9.8917,0.1037,-0.478,0.0307
1950,1063,755,33.846,26.053,-0.0415,-0.0854,9.748,0.8841,-0.4043,-0.1641
1955,1064,761,33.866,26.027,-0.012,-0.0404,9.8615,0.2814,0.0701,1.1546
1960,1072,765,33.977,25.898,-0.0098,0.0244,9.7851,-0.3248,-0.2946,-0.0221
1965,1082,756,33.947,26.046,0.0621,-0.0487,9.7718,0.5126,-0.5492,0.2093
1970,1098,762,33.81,26.047,-0.0008,0.0375,9.7565,0.0923,0.7527,0.5869
1975,1114,753,33.941,25.981,0.0186,-0.0114,9.9204,0.3271,-0.0715,-0.7464
1980,1118,749,33.91,26.077,-0.0184,0.0265,9.8015,-0.7816,-0.1131,-0.273
1985,1116,750,33.833,26.051,0.0151,0.0146,9.8238,0.4744,-0.8337,0.2367
1990,1123,757,33.994,26.032,-0.0281,0.0154,9.774,0.2306,0.4803,0.1298
1995,1123,755,33.87,25.957,0.0642,-0.0159,9.8814,0.2822,-0.234,-0.6326
2000,1134,755,33.857,25.966,-0.0632,-0.0415,9.847,-0.1439,-0.146,0.9159
2005,1139,747,33.903,26.047,0.0361,0.0714,9.7413,-0.2909,0.0877,0.3325
2009,1133,753,33.874,26.042,0.0714,0.0807,9.8493,0.0476,0.1661,0.2419
2015,1153,751,33.914,25.955,-0.0426,-0.0855,9.813,0.4654,0.7864,-0.048
2020,1157,754,33.958,25.979,-0.0218,-0.0487,9.7865,-0.093,0.2099,0.5183
2025,1155,748,33.891,25.987,-0.0326,0.0262,9.8435,0.1211,-0.1192,-0.225
2029,1161,748,33.925,26.047,-0.0306,-0.0432,9.8742,0.869,-0.0792,0.1159
2035,1179,749,33.926,25.951,-0.0489,-0.0694,9.8165,1.2617,-0.4125,0.9914
2040,1172,749,33.915,26.054,-0.0706,-0.0782,9.8279,0.4908,-0.4898,-0.3448
2045,1178,747,33.962,26.061,0.0301,0.0459,9.7533,0.3009,0.1869,0.1802
2050,1173,747,33.879,25.995,0.0251,0.0815,9.7243,0.467,0.2437,-0.6936
2055,1182,748,33.879,25.958,0.035,-0.0302,9.79,0.1838,-0.0073,-0.5464
2060,1180,756,33.908,25.968,-0.0728,0.0543,9.8316,0.4784,0.7287,-0.243
2065,1187,753,33.839,25.983,-0.0499,-0.0388,9.6987,0.4581,0.1653,0.3937
2070,1184,747,33.894,26.035,-0.0776,0.08,9.8183,-0.3458,-0.9663,-0.2907
2075,1191,750,33.924,25.913,0.026,0.0348,9.8249,0.4437,0.6646,0.6317
2080,1178,751,33.932,25.982,0.0128,0.0395,9.7675,0.2072,0.0598,0.1566
2085,1187,752,33.866,26.058,-0.0031,0.0028,9.7438,-0.4463,1.4845,0.323
2090,1191,751,33.884,25.958,-0.1053,0.044,9.8797,-1.1977,0.5045,0.5061
2095,1182,756,33.921,25.969,-0.0584,0.0588,9.7885,-0.707,-0.0093,-0.3962
2100,1196,750,33.84,25.961,0.006,0.0343,9.8506,-0.6771,-0.1911,0.3216
2105,1186,754,33.97,26.037,-0.052,0.014,9.7635,-0.4598,-0.1792,-0.1226
2110,1193,755,33.736,26.073,-0.0291,-0.0777,9.6865,-0.2732,-0.5225,-0.4659
2115,1186,759,33.839,26.031,-0.0636,0.0259,9.8563,-0.0802,-0.2766,-0.3467
2120,1192,759,33.813,25.978,-0.0103,-0.0793,9.7814,0.3072,1.1057,0.1986
2125,1187,764,33.836,26.007,0.0288,0.0337,9.8947,0.2903,0.2736,0.3829
2130,1190,761,33.959,25.979,0.0259,0.0206,9.8254,0.3819,-0.1402,0.4508
2135,1173,766,33.877,25.991,0.0464,-0.0418,9.8278,0.3481,0.3393,-0.1916
2140,1188,769,33.958,26.028,0.0209,0.0174,9.7675,0.3163,-0.4041,0.0004
2145,1175,767,33.853,25.982,-0.0348,-0.0543,9.7432,-0.4005,-0.1583,0.1191
2150,1170,763,33.988,26.066,0.0871,0.0978,9.8019,0.6453,0.4048,-0.9846
2155,1178,774,33.966,25.975,-0.0272,0.0623,9.7639,0.452,0.6522,0.747
2160,1172,776,33.955,26.016,0.0963,0.0549,9.7423,-0.2507,0.5944,-0.2381
2165,1172,774,33.879,25.987,-0.024,0.0124,9.8032,-0.4519,0.9316,0.6769
2170,1163,774,33.842,26.005,-0.0282,-0.0893,9.8584,-0.0898,0.0042,-1.2689
2175,1166,776,33.838,25.859,0.0071,-0.0556,9.8899,-0.6386,-0.5161,-0.1183
2180,1161,781,33.907,25.93,0.0004,-0.0513,9.7589,-0.1152,0.2329,0.4857
2185,1153,782,33.872,26.033,-0.0245,-0.0098,9.8497,1.1168,-0.2266,-0.622
2190,1156,781,33.865,25.979,0.1017,-0.0322,9.8225,0.5334,-0.156,-0.6795
2195,1154,789,33.829,26.017,0.026,-0.0497,9.7771,0.6357,-0.2071,0.1425
2200,1144,785,33.87,26.002,0.0606,-0.015,9.7852,-0.2334,-0.5742,0.164
2205,1156,790,33.906,25.989,0.1064,0.0471,9.7699,-0.7341,0.4364,0.7188
2210,1141,788,33.852,25.971,0.0161,0.0775,9.796,0.1139,0.3708,-0.0254
2215,1137,797,33.864,25.983,0.015,-0.059,9.8136,-0.551,-0.5287,1.7492
2220,1136,794,33.917,26.064,-0.0189,0.0294,9.7555,0.0259,0.6475,0.3786
2225,1132,804,33.894,26.074,0.0668,-0.0606,9.8173,0.9703,-0.9346,-0.2068
2230,1141,799,33.842,26.074,-0.0112,0.0383,9.7865,-0.3541,-0.143,-0.1114
2235,1128,798,33.872,26.079,0.0324,-0.0736,9.8752,0.0002,-0.6993,0.6466
2240,1128,803,33.835,26.014,-0.0737,0.0176,9.8984,-0.0207,0.0469,-0.9895
2245,1118,809,33.883,25.983,-0.0608,-0.0618,9.84,0.237,0.6556,-0.4965
2250,1118,807,33.949,25.946,-0.1023,-0.0228,9.8509,0.0468,0.2503,0.0699
2255,1126,807,33.895,26.023,-0.1236,0.0334,9.7418,0.2569,-0.4892,-0.0235
2260,1117,813,33.841,26.004,-0.0503,-0.0106,9.8406,-0.9154,0.7719,-0.0049
2265,1117,810,33.854,26.005,-0.0435,-0.071,9.7995,-0.099,-0.4963,-0.3825
2270,1115,814,33.908,26.048,-0.076,-0.0558,9.7989,0.5695,0.1554,0.0243
2275,1104,818,33.909,26.031,-0.0353,-0.1,9.7559,-0.5829,0.3011,-0.6949
2280,1103,812,33.816,25.994,-0.0435,0.0285,9.8509,0.6235,-0.0789,0.0901
2285,1108,820,33.915,25.965,0.0447,0.0415,9.8852,-0.374,0.9239,-0.1957
2290,1102,823,33.942,25.935,0.0221,0.0107,9.8468,-0.1654,0.4102,-0.1402
2295,1110,821,33.905,25.97,0.0307,-0.0114,9.7963,0.4611,-0.1352,-0.0101
2300,1089,825,33.945,25.991,-0.0393,-0.092,9.8091,-0.0342,-0.1108,1.1972
2305,1100,823,33.877,25.981,0.0157,-0.0182,9.7845,0.666,0.696,-0.6347
2310,1091,828,33.911,25.946,0.0398,-0.002,9.7751,-0.1011,-0.8252,0.5944
2315,1089,832,33.92,26.032,0.011,0.0178,9.8096,0.552,-0.884,-0.4473
2320,1090,824,33.896,26.07,0.0265,-0.0262,9.8248,0.7157,-0.6824,-0.7225
2325,1075,831,33.916,25.971,-0.0412,-0.1296,9.8334,0.0413,0.2602,-0.0327
2330,1099,831,33.842,25.938,0.0518,0.0204,9.85,0.1248,0.3044,0.2842
2335,1082,832,33.882,26.073,0.0383,0.0637,9.8747,-0.0618,-0.0769,0.4455
2340,1086,835,33.857,26.015,0.0826,-0.0036,9.8379,-0.0852,0.2584,0.7854
2345,1083,835,33.986,25.997,-0.1187,-0.0621,9.7689,0.2781,-0.1799,-0.067
2350,1074,834,33.792,26.022,-0.0313,-0.0077,9.8478,0.5462,0.25,0.0619
2355,1086,841,33.923,26.016,0.0398,0.0023,9.8935,0.0833,-0.4363,-0.351
2360,1084,836,33.882,25.862,0.0225,-0.0862,9.8697,0.1769,0.6814,-0.8923
2365,1077,833,33.861,26.082,0.0108,-0.071,9.8782,-0.0551,-0.5272,-0.4357
2370,1072,837,33.902,25.986,-0.0331,-0.0288,9.7959,0.3399,-0.1961,-0.0552
2375,1071,838,33.891,26.061,0.0658,0.0066,9.8533,0.079,0.2995,0.182
2380,1074,841,33.897,26.097,0.0059,-0.0497,9.7793,0.8917,0.7718,-0.066
2385,1068,840,33.942,26.04,-0.0644,0.0201,9.8991,-0.3064,-0.6664,1.1837
2390,1059,837,33.9,25.991,0.0081,-0.0349,9.8014,-0.0893,-1.0124,-0.3099
2395,1062,839,33.923,26.026,0.0881,0.0052,9.7239,-0.0546,-0.5969,-0.1919
2400,1055,833,33.842,26.064,0.0019,0.0103,9.9018,0.2956,-0.2837,0.2165
2405,1054,836,33.968,26.028,-0.0113,-0.046,9.836,-0.7151,0.233,0.071
2410,1046,840,33.961,25.916,-0.008,-0.0114,9.8222,-0.9604,-0.1343,0.5334
2415,1047,836,33.878,26.029,0.0468,0.0227,9.8629,0.5798,0.5056,-1.3635
2420,1043,835,33.928,26.022,0.012,0.0439,9.7834,0.6144,-0.2756,0.1496
2425,1042,835,33.948,25.997,0.0282,-0.0355,9.8071,0.352,-1.0123,-0.9697
2430,1036,841,33.847,25.959,-0.0086,-0.0457,9.9133,-0.1002,-0.1188,-0.4216
2435,1044,836,33.943,25.953,-0.0293,0.0054,9.8014,0.242,0.0123,0.4915
2440,1031,836,33.964,26.006,0.0664,-0.0339,9.9133,0.5787,0.1901,0.0613
2445,1030,835,33.903,25.973,0.0265,-0.0884,9.7804,-0.1461,-0.0423,0.0252
2450,1016,835,33.923,26.069,0.1071,0.0632,9.726,0.7076,-0.5548,-0.0484
2455,1020,832,33.869,26.101,0.0311,0.0092,9.7659,-0.1714,-0.0455,0.5076
2460,1011,836,33.881,25.999,0.0564,-0.0178,9.8343,-0.2229,-0.5028,-0.0137
2465,1011,834,33.893,26.024,0.0757,-0.0065,9.8131,-0.1966,-0.5908,-0.5961
2470,1001,834,33.918,26.01,-0.0382,-0.0486,9.9341,0.3354,-0.3915,-0.1655
2475,997,831,33.88,26.075,0.0525,0.0751,9.9297,-0.3761,-0.5772,-0.0541
2480,998,830,33.909,25.953,-0.0866,0.0241,9.7834,-0.1393,0.6082,-0.2055
2485,982,831,33.849,25.974,0.0349,-0.0044,9.8294,-0.4451,0.009,-0.226
2490,971,836,33.869,25.998,0.0217,0.0341,9.806,1.3459,-0.5118,0.5245
2495,977,830,33.816,26.037,-0.0773,0.0975,9.7838,0.1242,0.5493,0.6063
2500,964,827,33.917,25.999,-0.0303,-0.0269,9.8633,0.5902,0.1813,-0.0004
2505,960,834,33.886,25.996,0.0124,0.0882,9.7148,0.0097,-0.8654,-0.2213
2510,957,827,33.907,25.997,-0.0177,0.0583,9.7316,0.0912,0.2553,-0.098
2515,952,831,33.894,25.96,0.0006,0.0627,9.8356,-0.5096,-0.2535,-0.1919
2520,942,825,33.889,26.07,0.0531,-0.048,9.7564,0.4619,-0.3193,-0.0457
2525,933,826,33.898,25.997,-0.0566,0.0359,9.836,0.1897,0.6306,0.7183
2530,931,819,33.949,25.944,-0.0,0.0432,9.794,-0.1356,0.0954,-0.3563
2535,912,828,33.852,26.044,0.0314,-0.0463,9.8247,-0.3085,-0.0165,0.0767
2540,916,828,33.815,25.997,-0.0402,-0.0364,9.9063,0.1603,0.0094,0.5661
2545,905,824,33.824,25.963,0.0664,0.0154,9.8701,-0.0248,0.0492,0.0776
2550,892,827,33.868,25.936,0.1029,-0.1477,9.7542,0.0324,-0.2381,0.4289
2555,889,821,33.972,26.013,-0.042,0.0236,9.8446,0.3658,-0.1221,-0.6629
2560,886,824,33.923,25.908,0.005,0.0782,9.8341,0.111,0.8813,-0.9166
2565,877,826,33.779,26.035,0.0296,0.0445,9.818,-0.1586,0.4866,-0.0875
2570,869,821,33.955,25.995,0.0553,-0.0646,9.8243,-0.7926,0.2977,-0.1194
2575,854,823,33.904,26.019,0.0251,0.0701,9.7641,-0.0055,0.2943,0.43
2580,856,828,33.818,26.055,-0.0616,0.107,9.8574,0.0348,0.7906,0.2532
2585,841,821,33.955,26.048,-0.0628,-0.0319,9.8364,1.0999,0.0305,-0.6578
2590,844,820,33.92,26.063,-0.0068,-0.0164,9.7596,-0.4327,-0.0224,-0.0061
2595,828,823,33.943,26.073,0.0412,-0.0155,9.8484,-0.8302,0.0281,-0.1005
2600,829,826,33.834,26.02,0.0514,0.0596,9.8494,-0.3593,0.6254,0.5403
2605,808,820,33.975,25.965,0.0767,-0.0793,9.7579,-0.1055,-0.9094,-0.2705
2610,798,823,33.897,25.957,-0.0032,0.0799,9.8705,0.3095,-0.233,0.2663
2615,804,819,33.846,25.998,-0.0087,0.0528,9.7914,0.7903,-0.3293,-0.0037
2620,804,817,33.865,25.992,0.0035,0.0268,9.8886,-0.1936,0.5859,1.1935
2625,794,816,33.904,26.052,0.0156,0.0318,9.8707,-0.6685,-0.0232,-0.0098
2630,784,817,33.929,26.092,-0.0367,-0.0086,9.8426,0.1494,1.0582,-0.2372
2635,786,816,33.966,25.944,0.0004,0.0337,9.7973,0.2658,0.4409,-0.1511
2640,776,819,33.938,26.039,0.0272,-0.0756,9.8216,-0.7735,0.0684,-0.5012
2645,775,817,34.004,25.988,0.099,0.0102,9.8625,0.3063,-0.7797,-0.3125
2650,770,817,33.914,25.911,-0.0694,0.0692,9.8594,-1.0807,0.2543,0.2926
2655,770,819,33.863,26.033,0.0016,0.0519,9.8143,-0.0256,0.1316,0.6492
2660,764,819,33.946,25.937,0.0888,-0.0084,9.8231,0.9163,0.0441,-0.3297
2665,764,810,33.868,26.072,0.0157,0.0529,9.8703,-0.088,-0.5638,-0.5971
2670,755,816,33.887,26.05,-0.0145,-0.0187,9.7833,0.474,0.4915,-0.4513
2675,749,813,33.859,26.048,0.0083,-0.0492,9.7738,-0.8006,-0.1545,-0.0675
2680,748,814,33.897,26.07,0.0049,-0.0647,9.7574,-0.2071,-0.0669,0.1705
2685,755,813,33.856,26.037,0.0088,0.0139,9.8482,-0.0043,1.2615,0.4326
2690,752,816,33.921,26.048,0.0405,-0.0202,9.8414,-1.1714,-0.0072,-0.0829
2695,746,810,33.859,25.909,-0.0984,-0.0883,9.8212,0.3896,-0.9986,0.3075
2700,743,812,33.974,25.998,0.0236,0.0142,9.8735,0.0272,0.127,0.0604
2705,746,816,33.855,26.038,-0.0332,-0.0395,9.7495,0.6834,0.1566,0.4426
2710,751,812,33.849,26.158,0.0066,0.0264,9.8491,-0.0824,-0.1304,0.0434
2715,745,810,33.944,26.079,0.0035,0.0118,9.8215,-0.6443,0.0627,-0.2543
2720,746,810,33.921,26.052,-0.0353,0.0671,9.7959,0.2661,0.1671,0.6615
2725,748,813,33.909,25.931,-0.0328,-0.0856,9.7328,-0.4123,0.0559,0.3352
2730,745,809,33.838,25.901,0.049,-0.0378,9.8298,-0.1193,0.2504,0.042
2735,761,811,33.897,25.97,-0.0023,-0.0649,9.7679,0.7039,0.03,-0.1039
2740,758,806,33.962,25.937,-0.0421,0.0422,9.858,-0.0799,0.2027,-0.3374
2745,768,806,33.857,26.067,0.0631,0.0227,9.8133,-0.5848,-0.2748,-0.2822
2750,771,801,33.866,26.002,-0.075,0.0431,9.6875,-0.3528,0.2693,0.1491
2755,783,808,33.854,26.044,0.0295,0.0305,9.8751,0.3064,-0.1586,-0.4577
2760,774,810,33.935,26.018,-0.0273,0.1226,9.7427,0.0165,0.5186,0.5873
2765,783,797,33.886,25.992,0.0387,-0.0418,9.8517,-0.0632,-0.4022,-1.0175
2770,784,810,33.933,26.012,-0.1425,-0.1088,9.7637,0.4258,0.1198,-0.2219
2775,793,806,34.001,25.989,-0.0611,0.0067,9.7726,-0.5267,0.0298,-0.1253
2780,801,801,33.946,26.037,0.0029,0.091,9.756,1.0631,0.8007,-0.1266
2785,811,793,33.846,26.012,-0.0074,0.0339,9.7801,0.0598,0.9073,-0.5157
2790,816,801,33.923,25.956,-0.0386,0.118,9.7181,-0.7551,0.6197,0.0295
2795,813,800,33.928,25.998,-0.005,0.0304,9.8578,-0.1719,1.3315,0.3967
2800,830,802,33.732,26.038,0.0655,-0.037,9.7815,-0.2479,0.0114,-0.5788
2805,850,797,33.905,26.014,-0.0264,-0.0369,9.8275,-0.9523,0.6675,-0.5385
2810,857,785,33.885,25.971,-0.0243,-0.0242,9.7806,-0.9093,-0.2027,-0.1777
2815,848,794,33.939,25.948,-0.0215,-0.1468,9.828,-0.0443,-0.37,0.3787
2820,863,790,33.972,26.012,0.0151,0.0732,9.8272,0.1104,0.3981,-0.2097
2825,871,786,33.898,26.006,-0.0358,-0.0357,9.8812,-0.1858,0.3584,-0.3905
2830,887,791,33.915,26.005,0.0519,0.002,9.8256,0.0146,-0.5137,-0.1247
2835,900,788,33.864,26.064,-0.045,0.0621,9.815,0.357,0.4844,0.1629
2840,895,783,33.967,26.03,-0.0151,0.0279,9.8899,-0.2269,0.4919,-0.7623
2845,914,783,33.833,25.977,-0.0301,0.1586,9.7451,0.3607,0.3652,-0.5772
2850,929,780,33.782,26.058,-0.038,-0.059,9.8391,-0.612,-0.2875,0.407
2855,935,784,33.904,25.991,-0.022,0.0019,9.7914,0.4325,-0.4237,0.2357
2860,937,784,33.935,26.059,0.0604,-0.108,9.8086,0.7541,-0.4652,-0.2823
2865,958,778,33.892,25.958,0.0424,-0.0054,9.7237,0.0778,-0.2005,0.6205
2870,958,778,33.902,26.058,-0.0192,-0.053,9.7803,-0.2287,0.1482,-0.7101
2875,976,781,33.811,25.988,0.0225,-0.0062,9.7516,0.2654,0.6141,-0.8503
2880,992,773,33.895,25.979,-0.0705,0.0121,9.8381,0.7907,-0.4815,0.2647
2885,998,774,33.846,25.978,-0.0028,0.065,9.759,0.2772,0.1071,0.1095
2890,1005,775,33.925,25.993,-0.041,-0.0053,9.7343,-0.2387,0.1862,0.1059
2895,1020,773,33.829,25.965,-0.0002,-0.029,9.7611,0.8157,-0.0903,-0.9226
2900,1019,772,33.846,26.021,0.0468,0.065,9.9149,0.1151,0.4867,-0.8389
2905,1043,766,33.909,25.981,0.0657,0.0337,9.8246,-1.0522,0.3184,-0.2396
2910,1046,762,33.767,26.006,0.0112,0.0118,9.7804,0.8329,-0.1463,-0.1675
2915,1053,762,33.96,26.186,0.0137,-0.0004,9.8003,0.6995,-0.4055,0.4603
2920,1054,764,33.816,26.052,-0.0203,0.0066,9.7604,-0.4485,-0.6647,-0.4677
2925,1064,756,33.971,26.058,-0.0475,0.0054,9.8216,-0.7368,-0.8581,0.8135
2930,1069,762,33.877,26.024,0.0594,-0.0033,9.806,0.4327,0.3645,0.2329
2935,1087,755,33.885,26.064,-0.0271,-0.0773,9.8725,0.7961,0.0334,-0.122
2940,1097,758,33.918,26.077,0.0166,0.0424,9.8439,-0.2509,0.1879,0.3169
2945,1099,757,33.861,25.962,0.0081,-0.0505,9.8738,0.3238,-0.4686,-0.1764
2950,1100,755,33.949,25.981,0.025,0.0676,9.78,0.0075,-0.354,0.1084
2955,1116,757,33.835,26.005,0.0251,-0.0104,9.763,-0.4302,0.1408,-0.703
2960,1128,756,33.903,25.98,0.0305,-0.0141,9.8039,-0.5457,0.1566,-0.5895
2965,1129,757,33.978,26.091,0.0159,0.0296,9.8506,0.3663,-0.0105,-0.161
2970,1132,752,33.86,26.034,-0.0017,0.007,9.7814,0.2876,0.3516,0.2578
2975,1144,751,33.897,26.026,-0.0466,-0.0109,9.8574,-0.8092,-0.189,0.1788
2980,1141,752,33.852,26.052,-0.126,0.0354,9.7959,0.0541,-0.5538,-0.3618
2985,1147,749,33.918,26.007,0.0542,-0.0503,9.7464,-1.586,-0.4041,-0.9281
2990,1163,749,33.866,25.872,0.0142,-0.0346,9.8199,-0.2997,-0.647,-0.0517
2995,1160,750,33.92,25.976,0.0068,0.0215,9.864,-0.1071,-0.8875,-0.0889
3000,1171,748,33.878,25.981,0.0502,-0.0069,9.7964,0.2369,-0.3513,0.6665
3005,1177,746,33.93,26.01,-0.0262,-0.0628,9.8363,-0.0378,-0.1463,0.0101
3010,1178,746,33.908,25.997,0.0006,-0.0408,9.7684,-0.2472,0.5539,-0.4664
3015,1175,754,33.883,26.018,0.0515,-0.0046,9.8611,-0.131,0.8709,-0.0597
3020,1176,750,33.895,25.974,-0.0542,-0.0674,9.739,-0.3495,0.6941,0.1961
3025,1180,752,33.918,26.021,-0.1019,0.0259,9.7378,-0.8888,0.0205,-0.7991
3030,1183,752,33.891,26.006,0.0297,-0.0037,9.7946,-0.6332,0.0029,0.294
3035,1176,748,33.911,25.946,-0.0011,0.0126,9.7795,-0.2456,-0.7438,-0.4047
3040,1181,747,33.842,26.071,0.1082,-0.0057,9.7617,0.3474,0.6801,0.2237
3045,1179,753,33.892,25.984,0.0457,-0.0355,9.7683,-0.291,0.8277,0.1706
3050,1183,750,33.909,26.008,0.0475,-0.0384,9.8003,0.6716,0.052,0.1226
3055,1185,751,33.892,26.031,-0.0951,0.1331,9.751,0.2718,0.3894,-0.2352
3060,1186,751,33.946,26.065,0.0095,0.0171,9.8255,-0.5457,0.4079,-0.7385
3065,1194,757,33.951,25.984,-0.0479,0.0991,9.773,1.2628,0.4781,0.2344
3070,1188,755,33.92,26.011,0.0357,-0.0226,9.6792,0.0157,-0.0458,0.2536
3075,1187,752,33.853,26.021,0.0025,-0.0153,9.8404,-0.3434,-0.4309,0.3319
3080,1192,755,33.962,25.979,0.0105,-0.0179,9.776,0.4076,-0.3152,-0.1959
3085,1184,755,33.979,26.044,-0.0411,-0.0298,9.8119,-0.0816,0.0974,-0.3898
3090,1184,754,33.947,26.017,0.0653,-0.0408,9.8233,-0.0698,-0.1021,0.4022
3095,1183,758,33.808,26.024,0.0111,0.0712,9.8607,-0.6971,-1.1879,0.7741
3100,1180,763,33.848,26.007,-0.0063,0.1009,9.8811,-0.4988,-0.4705,0.1996
3105,1174,763,33.891,25.947,0.0395,-0.025,9.8779,-0.4903,-0.0925,0.0887
3110,1175,763,33.964,25.981,-0.0145,-0.0028,9.8122,0.1045,0.0103,0.2138
3115,1169,758,33.89,26.042,0.0278,-0.0462,9.8836,-1.0467,0.3095,-0.4299
3120,1171,766,33.883,25.928,0.0685,-0.0147,9.7817,-0.3437,-0.2718,0.6583
3125,1169,765,33.887,26.034,-0.0369,0.0403,9.8127,0.0307,-0.2588,0.7603
3130,1166,769,33.949,26.051,0.0267,-0.0101,9.8066,0.0831,0.0668,-0.0809
3135,1161,774,33.943,26.002,0.075,-0.059,9.9375,0.3324,-0.2862,1.1084
3140,1161,777,33.969,25.953,0.0288,-0.0022,9.8536,-0.1674,-0.059,-0.3922
3145,1165,778,33.872,25.998,-0.0079,0.0983,9.8248,-0.3244,-0.7529,0.2473
3150,1146,780,33.847,26.01,-0.0393,-0.0346,9.7874,0.5751,0.5377,0.6927
3155,1155,781,33.869,25.984,0.051,0.017,9.8633,0.0913,0.1606,0.6121
3160,1150,783,33.847,25.992,-0.0223,-0.0558,9.7307,0.514,0.3994,0.0016
3165,1153,787,33.974,25.981,0.0233,0.0348,9.8424,-0.0275,-0.013,0.1026
3170,1144,791,33.95,25.978,0.0122,-0.0737,9.8213,0.1281,-0.4532,-0.1505
3175,1143,786,33.848,26.029,-0.0532,-0.0115,9.6754,-0.485,0.157,-0.6074
3180,1149,791,33.887,25.955,-0.0047,-0.0295,9.7325,-0.2463,-0.456,-0.4989
3185,1142,797,33.866,26.036,0.0519,-0.1124,9.8724,0.6403,-0.0356,0.6489
3190,1131,791,33.835,26.051,0.0038,-0.0535,9.8296,-0.8577,-0.1248,-0.983
3195,1137,794,33.903,26.103,0.0144,-0.0691,9.7292,0.9902,-0.2935,-0.6076
3200,1128,801,33.946,25.966,0.111,-0.0557,9.7818,0.7172,0.6056,-0.7379
3205,1125,799,33.879,26.056,0.0128,0.048,9.7921,0.1407,-0.271,-0.9841
3210,1122,801,33.867,25.847,-0.0272,0.0307,9.8844,-0.085,-0.0544,0.3664
3215,1131,806,33.959,26.057,0.0589,0.027,9.6685,-0.1837,0.0194,0.7381
3220,1130,807,33.877,26.046,-0.0393,0.0334,9.7866,-0.6869,-0.4926,-0.022
3225,1112,806,33.939,26.027,0.0493,-0.0074,9.8308,-0.4357,-0.0618,1.0791
3230,1114,807,33.941,26.01,-0.0381,-0.0174,9.8352,0.2919,0.1639,-1.173
3235,1104,805,33.878,26.042,0.0528,-0.0899,9.7591,-0.0116,-0.1748,0.1213
3240,1113,813,33.89,25.918,0.0815,-0.0315,9.8102,-0.0171,-0.275,-0.5138
3245,1102,816,33.888,26.019,0.0495,0.0386,9.8268,-0.966,0.122,-0.3058
3250,1120,819,33.929,25.957,0.0016,0.0485,9.8901,0.8493,-0.3389,-0.6347
3255,1113,813,33.92,26.013,-0.0392,0.0034,9.8715,-0.0883,1.2444,-0.2266
3260,1098,824,33.912,26.083,0.0957,0.0598,9.7825,-0.2113,-0.2307,-0.7932
3265,1100,819,33.923,26.093,-0.0846,-0.1384,9.768,-0.2922,0.2862,0.0571
3270,1104,818,33.886,26.001,0.0434,-0.0283,9.8453,-0.0988,-1.2305,0.0057
3275,1098,823,33.891,26.055,-0.0267,-0.0364,9.8475,-0.0365,-0.4766,-0.6914
3280,1092,824,33.961,26.046,0.0041,-0.0625,9.8939,-0.1627,-0.3314,0.024
3285,1093,823,33.851,25.972,-0.0193,0.0822,9.7967,0.4588,0.9031,0.0502
3290,1092,827,33.881,25.973,0.0252,0.0615,9.7831,0.8345,-0.23,0.6075
3295,1088,829,33.875,26.093,0.0009,-0.0028,9.8177,-0.3528,0.2575,0.5987
3300,1083,831,33.928,26.039,0.0199,-0.0247,9.8512,-0.9596,0.953,0.1899
3305,1093,832,33.853,26.007,-0.1166,0.0312,9.9095,0.6616,0.4523,0.3964
3310,1088,830,34.031,25.979,-0.0024,-0.0488,9.8144,-0.6789,0.1481,1.3979
3315,1081,835,33.898,26.002,-0.0079,0.1048,9.7515,0.8245,-0.128,-0.1054
3320,1081,835,33.895,26.022,-0.0059,0.0091,9.813,0.2948,0.6346,-0.3941
3325,1078,834,33.863,26.078,-0.0861,0.0771,9.7418,0.6294,-0.7844,0.0848
3330,1086,830,33.876,26.02,-0.0381,0.0044,9.7018,-1.0021,0.5315,-0.667
3335,1086,840,33.839,25.88,-0.0183,-0.0362,9.8642,0.0812,0.7001,-0.024
3340,1073,836,33.805,26.047,-0.0308,-0.0167,9.7644,-0.121,-0.1896,0.3553
3345,1071,837,33.932,25.948,0.0002,0.0366,9.741,-0.7403,0.0356,-0.317
3350,1067,838,33.898,25.993,0.0578,0.0158,9.779,-0.5874,-0.623,0.2209
3355,1069,840,33.836,25.937,-0.0185,-0.02,9.7898,-0.4131,-0.3971,0.5846
3360,1061,840,33.903,26.058,-0.0195,-0.0168,9.8938,0.1631,-0.3609,0.0432
3365,1056,837,33.894,26.039,0.0405,-0.0384,9.7991,-0.2888,-1.1335,-0.0214
3370,1066,835,33.96,25.986,0.0586,-0.0978,9.7263,0.318,0.1006,1.1218
3375,1067,838,33.885,26.002,0.0209,-0.0184,9.7464,0.4219,0.1922,-0.0343
3380,1055,840,33.974,26.026,0.0088,-0.0372,9.8092,-0.0016,0.2393,-0.2075
3385,1052,841,33.884,25.978,-0.0321,-0.0022,9.7923,0.423,-0.27,-0.5572
3390,1046,838,33.843,26.062,0.0068,0.048,9.7691,0.5199,0.3839,-0.3561
3395,1047,835,33.818,25.977,-0.0017,0.0462,9.8851,-0.0831,0.768,0.4184
3400,1045,840,33.951,26.022,0.0682,0.0058,9.8364,0.3242,0.8006,-0.0912
3405,1043,836,33.947,26.048,-0.0712,0.047,9.8222,0.7733,0.969,-0.4173
3410,1036,835,33.882,25.929,-0.0003,-0.059,9.8508,-0.8395,-0.5972,0.1342
3415,1027,835,33.947,25.933,0.0833,-0.0133,9.7996,0.2487,-0.2067,1.4149
3420,1013,837,33.972,26.017,0.0056,0.0073,9.855,0.1968,0.1545,-0.1291
3425,1013,835,33.926,26.001,-0.0383,-0.0076,9.7471,-0.0941,-0.3056,0.7311
3430,1008,834,33.842,25.987,-0.0094,-0.0399,9.8526,0.5994,0.2216,0.5723
3435,1011,836,33.982,25.913,0.06,0.0075,9.9232,0.4899,0.103,0.6737
3440,1001,835,34.008,25.923,-0.0347,0.0436,9.7156,0.3006,1.0351,0.6727
3445,995,836,33.923,25.995,-0.0393,0.0257,9.8793,0.8208,0.805,0.237
3450,997,832,33.834,25.985,0.0018,-0.0215,9.828,0.5688,0.0063,0.0462
3455,981,835,33.996,25.972,-0.0526,0.0048,9.722,0.4271,0.4787,-0.0551
3460,977,835,33.86,25.909,-0.0495,-0.0489,9.8141,-0.4031,0.1164,-0.2969
3465,973,831,33.947,26.139,-0.0276,-0.0563,9.8591,0.5067,0.095,0.5182
3470,973,832,33.947,25.983,0.0219,-0.0031,9.8455,-0.8266,-0.1187,0.6957
3475,958,831,33.871,26.098,0.0357,0.0685,9.8453,-0.3677,0.2855,-0.066
3480,955,827,33.988,26.029,0.1289,0.0296,9.8003,-0.2824,0.0858,-0.398
3485,941,830,33.905,26.037,-0.026,-0.0768,9.8534,0.0768,0.377,0.0422
3490,945,828,33.895,26.022,0.0346,0.0213,9.8808,0.9523,-0.1269,-0.5179
3495,927,827,33.92,26.023,-0.0395,0.0142,9.8993,0.1054,0.7468,-0.078
3500,924,824,33.852,25.944,0.0197,0.036,9.8024,-0.6399,-0.6708,-0.0123
3505,910,826,33.895,25.99,-0.0196,-0.041,9.7788,-0.4553,0.468,0.3156
3510,911,823,33.921,25.952,0.0238,-0.0017,9.891,0.8006,-0.5237,-0.905
3515,909,826,33.857,26.034,0.0267,0.0015,9.9056,0.0948,0.8024,1.5429
3520,893,826,33.912,25.967,-0.0013,0.0306,9.8183,0.4357,-0.094,-0.3469
3525,885,824,33.864,26.033,0.051,0.1081,9.8619,-0.3186,0.6347,-0.897
3530,887,827,34.082,25.892,-0.0989,-0.0332,9.8305,0.0383,-0.228,-0.0345
3535,867,821,33.949,26.016,-0.0941,-0.034,9.8044,0.3726,-0.5415,-0.3744
3540,867,818,33.876,26.112,-0.0786,0.0516,9.7045,0.4747,-0.2905,0.2011
3545,856,822,33.923,26.101,0.0014,-0.0084,9.6825,0.7084,0.6973,-0.6508
3550,859,816,33.887,26.083,-0.054,0.0173,9.8196,0.5058,0.2769,-0.4184
3555,841,827,33.873,25.95,0.0599,0.0362,9.7772,-0.4625,-1.1554,1.1101
3560,837,820,33.948,25.958,0.0305,-0.031,9.775,-0.0685,0.0109,0.3197
3565,827,820,33.861,26.069,0.0495,0.0015,9.9232,-0.1271,1.3042,-0.0057
3570,818,827,33.958,26.009,0.0374,0.0075,9.8034,-0.3511,-0.2308,-0.1427
3575,815,822,33.922,26.062,0.0913,-0.0467,9.8596,-0.747,0.394,-0.0324
3580,811,825,33.898,25.983,0.0484,-0.0193,9.9155,0.9072,0.1837,0.1868
3585,798,818,33.892,26.009,-0.0327,0.1301,9.7834,-0.1661,-0.086,-0.2454
3590,799,819,33.983,26.046,-0.0142,0.02,9.7617,-0.8097,0.6313,-0.2707
3595,792,821,33.87,26.014,0.0629,0.0689,9.7609,-0.1025,0.4707,-0.5422
3600,789,818,33.955,25.993,-0.0024,0.0167,9.8317,1.2229,-0.2843,0.3743
3605,776,818,33.937,26.064,0.0276,-0.061,9.8863,0.2111,-0.1406,-0.0527
3610,780,813,33.852,26.077,-0.0361,0.074,9.8547,0.4833,0.3165,-0.6261
3615,769,821,33.903,26.044,-0.1149,-0.0403,9.8158,0.1952,-0.3706,-0.1698
3620,764,818,33.882,25.963,-0.0045,0.0303,9.9065,0.7442,-0.6583,-0.5731
3625,772,816,33.927,25.893,0.07,0.0341,9.8302,-0.1959,0.5401,0.4977
3630,761,815,33.818,26.055,0.0223,-0.1048,9.7353,1.1185,-0.3227,-0.1283
3635,767,815,33.879,26.073,0.0065,0.0251,9.8502,0.4424,0.4303,0.1343
3640,747,814,34.02,26.091,-0.0106,-0.0758,9.8713,-0.8682,0.3842,0.0404
3645,746,817,33.933,26.027,-0.0027,0.0486,9.8563,-0.0031,0.4589,0.049
3650,747,818,33.953,26.002,0.0244,0.0332,9.8766,0.2081,-0.5155,-0.1181
3655,742,815,33.887,26.0,-0.0035,-0.0433,9.8835,-0.2165,-0.2898,-0.166
3660,754,809,33.94,26.054,-0.0921,0.0043,9.838,-0.2134,0.1269,0.4102
3665,747,812,33.877,25.992,-0.0023,-0.0911,9.7277,0.1846,0.0413,-0.351
3670,753,809,33.865,26.018,0.0602,-0.1065,9.8014,0.518,-0.2214,-0.2426
3675,756,811,33.88,25.958,0.0452,0.0721,9.8166,-0.6634,0.0349,0.1238
3680,746,812,33.912,25.921,0.0117,0.0774,9.7773,-0.142,0.2287,0.0858
3685,745,812,33.93,25.991,-0.0264,0.0733,9.803,0.5085,-0.0054,-0.1463
3690,750,809,33.968,25.981,-0.0698,-0.0347,9.7202,-0.9378,-0.0959,0.025
3695,754,813,33.911,25.982,0.0229,-0.0052,9.8517,0.528,0.1916,0.7863
3700,755,815,33.844,26.068,0.0575,0.0122,9.8086,-0.6371,0.6461,0.1438
3705,760,811,33.991,26.018,0.0559,0.103,9.7974,-0.0134,0.0309,-0.8083
3710,758,805,33.934,25.837,0.0972,0.0056,9.8649,0.1639,0.1764,0.1811
3715,756,812,33.796,26.005,0.0577,0.065,9.7753,0.1721,-0.2039,0.0821
3720,775,807,33.817,26.007,-0.0173,-0.0444,9.8388,0.1521,-0.3174,-0.3304
3725,769,806,33.923,26.011,-0.0019,-0.0538,9.8952,0.0704,-1.225,0.5908
3730,774,803,33.917,25.94,0.0042,-0.0084,9.8918,0.4033,0.4487,0.1845
3735,783,802,33.874,26.068,-0.0065,0.0244,9.7839,-0.7349,0.377,0.4074
3740,797,803,33.948,25.861,-0.0494,-0.0065,9.8987,0.0922,0.1192,0.3978
3745,798,800,33.998,26.053,-0.0437,0.0486,9.8129,0.4492,-0.5763,-0.9321
3750,797,808,33.995,25.986,0.0211,-0.0047,9.8488,-0.386,0.2974,0.0795
3755,811,797,33.843,26.039,0.0209,-0.017,9.739,0.1626,0.0889,0.1869
3760,809,795,33.957,25.929,0.1073,0.0299,9.8719,-0.1517,0.3928,-0.5337
3765,822,797,33.859,26.04,0.0009,-0.0521,9.83,0.7605,-1.0279,-0.1157
3770,837,797,33.837,26.068,0.0377,0.0201,9.7633,-0.2872,-0.0073,0.4088
3775,845,797,33.922,26.115,0.0908,-0.0107,9.7694,0.6134,-0.1034,0.0506
3780,843,799,33.865,26.018,0.0046,-0.0164,9.7608,-0.6867,0.5332,0.9476
3785,858,796,33.89,26.017,0.0514,-0.0024,9.7658,0.6187,-0.0522,-0.4423
3790,861,792,33.958,26.045,-0.0441,-0.032,9.8341,0.0863,-0.3645,-0.0839
3795,871,790,33.92,25.953,0.0441,-0.02,9.8653,0.0125,0.2727,0.259
3800,879,786,33.896,26.079,0.0607,-0.0137,9.8392,-0.6569,0.3894,-0.2833
3805,899,789,33.968,26.003,0.0565,-0.0207,9.7871,-0.799,-0.2776,0.3271
3810,899,786,33.904,25.987,0.0259,0.085,9.7512,0.5238,0.4939,0.3998
3815,902,783,33.996,25.968,-0.0402,-0.0088,9.8156,0.2332,0.6664,-0.6081
3820,921,783,33.906,25.954,0.0388,-0.0284,9.7373,-0.9414,0.1367,0.2303
3825,933,779,33.946,25.979,-0.0066,0.081,9.7572,0.1155,-0.2452,-1.2511
3830,944,779,33.937,25.979,0.0398,-0.0218,9.8178,-0.2509,0.2391,0.8805
3835,955,782,33.875,26.038,0.0078,0.0073,9.9038,0.2223,-0.2568,-0.3352
3840,964,774,34.01,26.066,-0.0647,0.0825,9.7047,-0.6521,-0.5384,0.3048
3845,963,770,33.846,25.967,0.0418,-0.0602,9.8494,-0.3569,0.5113,-0.091
3850,985,778,34.004,25.988,-0.0564,-0.0746,9.8176,-0.7262,0.3015,0.1773
3855,994,775,33.895,26.062,0.0217,0.0343,9.864,-1.1061,-0.442,-0.3357
3860,992,772,33.922,25.957,-0.0578,0.0528,9.8286,0.6746,-0.1929,0.4286
3865,1015,772,33.836,26.081,0.0276,0.0786,9.907,-0.5207,0.0619,0.8427
3870,1015,766,33.893,25.986,0.0344,0.0411,9.8282,0.5431,0.9042,0.6991
3875,1034,768,33.933,25.931,0.0198,-0.0635,9.8433,-0.1475,0.8348,0.1377
3880,1044,767,33.966,26.08,0.0194,-0.041,9.7504,-0.1941,0.358,-0.7196
3885,1046,767,33.94,25.957,-0.0286,0.0453,9.7332,-0.1488,0.3486,-0.62
3890,1053,763,33.962,26.024,0.0033,-0.0213,9.7895,0.4945,-0.2546,0.4262
3895,1078,762,33.934,25.955,0.0377,-0.0257,9.7668,-0.0003,0.221,-0.0501
3900,1069,758,33.886,25.993,-0.0675,0.0626,9.8945,0.4287,0.5147,-0.4198
3905,1088,757,33.929,26.025,0.0169,-0.0123,9.8489,0.5885,-0.352,-0.4612
3910,1092,759,34.045,26.069,-0.0236,0.0292,9.7761,-0.566,0.7855,0.6039
3915,1105,752,34.006,25.99,0.0387,-0.0062,9.7338,1.0095,1.044,0.2956
3920,1110,756,33.907,26.014,-0.0009,-0.0469,9.9194,0.8034,-0.0384,0.3277
3925,1112,755,33.953,25.956,-0.0028,0.1027,9.8115,-0.396,-0.0456,-0.2333
3930,1115,749,33.953,26.07,0.065,0.0198,9.8324,0.2775,-0.784,-0.5268
3935,1122,755,33.91,26.005,0.0083,0.0272,9.9292,0.5845,0.0089,0.1128
3940,1133,758,33.929,26.047,0.0656,-0.075,9.8443,0.6222,1.1953,0.711
3945,1147,750,33.87,26.091,-0.04,0.0318,9.7159,0.0814,0.4266,0.6293
3950,1143,749,33.917,26.08,-0.0306,-0.027,9.8362,0.2014,-0.0704,0.3651
3955,1154,751,33.919,26.011,-0.0752,-0.0341,9.8488,0.757,0.73,0.3036
3960,1150,747,33.94,25.963,0.0124,0.027,9.7454,-0.4155,-0.7941,-0.0954
3965,1156,749,33.909,25.965,-0.065,0.0064,9.7797,-0.8877,-0.1719,0.4038
3970,1166,748,33.861,25.949,0.05,-0.0032,9.8061,-0.2311,-0.3585,-0.3102
3975,1163,747,33.91,26.013,-0.0069,0.0137,9.775,1.0165,-0.3812,-0.0696
3980,1176,752,33.922,26.12,0.0247,-0.016,9.8713,-0.1341,-0.5866,0.236
3985,1164,745,33.931,26.049,0.0608,-0.0167,9.7865,-0.0299,-0.3986,-0.2154
3990,1180,746,33.952,26.042,0.0122,0.0303,9.8436,-0.9484,-0.2847,0.1257
3995,1174,752,33.917,25.989,-0.0167,-0.0409,9.759,-0.0336,0.0995,-0.1418
4000,1185,743,33.832,25.983,0.0736,0.0233,9.745,-1.7108,0.0805,-0.0674
4005,1175,750,33.968,26.004,0.0278,0.0544,9.6882,-0.237,0.8571,-0.2176
4010,1185,747,33.932,25.92,-0.0456,-0.0046,9.9122,-0.0877,0.2418,0.5369
4014,1195,751,33.79,25.955,-0.0253,-0.0118,9.7791,0.0415,-0.0601,0.322
4019,1183,749,33.897,26.047,0.0441,0.0052,9.7314,0.416,0.8491,-0.6064
4025,1190,753,33.907,26.051,-0.0154,0.0061,9.763,-0.0457,-0.1847,0.645
4030,1190,757,33.903,26.06,0.0327,0.0062,9.8897,0.1782,0.0203,-0.1457
4035,1186,756,33.926,26.036,-0.0776,0.1043,9.79,-0.7844,-0.1245,0.9996
4040,1182,754,33.936,25.999,0.0417,-0.0332,9.8087,0.4801,-1.7015,-0.7814
4045,1184,756,33.91,26.013,0.0487,-0.0021,9.8622,0.1179,-0.091,0.9655
4050,1189,753,33.998,25.962,-0.0844,-0.0175,9.7986,-1.2727,0.7307,0.1732
4054,1192,762,33.876,25.945,0.0221,-0.0576,9.8129,-0.2425,-0.4456,-1.0254
4059,1181,753,33.864,26.088,-0.004,-0.0131,9.808,-0.0814,-0.0404,0.2878
4065,1189,756,33.912,26.017,0.0089,0.0014,9.7931,0.3037,0.6612,-0.4545
4070,1179,770,33.912,25.921,0.0079,0.0589,9.825,1.1274,0.2663,-0.1992
4075,1173,762,33.844,25.948,0.024,0.0019,9.7928,-0.7407,0.1549,-0.8421
4080,1179,765,33.868,26.118,-0.0142,0.0163,9.9158,-0.0703,0.3212,0.0573
4085,1176,769,33.9,25.999,0.0648,-0.0015,9.6863,0.2932,0.1726,0.8222
4090,1176,769,33.931,25.977,0.0202,0.0058,9.8638,0.1402,-0.6253,-0.176
4094,1179,770,33.918,25.985,0.0158,0.0605,9.8176,-0.0136,-0.3076,-0.0083
4100,1161,768,33.911,25.948,-0.0376,0.0179,9.8287,0.6252,-0.3782,-0.3798
4105,1170,772,33.872,26.072,0.0193,0.0689,9.7466,-0.1813,-0.2912,-0.0243
4110,1163,770,33.799,26.005,0.0321,0.0067,9.7282,-0.0921,0.4144,-0.7526
4115,1158,777,33.903,26.079,-0.0458,0.0187,9.725,-0.0563,-1.1316,0.4366
4120,1146,777,33.934,25.978,-0.0453,0.0664,9.8118,-0.0698,0.0422,0.6161
4125,1150,778,33.893,26.062,-0.0554,0.037,9.744,0.7196,-0.2816,0.0901
4130,1151,782,33.845,26.013,-0.0151,-0.0485,9.8055,-0.4839,0.9775,0.5254
4135,1150,783,33.883,26.055,-0.0512,0.0984,9.7934,-0.8079,0.3654,0.7229
4140,1147,790,33.884,26.075,-0.0573,0.0474,9.9134,-0.4266,-0.1505,-0.2549
4145,1139,786,33.941,26.045,0.0437,0.0138,9.9209,-0.8829,-0.6662,0.3011
4150,1142,792,33.948,26.032,-0.0564,0.035,9.7424,0.0162,0.7392,0.0001
4155,1136,796,33.886,25.987,-0.0258,-0.0224,9.8702,0.2417,-0.7071,0.9926
4160,1135,796,33.847,25.968,-0.0006,-0.0495,9.8389,0.3204,0.3227,-0.4429
4165,1134,793,33.885,25.927,0.0154,0.068,9.8539,-0.1103,0.7718,-0.4812
4170,1127,796,33.921,26.054,0.0144,-0.0532,9.8277,0.2195,-0.2026,-0.0412
4175,1131,799,33.808,26.079,-0.0086,-0.0066,9.7856,0.3023,-0.1779,-0.0237
4180,1119,804,33.997,26.047,-0.0003,0.0546,9.8364,-0.1667,0.5205,-0.1036
4185,1124,807,33.917,25.969,-0.1162,-0.0142,9.8192,-0.3633,0.5587,0.3239
4190,1121,805,33.938,26.108,-0.0152,-0.0142,9.8606,0.6701,0.8256,0.2395
4195,1126,807,33.822,26.038,-0.0246,0.0646,9.7958,-0.5277,0.3301,0.4367
4200,1126,812,33.943,26.049,0.0137,-0.0317,9.775,0.2587,0.6837,0.5293
4205,1117,816,33.888,26.018,0.0171,-0.0399,9.8507,0.7572,-0.1092,-0.6042
4210,1109,814,33.938,26.032,0.0399,-0.0615,9.6876,-0.3576,0.2526,-0.3238
4215,1114,816,33.916,26.014,0.0024,0.0272,9.816,-0.0208,-0.0751,-0.0258
4220,1099,822,33.924,26.02,-0.0485,0.0233,9.735,0.7555,-0.3692,0.0425
4225,1106,823,33.946,26.045,-0.0802,-0.0678,9.8536,0.6666,0.2745,-0.0663
4230,1109,824,33.992,26.106,-0.0457,0.0002,9.826,0.0629,-0.0823,-0.4284
4235,1102,819,33.893,25.963,0.0594,0.0417,9.8081,-0.2925,0.0767,0.615
4240,1096,821,33.974,26.085,0.0771,-0.0104,9.7388,0.2614,-0.2398,-1.1943
4245,1088,827,33.884,26.109,-0.0775,0.0269,9.8681,0.3416,-1.0056,0.2628
4250,1102,825,34.003,25.987,0.0077,-0.0097,9.8245,-0.1497,-0.2381,0.1996
4255,1094,824,33.949,26.069,-0.0667,-0.025,9.7986,0.127,-0.2788,-1.0157
4260,1099,823,33.926,26.036,-0.0327,-0.04,9.8219,-0.0284,0.0346,0.2986
4265,1091,827,33.97,25.966,0.0037,-0.0131,9.6878,0.4174,-0.2409,-0.1577
4270,1087,826,33.816,26.013,0.0371,-0.1106,9.887,0.293,-0.019,0.4486
4275,1091,834,33.954,25.961,-0.1133,-0.0394,9.7408,0.0663,0.2249,-1.3497
4280,1091,834,33.946,26.045,-0.0251,-0.0704,9.8542,-0.491,0.7417,-0.0266
4285,1081,833,33.996,26.062,-0.045,-0.0041,9.7106,-0.8482,-0.5563,-0.0812
4290,1071,837,34.036,26.091,-0.0261,0.034,9.8441,0.4402,-0.1628,0.7269
4295,1083,835,33.935,26.026,-0.0664,0.0194,9.7352,-0.2594,1.167,-0.4435
4300,1071,835,33.913,25.954,-0.0375,0.0172,9.841,1.1551,0.07,1.1607
4305,1073,832,33.856,26.055,0.1221,-0.0923,9.8193,-0.1095,-0.36,0.2206
4310,1072,842,33.969,25.989,0.0253,-0.0532,9.7903,-0.6469,-0.0601,0.1765
4315,1072,832,33.895,25.987,-0.0499,-0.1223,9.8334,0.0409,0.796,-0.5917
4320,1078,833,33.861,25.988,0.095,-0.0324,9.8428,-0.5815,0.3242,-0.4167
4325,1069,839,33.918,26.124,-0.0208,-0.0384,9.78,0.1323,0.0812,0.7176
4330,1065,839,33.919,26.057,-0.0044,-0.0448,9.865,-0.0804,-0.2411,-0.2457
4335,1062,835,34.009,26.047,-0.0144,0.0012,9.6789,-0.0587,0.4864,1.1762
4340,1062,833,33.903,26.075,-0.0292,0.0495,9.7897,0.0859,-0.5333,-0.8447
4345,1058,836,33.994,26.071,0.015,0.0257,9.7731,-0.6205,-0.2705,-0.3092
4350,1053,838,33.882,25.987,0.081,-0.0489,9.7777,0.7279,0.0738,-0.9266
4355,1048,839,33.871,25.964,0.0113,-0.0062,9.7568,-0.2129,-0.0793,-0.8344
4360,1047,838,33.845,26.061,-0.0062,-0.0218,9.8244,-0.9355,0.2909,0.6411
4365,1036,833,33.924,26.039,0.0194,0.0594,9.7496,0.0061,0.6676,-0.92
4370,1042,839,33.919,26.037,-0.0067,0.0319,9.7504,0.4614,0.6967,0.3927
4375,1034,837,33.951,26.06,0.1353,-0.0529,9.8651,-1.2915,-0.6029,-0.1708
4380,1029,844,33.868,26.06,0.0074,0.0633,9.7752,0.0367,-0.0459,-0.2375
4385,1024,838,33.868,26.025,0.0961,-0.0297,9.9455,-0.3129,0.2813,0.2677
4390,1024,835,33.877,25.942,-0.048,-0.0664,9.842,0.0235,1.1846,-0.4528
4395,1027,832,33.931,26.116,0.0065,-0.038,9.8696,0.3804,0.3102,-0.1028
4400,1006,837,33.894,26.004,0.0755,-0.0149,9.754,0.287,-0.1371,-0.488
4405,1006,834,33.9,25.977,-0.0511,-0.0241,9.8203,0.7984,0.1151,0.1595
4410,1006,842,34.057,25.998,-0.0904,0.0407,9.7712,0.3868,-0.422,-0.478
4415,1005,835,33.923,26.005,-0.0389,-0.0046,9.7878,0.2305,1.6133,-0.4964
4420,992,833,33.933,26.072,-0.0798,0.0568,9.7994,0.8943,0.3033,-0.2042
4425,990,832,33.932,26.081,0.1161,0.0795,9.7823,-0.2268,0.3244,-0.2181
4430,980,830,33.892,26.027,-0.0048,0.1258,9.7931,0.1749,0.3241,-0.0206
4435,982,829,34.084,26.015,0.0152,0.0212,9.7982,-0.1805,-0.8643,-0.3979
4440,966,832,33.979,25.986,0.031,0.0234,9.8136,-0.3571,-0.4262,-0.0966
4445,959,830,33.903,26.043,0.0409,0.0508,9.7895,-0.4784,0.7769,0.2478
4450,964,830,33.898,25.987,-0.0028,0.0039,9.8284,-0.3321,0.1538,0.85
4455,947,830,33.866,26.036,-0.0621,0.0674,9.8192,-0.0288,-0.1583,0.5266
4460,948,829,33.929,25.964,0.0342,-0.0077,9.7369,-0.3656,0.5221,-0.4132
4465,937,830,33.935,26.099,-0.0194,-0.028,9.8351,0.3487,-0.539,0.1102
4470,932,826,33.917,26.016,0.0625,0.0061,9.7738,-0.8556,0.7696,-0.608
4475,927,822,33.91,26.068,-0.0182,0.0806,9.7908,0.1221,0.3774,0.0567
4480,899,830,33.889,26.088,0.0452,0.0615,9.8047,-0.7816,-0.371,0.6962
4485,903,826,33.842,26.037,0.0002,-0.0013,9.7601,-0.1108,0.6214,-0.322
4490,907,822,33.876,26.088,-0.0384,-0.0144,9.8086,-0.3604,0.0354,-0.2951
4495,890,827,33.961,26.008,0.0573,0.058,9.8252,-0.0123,-0.3639,0.411
4500,887,832,33.898,25.915,-0.0169,-0.1085,9.8618,-1.1846,-0.0617,0.2621
4505,877,823,33.908,25.957,-0.0517,-0.0003,9.6617,0.7836,-0.4887,0.6808
4510,871,822,33.964,26.022,-0.0829,-0.041,9.7729,0.4723,-0.7411,-1.0036
4515,856,820,33.989,26.085,0.0547,-0.058,9.7475,0.4941,-0.3994,-0.2566
4520,858,821,33.928,26.064,-0.0397,-0.0511,9.8015,0.0136,0.1561,0.9812
4525,857,823,33.909,26.076,-0.038,-0.0072,9.8223,1.0888,0.7039,-0.5752
4530,851,820,33.913,26.052,-0.0149,0.0065,9.7558,-0.6866,-0.6553,0.1461
4535,838,824,33.936,26.053,-0.0234,-0.0035,9.7963,0.1015,-0.5723,-0.0931
4540,830,818,33.921,26.028,0.0168,-0.023,9.7001,-1.1408,-0.0547,-0.8043
4545,823,821,33.961,26.04,0.0134,0.0349,9.8618,0.4305,-0.0114,0.4327
4550,814,825,33.86,25.933,-0.0105,0.0558,9.8351,0.2015,-0.2986,0.5941
4555,814,820,33.914,25.986,0.0014,-0.0721,9.8198,-0.4175,-0.5846,-0.4594
4560,804,823,33.916,26.027,-0.0802,0.0344,9.8258,0.0241,-0.5686,-0.281
4565,790,818,33.944,25.993,-0.0302,-0.0519,9.862,0.1941,-0.4783,0.597
4570,784,816,33.977,26.046,0.0036,0.033,9.8587,-0.3627,0.163,-0.8026
4575,777,814,33.851,25.96,-0.0625,-0.1091,9.806,-0.4996,-0.5359,-0.1236
4580,777,820,33.974,26.055,-0.0182,0.0312,9.861,0.4436,0.0562,-0.1607
4585,776,822,33.912,26.011,-0.0256,-0.033,9.8035,1.4315,0.4303,0.3383
4590,770,812,33.886,26.001,-0.0342,-0.0569,9.8697,0.0903,-0.1829,0.2448
4595,766,816,33.924,25.989,-0.0061,0.0198,9.7556,-0.1068,-0.431,-0.2199
4600,765,818,33.92,25.973,-0.0639,0.0515,9.7821,0.5568,-0.6998,0.0943
4605,765,817,33.862,26.069,0.0028,-0.0182,9.7776,0.1124,-0.8721,-1.0263
4610,755,815,33.902,25.997,-0.0573,0.002,9.795,-0.1602,-0.0544,-0.9607
4615,759,817,33.923,26.036,0.0098,0.0352,9.7977,-0.4151,0.6593,-0.4515
4620,762,814,33.99,26.161,-0.008,-0.0877,9.7259,0.301,0.8815,0.0142
4625,756,812,33.891,26.024,-0.0465,-0.0017,9.8056,0.2071,0.0919,0.0102
4630,764,814,33.907,25.964,-0.0513,0.0048,9.8657,-0.0177,-0.7935,-0.3377
4635,740,812,33.796,26.098,-0.0115,-0.002,9.8581,0.3546,0.3006,0.2379
4640,751,811,33.964,25.965,-0.0173,-0.0055,9.7801,0.3797,-0.3719,0.2421
4645,756,811,34.031,26.052,-0.0656,0.0199,9.8035,0.0725,-0.1554,-0.0274
4650,745,811,33.907,25.985,-0.07,0.0449,9.7809,-0.3838,0.1802,0.6533
4655,744,814,33.955,25.95,0.0559,0.0521,9.8494,0.0636,-0.5988,-0.0476
4660,757,811,33.876,26.084,0.0872,0.0424,9.8722,-0.0761,-0.2944,-0.3451
4665,755,811,33.829,26.015,0.0992,0.0227,9.7673,-0.6657,-0.4688,0.0348
4670,748,815,33.861,26.054,0.0082,0.0443,9.7982,-0.1585,-0.0169,-0.0247
4675,764,810,33.953,26.094,0.0523,0.0216,9.8971,-0.334,-0.6799,-0.1471
4680,769,807,33.911,26.063,-0.046,-0.0024,9.7912,0.2783,0.2365,0.1945
4685,767,806,33.964,26.075,-0.0001,0.0187,9.8062,0.0588,-0.384,0.5047
4690,771,805,33.952,26.07,-0.096,0.0678,9.8012,0.0315,0.7398,0.5084
4695,775,799,33.984,26.063,-0.0417,-0.0661,9.8558,-0.5101,0.4167,-0.3589
4700,781,805,33.868,25.931,0.0065,0.0799,9.7583,-0.513,0.3776,-0.0536
4705,791,808,34.04,25.952,0.082,0.0371,9.79,-0.4809,-0.3052,-0.3989
4710,789,805,33.891,26.019,-0.0121,0.0042,9.868,0.5533,0.1041,-0.5057
4715,798,801,33.853,26.065,-0.0946,-0.0747,9.8813,0.0717,-0.6079,-1.1646
4720,800,802,33.841,26.044,-0.0352,-0.0286,9.8537,0.1021,-0.2167,-0.4331
4725,820,802,33.924,26.067,-0.0019,0.0671,9.779,0.6215,-0.0892,-0.2456
4730,820,801,33.967,25.953,-0.0426,-0.0106,9.8813,-0.0767,0.3213,0.1145
4735,830,797,33.876,25.918,0.0355,0.0221,9.7985,-0.5622,-0.717,0.3215
4740,830,792,33.855,25.959,-0.0196,-0.068,9.8023,-0.6221,-0.1848,1.2026
4745,838,798,33.933,26.102,-0.006,-0.01,9.8655,-0.2229,-0.3025,-0.7139
4750,836,797,33.968,26.052,0.0779,0.0639,9.7365,-0.1767,0.3224,-0.5815
4755,857,789,33.919,25.988,-0.0306,-0.0407,9.9055,1.273,-0.3559,0.0427
4760,866,792,33.973,26.067,0.0215,0.0128,9.827,0.3607,-0.1385,0.1992
4765,880,780,33.954,26.017,0.0934,-0.0332,9.8289,-0.0296,-0.1001,-0.647
4770,879,791,33.869,26.044,-0.0132,-0.0094,9.8183,0.9337,0.96,0.9446
4775,884,786,34.063,26.127,-0.0128,-0.0495,9.8132,0.6742,0.4818,-0.4768
4780,900,785,34.01,26.049,-0.031,0.0184,9.9006,0.5977,-0.1302,0.2199
4785,907,786,33.897,26.049,-0.0327,0.028,9.7938,0.9696,0.5094,0.15
4790,918,787,33.829,25.984,-0.0394,-0.0493,9.8297,0.2986,-0.4462,0.513
4795,931,780,33.86,26.07,-0.0157,-0.0018,9.7506,0.4745,-0.986,-0.0359
4800,945,777,33.977,26.042,0.0823,0.0398,9.7824,0.2217,0.5471,0.0698
4805,956,783,33.878,26.05,-0.0483,0.0136,9.7805,0.4878,-0.3709,-0.9444
4810,952,783,33.952,25.965,-0.051,0.0112,9.8483,0.7832,-0.4345,-0.2872
4815,972,772,33.833,25.978,0.1355,0.0228,9.8336,-0.3502,0.1846,0.5509
4820,978,767,33.927,26.132,-0.0355,0.0114,9.8238,-0.0596,-0.1931,0.2641
4825,1000,776,33.983,25.979,-0.0986,-0.0068,9.7919,0.4308,0.1853,0.141
4830,1004,775,33.959,26.045,-0.0232,-0.0032,9.7956,-0.5577,0.1959,-0.3408
4835,1013,769,33.935,26.074,-0.0009,-0.0097,9.8537,-0.4303,1.3705,-0.2181
4840,1014,764,33.915,26.009,-0.0551,-0.049,9.7991,-1.1362,0.3195,0.2606
4845,1024,771,33.987,26.093,-0.0216,-0.0092,9.8684,0.3076,0.1922,1.0022
4850,1041,763,33.874,26.014,-0.0837,-0.0036,9.7523,0.1573,0.2107,-0.5232
4855,1041,764,33.889,25.959,-0.1,0.0015,9.7849,-0.1591,-0.9433,0.9461
4860,1062,765,33.841,26.024,0.036,0.0642,9.7842,-0.3499,1.2473,-0.3937
4865,1065,758,33.943,26.078,0.0346,0.0379,9.7709,0.3213,0.2587,-0.1768
4870,1071,761,34.03,26.047,0.0379,-0.045,9.7603,-0.0356,-0.2818,-0.0846
4875,1079,756,34.007,26.059,-0.0597,-0.0001,9.8293,-1.2031,0.1432,-0.1744
4880,1086,765,33.921,25.962,-0.0447,-0.0381,9.8247,0.1683,-0.87,0.238
4885,1105,760,33.909,26.084,-0.0514,-0.0004,9.7155,-0.1271,0.2749,0.5831
4890,1109,752,33.836,25.895,-0.0005,-0.0745,9.6835,-0.2742,-0.0489,0.1004
4895,1119,760,34.021,26.056,-0.0891,0.0192,9.7329,-0.7154,0.4175,0.314
4900,1115,751,33.956,26.022,0.0664,0.0658,9.8329,0.2457,0.5782,-0.8579
4905,1124,750,33.924,26.079,-0.0304,-0.0105,9.8341,-0.5443,0.5205,-1.0928
4910,1129,754,33.843,25.997,-0.0342,-0.0321,9.8543,0.0551,0.5304,0.1075
4915,1130,754,33.878,26.03,-0.071,0.0796,9.7692,0.6169,-0.2266,0.8981
4920,1151,751,33.859,26.03,0.0855,0.0339,9.7852,-1.1178,-0.0809,-0.5214
4925,1153,752,33.892,25.97,0.009,-0.0034,9.8406,0.7292,-0.2057,0.0483
4930,1153,745,33.88,26.029,0.0781,0.0476,9.7963,0.3621,1.2963,0.0652
4935,1159,750,33.939,26.019,0.031,-0.0218,9.8226,0.1279,0.2791,0.3305
4940,1158,747,33.932,25.986,0.0402,-0.0484,9.761,0.6111,0.248,-0.1914
4945,1172,743,33.949,25.996,-0.1273,0.0185,9.8506,-0.363,-0.5087,0.2342
4950,1164,747,33.923,26.022,-0.0582,-0.0511,9.7095,0.194,0.1462,-0.4079
4955,1170,746,33.941,26.06,0.0145,0.0049,9.8576,0.885,0.5813,0.0057
4960,1174,745,34.039,26.015,-0.0113,-0.0271,9.8263,0.1541,-0.7583,-0.4432
4965,1178,747,33.895,26.099,-0.0408,0.0473,9.8569,0.5083,0.7091,-0.1106
4970,1181,748,33.942,26.04,0.0047,-0.0333,9.8507,0.1389,0.4034,0.4049
4975,1186,753,33.859,26.013,-0.0705,-0.0438,9.7892,-0.3134,-0.0937,-0.9076
4980,1188,751,33.917,26.023,0.123,0.0437,9.8812,0.4928,-0.0314,-0.2775
4985,1193,753,33.868,26.03,-0.0354,0.0616,9.8128,0.2791,-0.1698,-0.7947
4990,1185,749,33.916,26.058,-0.0599,0.0593,9.8149,-0.2486,0.1752,0.0635
4995,1180,757,33.902,26.048,-0.0354,0.0091,9.8201,0.2424,0.1938,-0.4486
5000,1187,754,33.954,26.078,-0.0848,-0.1072,9.7643,-0.1805,0.3992,0.919
5005,1193,747,33.932,26.058,0.053,0.0346,9.8163,0.2229,1.2337,0.4843
5010,1186,756,33.845,26.067,-0.0179,-0.0366,9.7728,0.4432,-0.4045,-0.8717
5015,1180,757,33.912,26.024,-0.0081,0.1223,9.7097,-0.2017,-0.3153,-0.1771
5020,1186,755,33.99,25.999,0.0678,0.033,9.7887,0.1196,-0.2116,0.0353
5025,1185,760,33.934,26.044,-0.0338,0.0375,9.7776,0.0912,-0.347,-0.1658
5030,1185,761,33.968,26.021,-0.0703,0.1027,9.8216,0.6318,-0.3079,0.1414
5035,1187,760,33.955,26.123,0.0237,-0.0536,9.8875,0.5101,0.2359,-0.4105
5040,1181,758,33.948,25.954,0.0021,0.0089,9.8009,0.7403,-0.0651,0.5499
5045,1180,764,33.942,26.062,0.1029,-0.0297,9.7434,0.673,0.9971,0.432
5050,1184,764,33.868,26.054,-0.0617,-0.034,9.8655,0.0086,-0.0475,0.4166
5055,1186,766,33.889,26.084,-0.0697,0.0262,9.8233,0.1639,1.1142,-0.3828
5060,1174,770,33.882,26.023,-0.0529,-0.0334,9.7642,-0.6544,-0.1402,-0.0735
5065,1180,770,33.852,26.053,-0.0034,-0.0181,9.7926,-0.2446,0.097,-0.2143
5070,1166,773,33.846,26.012,-0.0337,0.0706,9.8409,0.5175,0.3173,0.5788
5075,1166,776,33.911,26.056,0.0292,0.0088,9.7863,-0.0917,-0.742,-0.3618
5080,1165,776,33.88,26.052,0.0441,0.0158,9.7047,0.4355,-0.1548,-0.0229
5085,1153,775,33.847,26.012,-0.0012,0.0054,9.7766,0.7688,0.8886,-0.5257
5090,1148,776,33.923,25.973,0.0054,-0.0342,9.8365,-0.1027,0.3909,0.4344
5095,1167,784,33.899,25.981,0.0258,-0.0015,9.8543,0.1001,0.0401,0.8042
5100,1153,786,33.933,26.031,-0.0145,0.0056,9.7946,0.0976,0.9413,0.8674
5105,1152,784,33.901,25.989,-0.055,-0.041,9.9145,0.51,-0.169,0.5739
5110,1139,791,33.981,26.079,0.0036,-0.0187,9.7722,0.593,-0.3262,-0.1685
5115,1147,783,33.938,26.032,0.0393,0.0091,9.8086,0.32,0.0294,0.5894
5120,1146,788,33.958,26.004,0.011,-0.0176,9.8153,-0.5332,-0.7483,0.2144
5125,1144,788,34.035,26.005,-0.0336,0.0113,9.8684,0.2122,-0.2817,0.3146
5130,1128,793,33.901,26.1,0.0814,0.0685,9.8813,-0.1928,0.1946,0.679
5135,1131,802,33.921,26.037,-0.0473,-0.037,9.8203,0.2312,1.1161,-0.8587
5140,1130,794,34.041,26.036,0.0301,0.0189,9.8217,0.0993,0.278,0.3149
5145,1124,805,33.791,25.952,0.0096,-0.0183,9.7579,-0.49,-0.5295,0.1702
5150,1124,808,33.869,25.995,-0.0399,-0.0284,9.7819,0.2116,0.5267,-0.082
5155,1126,801,33.843,26.06,-0.0768,-0.0927,9.8268,-0.3921,0.6564,-0.4515
5160,1120,805,33.939,26.052,0.0906,-0.0652,9.7485,-0.2609,0.0756,-0.4681
5165,1119,805,33.943,25.947,-0.0219,0.008,9.8535,-0.091,0.7986,-0.0699
5170,1123,814,33.925,26.096,0.0046,0.0618,9.8256,0.2404,0.3723,0.943
5175,1111,811,33.992,25.995,-0.1214,-0.0041,9.8192,-0.9935,0.8832,0.1157
5180,1116,816,33.937,26.055,0.0077,0.0081,9.8225,0.4983,-0.2697,-1.3115
5185,1124,818,33.962,26.025,0.0008,-0.0301,9.72,0.0457,0.2493,0.2911
5190,1109,815,33.945,25.926,-0.0509,0.0261,9.7851,0.1521,0.6107,-0.338
5195,1103,814,33.941,26.13,-0.0548,-0.0619,9.8935,0.2097,0.1968,-0.2794
5200,1106,823,33.877,26.081,-0.08,0.0557,9.7546,0.0929,0.6291,0.1028
5205,1098,821,33.878,26.05,-0.0364,-0.0608,9.7803,0.5001,0.6366,-0.9417
5210,1103,826,33.991,26.005,0.0205,-0.0208,9.9143,0.6067,0.6906,0.437
5215,1099,827,33.916,25.996,-0.0132,-0.0409,9.7877,-0.7974,-0.0566,0.2921
5220,1092,825,33.893,25.95,-0.0389,-0.0244,9.8049,0.3107,-0.3417,-0.5215
5225,1092,823,33.902,26.058,-0.026,-0.0182,9.8472,-0.0115,-0.7443,0.1976
5230,1101,829,33.974,25.962,0.0293,-0.0758,9.8025,0.4273,0.4436,0.085
5235,1090,830,34.003,26.031,-0.018,-0.0231,9.7721,-0.8712,-0.3474,0.7004
5240,1093,831,33.995,26.08,0.0728,-0.0601,9.8063,-0.3141,0.5095,-0.3969
5245,1092,833,33.906,26.006,-0.0323,0.0043,9.8588,-0.0578,1.4503,-0.4522
5250,1088,837,33.941,26.037,0.0228,0.0016,9.7548,-0.3651,0.0392,-0.0169
5255,1090,826,33.907,26.009,-0.0222,-0.008,9.8316,1.1444,-0.2852,0.2123
5260,1085,833,33.98,26.07,-0.0034,-0.0841,9.7942,-0.6696,-0.92,0.2035
5265,1077,833,33.916,26.015,0.0549,-0.0065,9.854,0.0812,0.0682,0.0909
5270,1069,836,33.942,26.065,0.0802,-0.0031,9.8288,-0.067,-0.3559,-0.158
5275,1080,834,33.981,25.96,0.0569,-0.0069,9.778,-0.0403,-0.8899,-0.1558
5280,1081,832,33.906,26.001,0.0141,0.0347,9.7524,1.2208,0.0813,0.5084
5285,1073,842,33.899,25.975,-0.1481,-0.0007,9.7663,0.1703,-0.0706,0.2574
5290,1070,839,33.933,26.018,0.0002,0.0161,9.8921,0.2303,-1.5038,-0.6636
5295,1073,840,33.854,25.996,-0.0196,-0.0165,9.8408,-0.4409,-0.3917,-0.4539
5300,1065,842,33.879,25.936,-0.0066,-0.0427,9.8116,0.7012,-0.313,-0.0814
5305,1063,838,33.89,25.972,0.0908,0.0025,9.8812,-0.0144,0.7486,-0.8997
5310,1061,833,33.965,25.947,0.0031,-0.0799,9.7882,0.0772,-0.7534,-0.4051
5315,1057,837,33.85,26.018,-0.0024,-0.0182,9.8165,-0.0269,0.3858,-0.4474
5320,1062,838,33.867,26.003,-0.0674,0.0028,9.8158,-0.816,-0.0308,0.439
5325,1050,834,33.944,26.074,-0.1345,0.1474,9.7855,-1.0155,-0.4517,-0.5176
5330,1057,838,33.898,25.969,0.0093,0.0465,9.6586,0.6273,0.2608,-0.519
5335,1051,835,33.905,26.012,0.0069,0.005,9.8106,0.2279,-0.2742,-0.0944
5340,1034,838,33.956,25.996,-0.0368,-0.0442,9.8787,-0.3508,0.1024,0.0148
5345,1037,834,33.87,26.024,0.021,0.0735,9.7955,0.4735,0.4186,0.2873
5350,1031,831,33.942,26.144,0.0514,0.0246,9.8767,0.0331,0.2364,-0.4764
5355,1036,834,33.896,25.955,-0.0274,-0.1493,9.7133,0.0967,-0.9293,-0.6746
5360,1032,837,33.984,26.1,0.0168,-0.0288,9.8326,-0.1168,-0.2971,-0.1458
5365,1016,833,33.903,26.02,0.0263,0.0403,9.7383,-0.666,0.5667,0.6596
5370,1013,833,34.017,26.078,0.0555,-0.0177,9.8351,-0.2444,0.4359,-0.4469
5375,1004,834,33.911,26.029,-0.0101,0.0176,9.8852,0.5908,0.2919,1.491
5380,1003,838,33.908,25.979,0.0257,0.0213,9.7774,-0.3549,-1.1072,-0.048
5385,1003,834,33.91,26.057,0.0238,0.0307,9.8136,0.262,0.2152,-0.0958
5390,995,831,33.839,25.993,-0.0488,0.0175,9.7758,0.3317,0.0828,0.0093
5395,980,833,33.893,25.96,0.0534,-0.0234,9.8211,0.1917,-0.7869,0.0227
5400,985,830,33.944,25.972,-0.025,0.0738,9.8048,0.2473,-0.2728,0.4011
5405,978,828,33.891,26.008,-0.1063,0.0965,9.7168,0.4825,-0.1037,0.708
5410,969,832,33.866,26.023,-0.0212,-0.0191,9.7856,0.0876,0.038,0.3147
5415,967,827,33.985,26.018,0.0298,-0.0034,9.8123,1.1428,0.5737,-0.6181
5420,954,824,33.933,26.113,-0.0331,0.0858,9.8537,0.3444,0.6525,-0.515
5425,947,831,33.848,26.121,-0.0858,0.1365,9.8412,-1.023,0.4824,0.4639
5430,941,827,33.965,26.13,-0.0306,-0.0282,9.7252,-0.4516,-0.284,0.3481
5435,926,828,33.939,26.024,0.0533,0.0586,9.8875,-0.2572,0.0885,0.018
5440,918,830,34.007,25.944,-0.0289,-0.0348,9.8192,0.8287,0.6837,0.8459
5445,922,829,33.909,26.022,0.0264,0.0181,9.7981,-0.916,-0.373,-0.1395
5450,907,824,33.941,26.042,-0.0345,-0.0298,9.788,-0.293,0.6003,0.9611
5455,907,830,33.931,26.013,0.0656,0.03,9.7559,-0.6785,-0.5373,0.2385
5460,903,828,34.004,26.081,0.0265,0.0166,9.8243,-0.7734,0.0238,0.1522
5465,891,824,33.917,26.098,0.0127,0.0946,9.792,0.2525,0.0847,-0.6776
5470,881,822,33.846,26.067,-0.0222,-0.0235,9.79,-0.1538,-0.9426,0.5252
5475,881,824,33.911,26.039,0.0007,-0.0076,9.8115,0.2167,-0.034,-0.0898
5480,876,825,33.934,25.99,-0.05,0.0966,9.8309,-0.3483,-0.001,-0.0178
5485,865,823,33.865,26.014,0.0338,0.0684,9.8695,-0.1195,0.5468,0.5716
5490,860,824,33.84,26.007,0.0077,0.0309,9.796,0.1541,0.2357,0.2163
5495,845,820,33.969,25.954,-0.0411,-0.0027,9.8601,-0.333,0.267,0.3622
5500,842,826,33.887,26.079,0.0695,0.0388,9.7932,0.7969,-0.7573,0.8265
5505,833,822,33.98,26.055,0.0035,-0.0009,9.8066,-0.5139,-0.4768,-0.4881
5510,827,820,33.883,26.024,0.0097,-0.0554,9.7989,1.1956,-1.0854,0.5239
5515,818,822,34.025,26.127,0.0146,-0.0965,9.7854,-0.3055,-0.0158,0.4414
5520,819,823,33.895,26.056,-0.0145,0.0602,9.7906,0.4636,-0.1859,0.0644
5525,809,815,33.947,26.024,0.0728,0.0171,9.8865,-0.2308,0.1872,-0.2844
5530,806,821,33.824,25.922,-0.0254,0.0428,9.8387,-0.4215,0.1829,-0.2212
5535,797,822,33.915,25.992,-0.012,0.039,9.803,0.588,-0.2425,-0.4338
5540,792,824,33.847,26.033,-0.0143,-0.0678,9.7572,0.4404,-1.0879,-0.2955
5545,780,817,33.864,26.021,0.0559,0.0545,9.7269,-0.2889,0.6398,0.4376
5550,783,816,33.957,26.016,-0.0551,0.0662,9.8132,0.4031,-0.2216,0.1821
5555,774,819,33.906,26.065,0.0034,0.058,9.7859,-0.4443,1.1481,-0.0326
5560,769,819,33.982,26.029,0.0159,0.0437,9.8922,-0.0558,0.3171,-0.22
5565,768,821,34.032,26.135,0.0613,-0.0031,9.8217,0.0438,-0.0587,-0.9467
5570,765,817,33.902,26.02,0.0678,0.0134,9.7521,0.1543,0.5124,-0.776
5575,753,813,33.927,26.032,-0.0445,0.031,9.8255,-0.1576,-0.6828,0.4351
5580,752,818,33.963,26.062,0.0654,-0.0652,9.7544,-0.164,-0.8405,-0.8862
5585,759,817,33.855,26.088,-0.0482,0.0111,9.8286,-0.5676,0.2305,-0.584
5590,749,814,34.024,25.989,-0.0437,-0.0135,9.874,-0.1538,0.4268,-0.0123
5595,748,815,33.982,26.048,-0.049,0.0178,9.7511,0.2115,-0.4443,-0.3829
5600,744,814,33.92,25.988,0.0468,-0.0172,9.8601,0.8565,-0.2831,-1.0826
5605,750,814,33.907,26.031,0.0163,-0.0798,9.8036,-0.4953,0.263,0.0195
5610,748,812,33.893,26.094,-0.0462,-0.0638,9.8281,-0.4326,1.3952,0.3817
5615,743,810,33.928,25.99,-0.05,0.0247,9.8172,-0.6563,-1.1611,-0.5472
5620,746,811,33.892,26.045,-0.0903,0.02,9.8044,0.0685,-0.0359,-0.0354
5625,755,814,33.952,26.096,0.027,-0.0193,9.785,0.5074,0.4987,-0.0678
5630,757,815,33.904,26.103,-0.085,-0.0243,9.8627,0.0411,0.0713,-0.1525
5635,752,813,33.904,26.006,0.0093,0.0637,9.8622,-0.0629,-0.3266,-0.4667
5640,758,804,33.899,26.027,0.0424,0.021,9.8589,-0.4617,0.5456,0.0745
5645,754,815,33.919,26.176,-0.0026,-0.0338,9.8489,-0.31,0.007,-0.0992
5650,761,807,33.976,26.018,0.0462,-0.0193,9.8362,1.2235,-0.137,-0.52
5655,754,805,33.963,25.945,-0.0578,0.0856,9.7903,-0.1839,-1.2314,-0.1162
5660,773,806,33.91,26.07,-0.0246,0.0135,9.8379,-0.4274,0.33,-0.1864
5665,769,807,33.98,26.035,0.0113,0.0521,9.7765,0.5444,0.0202,0.6562
5670,778,806,33.989,25.985,0.0482,-0.0241,9.8205,0.0047,-0.1376,0.5515
5675,787,806,33.905,26.064,-0.0473,0.0575,9.8209,0.7836,-0.6388,-0.1017
5680,785,801,33.982,26.091,-0.01,0.0219,9.8409,-0.6338,0.2199,0.2979
5685,790,799,33.98,26.015,0.0099,-0.0818,9.7502,0.0979,-0.2926,0.704
5690,805,801,33.894,26.004,0.0297,-0.0219,9.7901,0.5776,0.5784,-0.435
5695,807,799,33.874,26.003,-0.0913,0.0715,9.8876,-0.3973,-0.2248,0.5013
5700,819,800,33.902,26.038,0.0375,-0.0824,9.7989,0.9461,0.7346,0.4137
5705,833,794,33.96,26.086,0.0083,-0.0388,9.7405,-0.0161,0.3358,-0.2439
5710,833,794,34.009,26.114,-0.0921,-0.0646,9.7911,0.1318,0.4865,-0.291
5715,841,797,33.944,26.04,0.0443,0.0265,9.8299,-0.6944,0.7423,0.4905
5720,840,790,33.94,26.055,-0.005,0.0297,9.7824,1.2819,0.3569,-0.157
5725,863,794,33.934,26.128,-0.0207,0.0156,9.8136,1.5649,0.7465,0.0621
5730,870,796,33.989,26.034,0.0027,0.0486,9.7675,-0.4711,-0.322,0.0748
5735,868,785,33.922,26.091,0.0034,0.0414,9.6833,0.1031,0.7884,0.454
5740,888,793,33.887,26.05,0.0283,-0.0227,9.8085,-0.114,-1.1973,0.6438
5745,902,785,34.023,25.957,-0.0209,-0.0158,9.7242,0.6086,-0.0908,-0.1292
5750,903,787,33.933,25.985,0.0347,-0.0526,9.717,0.2842,0.3971,-0.1338
5755,906,781,33.986,26.046,-0.0384,0.0065,9.7892,-0.0023,-0.495,-0.201
5760,916,780,33.908,26.105,0.0002,-0.0011,9.9014,0.3807,-0.1994,-0.0702
5765,927,779,33.91,26.018,-0.105,-0.0311,9.8635,-0.453,-0.8944,-0.3667
5770,949,786,33.938,26.079,0.0275,0.0053,9.9368,0.7574,0.1686,0.2076
5775,947,774,33.94,26.043,-0.042,-0.0229,9.7992,-0.3039,-0.2738,-0.2271
5780,955,779,33.927,26.03,-0.0122,0.0124,9.8467,0.9583,-0.1962,-0.451
5785,958,772,33.985,26.12,-0.013,0.0449,9.7712,0.5514,0.2758,-0.1474
5790,983,775,33.961,26.091,0.0015,0.0383,9.7842,0.8103,-0.0998,-0.5423
5795,996,770,33.955,26.012,0.0251,-0.0074,9.8656,-0.4293,-0.447,-0.1458
5800,998,775,33.96,26.087,-0.0272,-0.001,9.8939,-0.4966,0.2892,0.6448
5805,1010,769,33.958,26.088,-0.0247,-0.0378,9.8173,-0.8282,-0.202,-0.3254
5810,1030,768,33.871,26.06,-0.1024,-0.0212,9.7543,-0.3631,0.32,0.3668
5815,1022,766,34.038,26.012,0.0364,0.0175,9.7656,0.6603,-0.5233,-0.2778
5820,1040,768,33.97,26.124,0.0793,0.0353,9.7826,0.2264,0.7286,0.0131
5825,1038,764,33.948,25.969,0.0531,-0.0367,9.8279,0.3831,-0.4652,-0.426
5830,1052,764,33.998,26.047,0.0881,-0.0548,9.8995,0.2586,0.1045,0.3729
5835,1071,758,33.908,26.081,-0.0514,0.1479,9.7819,-0.2491,-0.0359,0.0251
5840,1073,763,33.857,26.075,-0.0973,0.0245,9.876,0.2792,0.5889,-1.1096
5845,1089,758,33.979,26.081,-0.0221,0.0262,9.7206,0.3579,0.1404,-0.0002
5850,1093,760,33.98,26.014,-0.0577,0.0106,9.7671,-0.5334,0.2146,0.3441
5855,1099,759,33.973,26.065,-0.0778,0.0228,9.7905,-0.6646,0.6114,0.679
5860,1102,756,33.925,26.012,-0.0285,-0.0094,9.8715,0.4567,-0.8468,-0.2717
5865,1115,753,33.914,26.114,0.0196,0.0355,9.8649,0.378,-0.1214,0.0452
5870,1132,756,33.831,25.967,0.0245,-0.0347,9.772,-0.0115,0.8552,0.7584
5875,1135,751,33.944,26.01,0.0485,0.0452,9.7551,-0.4081,-0.4783,-0.4054
5880,1129,754,33.945,25.955,-0.0093,-0.0858,9.8377,0.0545,-1.0351,0.0597
5885,1137,750,33.942,25.975,-0.0717,-0.0038,9.7474,-0.0952,-0.4543,0.0204
5890,1148,743,33.817,26.103,0.0105,-0.0746,9.8144,0.5839,-0.1707,0.7505
5895,1154,754,33.928,26.058,0.0881,0.0659,9.8454,-0.6154,0.9157,1.4764
5900,1151,753,33.948,26.01,-0.0644,-0.0686,9.8049,-0.0756,-0.467,0.6568
5905,1164,744,33.829,26.029,-0.0547,-0.0334,9.8358,-0.2758,-0.0291,0.0875
5910,1169,749,33.904,26.044,-0.0012,-0.0994,9.8003,-0.5313,0.0357,0.094
5915,1154,745,33.862,25.926,0.0004,0.0889,9.8605,-0.2231,0.4001,-1.0744
5920,1169,746,33.988,26.141,0.053,-0.0496,9.8588,0.6049,-0.6564,-0.5794
5925,1174,748,33.961,26.0,-0.0624,-0.0381,9.8329,-0.0288,0.5931,0.0728
5930,1177,745,34.063,25.996,-0.0096,0.0995,9.807,0.1018,0.0062,0.2953
5935,1187,750,33.921,26.03,0.0105,0.1496,9.8911,-0.1703,0.052,0.2906
5940,1185,751,33.981,25.954,-0.016,0.0413,9.7868,-0.2598,-0.1422,0.4588
5945,1181,749,33.912,25.977,0.0033,0.0202,9.7339,0.1451,-0.8289,-0.0137
5950,1178,751,34.002,26.073,0.0295,0.0004,9.8376,0.1436,0.4918,-0.0725
5955,1193,746,33.881,26.068,-0.0026,-0.0521,9.8657,0.5842,0.0073,-0.1656
5960,1192,750,33.92,25.981,-0.0964,-0.0031,9.819,-0.4869,-0.7687,1.2285
5965,1183,754,33.886,26.012,-0.002,0.0394,9.8434,-0.0022,0.0273,-0.2121
5970,1191,750,33.898,26.074,0.0044,0.0028,9.8024,-0.2426,0.4977,-0.6103
5975,1184,749,33.914,26.154,-0.0137,0.0494,9.7897,-0.2044,0.176,0.1303
5980,1193,754,33.882,25.942,-0.0697,0.0236,9.7777,0.0646,0.0588,0.0803
5985,1193,756,33.931,26.03,0.1039,-0.029,9.7878,-0.3145,-0.7539,-0.2447
5990,1193,757,33.881,25.975,0.0293,-0.0032,9.826,-0.6207,0.0408,0.5367
5995,1182,755,33.954,26.077,0.0434,-0.0018,9.7984,0.3579,0.6807,0.1009
6000,1190,754,33.939,26.014,0.0056,-0.0084,9.7738,0.5457,-0.3312,0.5012
6005,1175,764,33.909,26.059,0.1529,-0.0573,9.8441,-1.7145,-0.0975,-0.7699
6010,1176,761,33.981,25.994,0.0687,0.0619,9.8393,-0.5638,-0.0575,0.4943
6015,1182,763,33.926,26.11,0.0421,0.0467,9.8783,0.416,0.1125,0.0241
6020,1176,762,33.84,26.004,-0.0112,0.0417,9.8747,0.0527,-0.5903,0.702
6025,1162,766,33.929,26.039,-0.0484,0.0174,9.7818,0.0491,-0.4119,-0.7315
6030,1187,767,33.921,26.005,0.024,0.0329,9.8154,-0.3814,-0.2235,-0.0174
6035,1165,767,33.895,26.054,0.0068,0.0187,9.8576,-0.3706,-0.0504,0.4292
6040,1170,774,34.04,25.986,0.0667,-0.0213,9.8069,-0.236,-0.4203,0.6599
6045,1163,771,34.034,26.143,0.0134,-0.0083,9.7433,0.17,0.0155,-0.2499
6050,1161,776,33.921,26.08,-0.0489,0.053,9.739,0.4796,-0.8535,0.3303
6055,1158,774,33.973,26.026,-0.0477,0.1149,9.8766,-0.101,0.7651,-0.6993
6060,1162,778,33.886,26.047,-0.0156,0.0614,9.7541,-0.0355,-0.2032,0.1958
6065,1158,774,33.872,26.037,-0.0374,0.0605,9.9091,-1.1037,0.2415,-0.6715
6070,1154,779,33.946,26.037,0.0736,0.0289,9.7912,-0.6239,0.3542,-0.2037
6075,1152,785,33.992,26.071,0.0515,0.0581,9.8387,0.3847,-0.2671,-0.941
6080,1156,786,33.906,25.957,0.0637,0.0334,9.8115,0.4421,-0.5699,0.9252
6085,1144,787,33.944,26.033,-0.0114,-0.0018,9.8161,-0.7561,0.8502,0.4181
6090,1140,789,33.9,25.994,-0.0215,0.0427,9.8488,-0.1834,0.4767,-0.0082
6095,1134,795,33.983,25.971,0.0064,-0.0397,9.7744,-0.3169,0.2349,-0.6905
6100,1145,790,33.937,26.061,-0.0367,0.0545,9.7945,0.035,-0.8427,0.2034
6105,1122,796,33.923,26.184,0.0084,0.0018,9.775,-0.2312,0.9059,-0.6684
6110,1133,803,33.935,26.043,0.0265,-0.0045,9.7542,-0.1749,-0.3836,0.8288
6115,1137,799,34.0,25.957,-0.115,-0.0402,9.8847,-0.6718,0.2303,-0.2648
6120,1123,806,33.896,26.05,0.03,-0.0016,9.7993,0.3765,0.3554,0.5092
6125,1120,808,34.011,25.999,-0.052,0.0826,9.7408,0.2311,-0.5347,0.5481
6130,1120,799,33.958,25.944,-0.0453,0.0242,9.9088,0.3565,0.7032,0.4832
6135,1123,809,33.983,25.966,-0.0162,0.0674,9.7894,0.2229,0.5551,0.9769
6140,1106,813,33.94,26.024,-0.0474,-0.0287,9.7541,-0.1293,0.1692,-0.7088
6145,1118,814,33.897,26.143,-0.0023,-0.0126,9.8588,0.297,0.0769,-0.4066
6150,1109,810,33.936,26.082,-0.0075,-0.0101,9.8426,0.5132,0.4643,-0.83
6155,1124,819,33.913,25.954,0.0678,-0.0246,9.847,0.0431,0.6311,-0.1696
6160,1099,819,34.004,25.968,-0.052,0.0502,9.8076,0.5562,0.0732,0.1536
6165,1107,816,33.948,26.006,0.0121,0.0773,9.789,0.1298,0.4033,0.5509
6170,1100,823,33.972,26.084,-0.006,-0.0263,9.817,-0.5678,0.0201,-0.3814
6175,1104,822,33.863,26.009,-0.0082,0.0706,9.7687,0.0726,-0.0242,-0.4904
6180,1108,829,33.925,26.046,0.0816,0.0141,9.844,-0.0127,0.2485,0.0633
6185,1095,823,34.009,25.984,0.0334,-0.005,9.7504,-0.5792,-0.699,-0.4526
6190,1095,827,33.908,25.952,-0.0238,-0.0114,9.9033,-0.3013,-0.4406,0.2581
6195,1093,829,33.948,25.97,0.0563,0.0256,9.799,0.0054,1.0109,0.2538
6200,1095,832,33.956,26.139,-0.0156,-0.0146,9.7572,0.3264,0.2104,-0.1993
6205,1089,834,33.87,26.012,-0.0921,-0.0554,9.7973,0.1585,0.5673,-0.3387
6210,1090,830,33.963,26.07,0.0182,-0.0184,9.6986,-0.3227,0.0431,-0.3477
6215,1092,834,33.931,25.968,0.0298,-0.0537,9.8207,0.4955,-0.21,-0.0121
6220,1089,832,33.899,26.057,0.0174,0.0369,9.8072,-0.7357,0.3887,0.7724
6225,1081,830,33.985,26.056,-0.0259,0.0007,9.74,0.3415,-0.822,0.521
6230,1083,835,33.987,26.037,0.0473,-0.0237,9.708,-0.5695,-0.8227,-0.4444
6235,1076,833,33.934,26.152,0.027,-0.0263,9.7691,0.2702,-0.0052,0.5654
6240,1087,837,33.932,26.083,-0.0106,0.0479,9.8316,0.4471,-0.0232,-0.385
6245,1075,840,33.905,25.943,0.0764,-0.0091,9.8182,1.1398,0.561,0.0558
6250,1081,835,33.927,25.98,0.0397,-0.0593,9.8027,0.0271,0.6011,0.5692
6255,1074,832,33.944,26.014,0.051,0.0216,9.8028,-0.6495,0.2291,-0.2928
6260,1060,837,33.963,25.982,0.1607,0.0312,9.7573,-0.5681,-0.2291,-0.0542
6265,1074,831,33.837,26.008,-0.0217,0.0451,9.8137,-0.3109,0.2087,0.3451
6270,1059,842,33.897,26.036,-0.0668,-0.0491,9.7885,0.2731,0.0472,-0.1978
6275,1074,841,33.943,25.928,0.0167,-0.0031,9.7744,1.3209,-0.1352,-0.0125
6280,1063,839,33.947,26.081,-0.0663,0.0279,9.8495,-0.1589,-0.849,-0.315
6285,1060,837,33.937,26.084,0.0245,0.0015,9.9066,0.4062,-0.5098,-1.1115
6290,1054,839,33.832,26.085,0.0124,-0.0482,9.7357,-0.8719,0.5422,-0.3759
6295,1055,838,33.942,26.122,-0.0368,-0.0429,9.7456,0.7407,0.7939,-0.386
6300,1049,840,33.914,26.071,0.0453,0.0386,9.7834,1.5066,-0.2149,0.2963
6305,1044,836,33.92,26.067,0.0439,-0.0688,9.8325,-0.1508,0.0831,-0.055
6310,1039,835,33.935,25.999,0.1073,-0.0051,9.7885,0.7644,0.361,0.6071
6315,1040,839,33.923,26.049,-0.0064,-0.025,9.8781,0.2936,0.0646,-0.0147
6320,1032,835,33.93,26.032,0.0185,-0.0003,9.9137,-0.1157,0.8507,-0.2055
6325,1025,840,33.938,26.032,0.0071,0.113,9.8188,1.1017,-0.097,0.0181
6330,1014,838,33.918,26.089,-0.0393,0.0004,9.8464,0.1904,-0.7189,0.582
6335,1027,837,33.887,25.998,0.03,0.0182,9.6943,0.5496,0.582,0.471
6340,1018,835,33.943,26.107,0.0159,-0.0296,9.7598,0.3852,0.2589,0.0291
6345,1008,834,33.92,26.125,-0.0225,-0.0614,9.8642,-0.2151,-0.439,-0.0602
6350,1000,828,33.981,26.097,-0.0364,-0.0078,9.7923,0.1031,-0.587,-0.2046
6355,989,830,33.884,26.088,0.0102,-0.0325,9.7683,0.1009,-0.7286,-0.8294
6360,993,835,33.976,25.997,-0.0098,-0.0044,9.7715,0.4163,-0.672,0.4274
6365,983,832,33.946,26.105,0.0053,0.0399,9.7617,-0.0976,-0.3372,0.2551
6370,979,835,33.965,26.158,0.0591,-0.0487,9.7912,-0.067,-1.3083,-0.3964
6375,973,830,33.89,26.006,0.0242,0.0151,9.8715,0.4588,-0.3224,-0.5362
6380,969,828,33.805,26.029,-0.0447,-0.0052,9.7591,-0.0781,0.3516,0.4699
6385,968,827,33.934,26.045,0.1076,-0.0423,9.8144,0.4706,-0.0877,0.5708
6390,957,834,33.918,26.109,-0.035,0.0239,9.855,0.029,0.1697,0.0647
6395,938,829,33.925,25.909,0.1014,-0.0459,9.8513,0.4229,0.1374,0.2385
6400,944,825,33.912,26.084,0.0152,0.1316,9.7848,0.1428,-0.5539,0.3418
6405,939,828,33.969,26.067,0.0499,-0.0191,9.7829,-0.0889,-0.6556,-0.8126
6410,925,826,33.862,26.057,-0.0627,-0.0119,9.7885,0.5843,0.7331,0.6513
6415,928,829,33.869,25.998,-0.0469,0.0774,9.7672,0.1071,0.2226,-0.2224
6420,915,828,33.938,26.011,0.0252,-0.0016,9.7984,-0.0121,-0.2985,0.095
6425,910,826,33.892,26.075,0.0077,-0.0649,9.77,0.2423,0.2818,-0.0062
6430,891,826,33.93,26.12,-0.0046,0.0324,9.8151,-0.2516,-0.2513,-0.4555
6435,892,824,33.875,26.049,-0.0089,-0.0208,9.7655,-0.456,-0.0738,0.0232
6440,888,826,33.952,26.043,0.0245,-0.0546,9.7907,-0.2598,-0.0575,0.4471
6445,878,821,33.942,26.067,0.0389,0.0328,9.7765,0.2121,-0.2471,-0.6687
6450,877,825,33.944,25.995,0.0452,0.0461,9.8631,-0.6601,-0.1144,-0.1177
6455,852,826,33.929,26.0,0.0204,-0.0717,9.7464,0.1176,-0.7787,0.5072
6460,850,824,33.837,26.056,0.1036,-0.0443,9.8832,-0.7496,0.5002,-0.4587
6465,841,822,33.897,26.065,-0.011,0.0871,9.7708,-0.0231,0.5127,0.1123
6470,836,822,34.004,25.934,-0.0869,-0.02,9.7851,-0.3639,0.4953,-0.5283
6475,836,822,33.863,26.066,-0.0178,0.032,9.8807,-0.2129,-0.1734,-0.2289
6480,827,824,34.008,26.053,-0.0095,-0.0986,9.7907,0.2365,-0.6403,-0.1047
6485,817,815,33.885,26.1,0.0233,0.0318,9.8249,0.2069,-0.3989,0.1733
6490,817,820,33.925,26.045,0.0216,0.0116,9.7384,-0.3626,0.2905,-0.8769
6495,811,821,33.95,26.077,0.0036,-0.0446,9.8258,-0.0882,-0.2465,0.0295
6500,801,819,33.94,26.019,-0.0382,-0.0302,9.7696,0.5451,0.1302,-0.7221
6505,798,821,33.907,26.03,-0.0376,-0.0131,9.7616,0.7059,0.5573,1.0372
6510,797,818,33.917,25.937,-0.0502,0.0194,9.8218,0.3006,-0.3478,-0.5365
6515,782,816,33.944,26.018,0.0254,-0.046,9.8889,-0.0191,-0.2908,0.1295
6520,788,821,33.989,26.074,0.0598,-0.0856,9.8162,0.547,-0.5701,-0.3277
6525,776,817,33.865,26.019,0.0301,0.0517,9.787,-0.937,0.0307,-0.4093
6530,764,821,33.943,25.981,0.0493,-0.0245,9.8761,0.2302,0.1574,0.752
6535,778,820,33.937,25.991,0.0339,0.0443,9.7457,-0.6929,0.3102,1.2618
6540,766,818,33.938,25.963,-0.0387,-0.0076,9.8046,-0.0131,0.2686,-0.11
6545,759,814,33.975,26.114,0.045,-0.0336,9.8096,-0.2521,0.7821,-0.4699
6550,763,814,33.956,26.072,-0.0709,-0.014,9.7507,0.4938,0.3297,0.3299
6555,753,812,33.948,26.155,0.0165,-0.008,9.8339,0.2888,0.0284,-0.3818
6560,759,812,33.958,25.959,-0.1146,-0.0369,9.6907,0.3262,0.2432,0.4984
6565,749,815,33.922,26.035,0.0013,-0.0368,9.8168,-0.3564,-0.2581,0.083
6570,745,815,33.98,26.072,0.0608,0.0331,9.7771,0.4286,-0.8796,-0.1675
6575,752,809,33.927,25.989,0.0357,-0.0299,9.8452,0.405,0.0839,0.0635
6580,749,813,33.895,26.017,0.0355,-0.0585,9.8145,0.104,-0.1401,0.1972
6585,745,813,33.933,26.065,-0.0774,-0.0822,9.7583,-0.5717,-0.147,0.5365
6590,749,812,33.906,25.989,-0.1407,0.1109,9.9108,-0.4347,-0.1846,-0.2395
6595,748,816,33.934,26.019,-0.0017,0.0574,9.73,0.5973,-0.3688,-0.4035
6600,752,813,33.993,26.065,-0.0332,-0.0845,9.8069,-0.4001,-0.5883,0.3115
6605,753,809,33.975,26.012,0.0543,-0.0709,9.8847,0.9198,0.5219,-0.0845
6610,760,808,33.836,26.073,0.0085,0.0972,9.8772,-0.3034,0.1039,0.1659
6615,755,810,33.908,25.968,0.0665,0.0536,9.7808,0.0686,0.1778,0.4001
6620,757,809,34.006,25.977,-0.0696,0.0259,9.8042,0.3938,-0.0591,-0.6815
6625,759,809,33.944,26.075,-0.0069,0.0226,9.7528,0.0826,-0.1298,0.14
6630,754,813,33.939,26.002,-0.0436,0.0608,9.7376,-0.3972,-0.2577,-0.0647
6635,774,810,33.905,26.017,-0.048,-0.0081,9.8067,0.154,0.1089,0.2864
6640,781,804,33.944,26.007,0.008,0.0414,9.8503,-0.2713,0.5914,-1.0342
6645,778,807,33.944,26.036,0.0042,0.0484,9.9434,0.002,-0.1338,-0.5927
6650,788,803,33.846,26.025,0.0922,0.0491,9.7883,-0.6087,1.0167,0.3126
6655,783,804,33.888,26.086,0.0656,-0.0391,9.8013,0.6047,0.2888,-0.0616
6660,804,807,34.006,26.053,-0.1223,0.0713,9.8671,0.0162,0.6459,0.9731
6665,806,798,33.96,26.116,0.0255,0.0415,9.8624,-0.827,-0.3311,-0.6047
6670,818,800,34.021,25.968,0.0245,-0.0163,9.7937,0.2955,0.6517,-0.5084
6675,815,802,34.021,25.977,-0.0469,0.0323,9.825,0.2766,0.4813,0.1108
6680,830,793,33.979,26.166,-0.0521,0.0376,9.8604,0.3421,0.442,0.2327
6685,841,790,33.957,26.124,0.0152,-0.0484,9.8213,-0.3032,-0.1301,0.3479
6690,850,794,33.918,25.98,-0.059,-0.0466,9.7426,0.5762,0.5531,-0.18
6695,857,794,33.866,26.049,0.0214,0.0207,9.8077,0.0908,-0.2378,0.8613
6700,866,795,33.898,26.067,0.0061,-0.0031,9.7733,0.2778,-0.8189,-0.1922
6705,876,793,33.944,26.05,-0.0159,0.0707,9.9197,-0.266,0.23,-0.1782
6710,877,789,33.939,25.981,-0.0349,0.0317,9.8157,0.5919,0.6854,0.3504
6715,896,790,33.963,26.113,-0.0558,-0.0332,9.7763,-0.7219,-0.048,0.6839
6720,899,783,33.876,25.985,0.0347,-0.0321,9.8236,-0.4132,0.6186,0.551
6725,913,783,33.96,26.076,-0.0058,0.0307,9.8763,0.5293,0.9019,-0.5942
6730,918,783,33.915,26.035,0.0328,-0.0263,9.7852,-0.0932,-0.2345,0.3928
6735,935,780,33.96,26.019,0.002,-0.0547,9.7735,1.0176,0.1818,0.2367
6740,939,779,33.909,26.06,-0.0128,-0.0138,9.7539,0.1705,-0.6886,0.0101
6745,954,777,33.908,25.961,-0.034,0.0648,9.8794,-0.3451,0.1002,0.3955
6750,954,776,33.923,26.088,0.1054,-0.0276,9.7993,0.5377,0.4136,-0.1085
6755,975,772,33.846,26.066,-0.1232,-0.02,9.8981,0.0361,0.8979,-0.453
6760,972,779,33.942,26.021,0.0269,-0.0192,9.7543,0.0884,-0.5036,0.3746
6765,991,770,33.948,26.058,-0.0168,-0.0656,9.7546,-1.0122,0.5313,-0.4329
6770,999,773,33.831,25.9,0.0964,0.0279,9.7879,0.4587,-0.0923,-0.4389
6775,1012,769,33.917,26.053,-0.0525,0.0754,9.7603,-0.2307,0.8349,0.4907
6780,1018,763,33.918,26.063,-0.1094,-0.0664,9.82,-0.5553,-0.5703,-0.2683
6785,1029,767,33.965,26.015,-0.0148,0.0572,9.7259,0.1374,-0.3581,-1.2221
6790,1039,759,34.001,26.027,0.0256,-0.0022,9.8194,0.372,-0.013,0.6818
6795,1043,761,33.888,25.939,-0.0287,-0.0149,9.8347,0.2015,0.2099,-0.1338
6800,1061,758,33.943,26.034,-0.1035,0.0048,9.823,-0.429,-0.2033,0.2447
6805,1070,761,33.961,26.108,0.051,-0.0399,9.822,0.073,0.4625,0.0037
6810,1074,759,34.027,26.055,-0.055,-0.0523,9.7905,-0.3631,0.3164,-0.0847
6815,1084,759,33.904,26.037,-0.1034,0.0184,9.8357,-0.2408,0.1372,0.1123
6820,1090,758,33.927,25.998,0.0426,-0.0483,9.8021,-0.0154,0.4614,-0.3409
6825,1096,759,33.883,26.058,0.0211,0.0939,9.8063,0.0983,0.1444,0.6011
6830,1105,755,33.95,26.063,-0.0581,0.0219,9.7384,0.4297,0.3733,0.7
6835,1112,757,33.902,25.991,-0.0022,-0.0526,9.7855,-0.4895,-0.5864,0.0092
6840,1121,760,33.892,26.149,0.0036,-0.0194,9.8483,0.0959,-0.0099,-0.0241
6845,1131,755,33.973,26.079,0.0398,0.0193,9.8389,-0.5286,-0.1091,-0.9193
6850,1129,748,33.957,25.993,-0.0062,0.0172,9.6968,0.368,-0.791,-0.4802
6855,1130,747,33.924,26.063,-0.0215,0.0244,9.8268,0.6114,-0.466,-0.1007
6860,1142,757,33.981,26.108,0.0031,0.0271,9.7579,-0.0634,0.3982,-0.6358
6865,1155,756,33.874,26.16,0.0195,-0.0329,9.86,0.0246,-0.5996,-0.1166
6870,1157,752,34.019,25.956,0.0251,-0.0196,9.7713,-0.0845,-0.0166,-0.4547
6875,1159,744,33.931,26.026,-0.027,0.0301,9.7453,-0.5374,0.1214,-0.0161
6880,1153,744,33.958,26.031,0.0388,-0.0865,9.8333,-0.1868,0.2261,-0.716
6885,1168,745,33.947,26.002,0.0716,0.0332,9.7126,-0.6251,-0.1604,0.7481
6890,1170,745,33.926,26.044,0.0029,-0.0291,9.8411,0.0937,-0.5334,0.4544
6895,1174,756,33.99,26.063,-0.0969,-0.0731,9.8321,0.6323,-0.3085,0.3518
6900,1171,749,33.921,26.059,-0.0664,-0.0118,9.8235,0.1913,-0.6624,-1.0202
6905,1178,744,33.927,26.0,-0.0493,0.0081,9.84,-0.0823,1.0948,1.1809
6910,1172,749,33.919,26.06,-0.0459,-0.0464,9.7987,-0.5146,0.269,-0.6319
6915,1188,751,33.947,26.032,0.0008,-0.0379,9.7985,0.0829,0.5524,0.0659
6920,1191,748,33.965,26.035,-0.0759,0.008,9.842,0.1942,0.3756,0.0225
6925,1183,749,34.018,26.049,-0.0034,0.055,9.7683,-0.0012,-0.4185,-0.1606
6930,1191,748,33.949,26.046,0.0481,0.044,9.7776,-0.7324,0.5714,-0.1063
6935,1187,750,33.862,26.039,0.0816,-0.0221,9.7336,-0.5663,-0.4706,-0.3445
6940,1188,754,34.023,26.1,0.0127,0.0474,9.8219,-0.3716,0.2616,-0.0459
6945,1178,747,33.923,25.933,-0.0051,-0.069,9.765,-0.2951,1.3621,0.4365
6950,1175,752,33.945,26.004,0.0802,0.0583,9.8583,0.5615,-0.6562,0.0331
6955,1190,749,34.036,26.015,-0.0,-0.0675,9.8,0.3851,0.2357,-1.5282
6960,1188,759,33.916,26.032,-0.0069,0.0576,9.7881,0.4917,-0.4565,-0.5082
6965,1188,759,33.967,25.996,0.0069,-0.0335,9.8171,-0.2289,0.6509,0.0991
6970,1191,761,33.903,26.024,0.0451,0.0407,9.8176,0.202,-0.2117,-0.2271
6975,1184,763,33.894,26.054,-0.0205,-0.0202,9.8545,0.2911,0.6817,0.1935
6980,1178,758,33.9,25.988,0.0546,-0.0693,9.7782,0.0774,0.8373,0.6167
6985,1174,761,33.909,26.056,0.0803,0.0069,9.8448,0.0156,-0.574,1.181
6990,1182,767,33.939,25.988,-0.0132,-0.0782,9.8459,-0.6127,-0.207,-0.4052
6995,1186,767,33.89,26.016,0.0081,-0.1174,9.796,-0.4736,-0.2454,-0.7196
7000,1176,769,33.932,26.049,0.0695,0.0357,9.8178,-0.1936,-0.0701,-0.3078
7005,1176,773,33.952,26.091,0.0128,-0.0292,9.8675,0.6099,-0.7756,-0.2543
7010,1170,767,33.97,26.0,-0.0227,-0.0636,9.786,0.1298,-0.2356,-0.0123
7015,1168,774,33.877,26.033,-0.0673,0.0453,9.8578,1.0112,-1.346,0.1346
7020,1170,765,33.938,26.007,0.0419,-0.1006,9.8376,0.548,0.6525,0.6684
7025,1158,771,33.923,26.065,-0.0067,0.0048,9.8531,0.2358,0.0294,-0.7918
7030,1149,781,33.904,26.062,-0.0227,-0.0275,9.8932,-0.5054,0.2807,0.0341
7035,1158,780,33.992,26.038,-0.0891,0.0525,9.807,-0.4907,-0.0228,-0.1233
7040,1151,788,33.991,26.061,-0.0291,-0.0294,9.835,-0.3001,-0.4729,0.2012
7045,1148,790,33.934,26.019,0.069,-0.045,9.7959,1.0748,-0.6726,0.5861
7050,1158,786,34.029,26.13,0.0152,0.0421,9.8285,0.3808,-0.8066,-0.3004
7055,1150,785,33.957,26.143,0.0609,-0.0688,9.7826,0.0251,0.8534,0.5539
7060,1147,788,33.877,26.015,-0.0563,0.0257,9.8029,-0.6753,-0.1077,0.316
7065,1136,789,33.984,26.045,-0.0842,0.0531,9.788,-0.0265,-0.9123,-0.6836
7070,1132,794,33.92,26.014,-0.0416,0.0742,9.8683,-0.6367,0.388,0.4021
7075,1135,795,33.963,26.022,0.0987,-0.0248,9.8378,-0.1595,0.3447,-0.3441
7080,1134,796,33.874,26.15,-0.0198,-0.0195,9.8293,0.7932,-0.4739,0.5434
7085,1129,807,33.916,26.067,-0.1033,-0.0277,9.9312,-0.5007,-0.2846,-0.5315
7090,1128,799,33.963,26.054,0.0629,-0.0004,9.7575,-0.7284,1.4108,0.5189
7095,1121,805,33.901,26.021,-0.0061,-0.0613,9.8644,-0.5072,-0.0496,-0.1655
7100,1104,806,33.954,26.074,0.0101,-0.063,9.9208,-0.0007,0.7071,-0.6515
7105,1112,809,33.913,26.009,0.024,0.0307,9.8359,0.0423,-0.5425,-0.3832
7110,1117,805,33.972,26.043,0.0077,-0.0705,9.8474,-0.1349,0.5151,0.4033
7115,1109,809,33.958,26.128,0.0078,0.0243,9.7847,-0.0846,0.9542,0.2428
7120,1112,818,33.974,26.091,-0.0612,0.0372,9.8263,-0.2274,1.0109,-0.3209
7125,1113,820,33.959,26.051,0.0342,-0.0094,9.8253,0.2073,-0.369,0.1406
7130,1117,814,33.971,26.077,-0.0695,-0.1168,9.8139,-0.1702,0.0119,-0.2406
7135,1110,816,33.961,26.098,-0.0311,-0.1119,9.7452,0.1202,0.7033,0.2628
7140,1104,821,33.97,26.104,0.0645,0.0459,9.7835,-1.0843,0.1985,0.5804
7145,1101,824,33.912,26.036,0.0917,0.0097,9.8219,0.4788,-0.1522,-0.5193
7150,1107,821,34.053,26.123,-0.0429,-0.0262,9.7828,-0.1873,0.2216,-0.7127
7155,1096,827,33.954,25.984,-0.0466,-0.0264,9.7636,0.5614,0.2501,-0.1114
7160,1100,822,34.006,26.088,-0.1039,-0.0732,9.8712,-0.1583,-0.0769,0.2307
7165,1095,831,33.914,26.006,0.0403,0.0389,9.9264,-0.5546,0.0369,-0.5014
7170,1097,832,33.828,26.016,-0.0166,0.0459,9.7855,-0.082,-1.2797,0.3299
7175,1098,829,34.041,26.067,0.0413,0.0255,9.817,-0.6495,0.8251,-0.1928
7180,1089,828,33.833,25.982,0.0604,0.0372,9.8671,-0.0176,0.1379,-0.5533
7185,1090,828,34.003,26.104,-0.0231,-0.0262,9.7841,-0.7556,0.2459,0.3952
7190,1090,831,34.002,26.127,0.0108,0.0023,9.7268,0.0791,0.4661,0.1236
7195,1086,832,33.933,26.038,-0.0114,-0.0231,9.7745,-0.2292,-0.6559,1.0526
7200,1081,834,34.003,26.009,0.1036,0.032,9.7613,-0.1209,0.8114,-0.2244
7205,1085,838,33.852,26.036,0.0455,0.0201,9.8448,0.0911,-0.0736,-0.3243
7210,1081,835,33.92,26.016,-0.0426,0.059,9.8553,-0.8189,-0.5015,-0.6413
7215,1081,839,33.948,26.103,-0.004,-0.0249,9.8023,-0.49,-0.3268,-0.5131
7220,1071,828,34.013,26.056,-0.0116,-0.0796,9.7971,0.1607,-0.403,-0.0869
7225,1072,833,33.876,26.013,0.054,0.0028,9.9038,0.1227,0.2816,0.4422
7230,1069,833,33.912,26.131,0.0839,-0.0065,9.7863,0.9552,0.2073,0.0046
7235,1066,832,33.989,26.059,0.0275,0.067,9.7877,0.347,0.0373,0.3449
7240,1059,840,34.02,26.145,-0.082,-0.0053,9.774,-0.2224,-1.0466,0.8285
7245,1076,834,34.003,26.017,0.0343,-0.0098,9.7624,0.4554,0.5557,-0.4853
7250,1063,834,33.904,26.049,-0.1118,-0.0632,9.8456,-1.0756,-0.3801,-0.4534
7255,1068,838,34.019,26.012,0.021,-0.0597,9.7851,0.2976,1.1191,-1.2415
7260,1059,836,33.866,26.096,0.0559,-0.1297,9.7462,-0.4995,-1.0823,-0.354
7265,1051,835,33.96,26.041,0.0019,-0.045,9.7655,0.0144,-0.3716,-0.8247
7270,1044,837,33.942,25.996,0.0301,0.0659,9.8245,-0.7671,-0.8966,0.3201
7275,1051,834,33.827,26.07,-0.0422,0.0037,9.8391,0.1807,-0.1156,-0.0623
7280,1051,831,33.846,26.005,0.0191,0.0382,9.7904,0.1085,-0.3906,0.204
7285,1039,838,34.03,26.039,-0.0886,0.093,9.7805,-0.9125,-0.5752,0.6222
7290,1037,836,33.934,25.992,0.0098,0.0672,9.7194,-0.2212,-0.3421,-1.387
7295,1022,834,33.939,25.982,0.1009,0.0328,9.8245,-0.1769,-0.3345,0.0634
7300,1018,835,34.029,26.107,0.0135,0.0037,9.7236,0.2072,-0.4544,0.3578
7305,1013,834,33.946,26.106,-0.1405,-0.0217,9.8463,0.4449,-0.2024,-0.2394
7310,1015,833,33.922,26.055,0.0197,0.0289,9.8814,0.3707,-0.6531,0.7014
7315,1010,838,34.036,26.032,0.0264,0.0064,9.7776,-0.7401,-0.4467,-0.1534
7320,997,834,33.965,26.078,0.0384,-0.0152,9.8615,0.3911,-0.1374,0.1183
7325,1004,830,33.9,25.997,-0.0465,-0.0242,9.8869,0.55,0.2719,-0.0106
7330,994,838,33.865,26.067,0.0871,-0.0014,9.8836,-0.329,0.654,0.1742
7335,989,828,33.915,25.984,0.0286,0.0708,9.8911,-0.1883,-0.3779,0.4397
7340,980,833,33.92,26.062,-0.0477,-0.0321,9.871,0.2143,0.036,-0.1009
7345,973,828,33.921,26.069,0.0168,-0.0195,9.8231,-0.0337,0.0913,-0.2778
7350,961,830,33.945,26.034,0.0297,-0.0003,9.7545,-0.4872,-0.737,0.3535
7355,959,826,34.03,26.088,0.0343,0.0122,9.9686,0.2916,-0.6491,-0.0367
7360,959,823,33.914,26.04,0.0031,-0.0418,9.8305,0.3507,0.062,0.5897
7365,944,835,33.95,26.023,-0.0393,0.0086,9.8964,-0.2614,-0.9406,0.4289
7370,940,826,34.008,26.111,0.0964,-0.0502,9.8719,-0.4228,-0.3663,-0.434
7375,941,826,33.902,25.963,0.0398,0.0935,9.7987,0.0998,-0.8422,0.1104
7380,932,829,33.919,26.048,-0.0171,-0.0862,9.7698,-0.0266,0.0177,-0.6664
7385,922,825,33.948,26.029,-0.0504,-0.0056,9.7869,-0.3928,0.2431,0.4655
7390,914,825,33.888,26.012,-0.0424,-0.0392,9.7349,-0.1986,-0.0333,-0.3156
7395,909,828,33.901,26.062,0.0042,-0.0565,9.7964,0.6075,0.695,0.2362
7400,907,828,33.921,26.011,0.0354,0.0092,9.8157,0.7963,-0.047,0.5154
7405,901,816,33.946,25.996,-0.0134,0.0495,9.8033,0.2999,-1.1113,0.5034
7410,883,825,33.928,26.123,0.0417,0.038,9.7803,0.0669,0.397,1.0239
7415,870,827,33.86,26.154,0.0356,0.089,9.8792,-0.0206,0.2932,-0.6508
7420,870,822,33.918,26.019,-0.1228,0.0049,9.7473,-0.748,-0.0151,0.3388
7425,864,820,33.95,26.069,0.031,-0.0661,9.7673,-0.0085,0.2737,0.5381
7430,842,826,34.029,26.022,0.1113,-0.0249,9.8132,0.2052,-0.4124,-0.2682
7435,845,819,33.959,25.998,-0.0024,0.0129,9.927,0.1363,0.4435,0.0221
7440,831,823,33.953,26.146,0.0149,0.0344,9.772,0.642,0.4629,1.0866
7445,833,822,33.951,26.045,0.0744,-0.0679,9.7598,0.559,-0.6607,-0.2051
7450,826,823,33.989,26.131,0.0426,-0.0356,9.8898,-0.8896,0.4649,0.9697
7455,824,819,33.939,26.008,0.0944,-0.0533,9.7545,0.0958,-1.7517,-0.0644
7460,818,817,33.99,26.0,-0.0489,0.0565,9.8309,0.3771,-0.08,0.6928
7465,812,824,33.932,26.099,0.0007,-0.0257,9.8302,0.1167,0.7201,0.0749
7470,802,816,33.99,26.004,0.0025,-0.0433,9.8211,-0.7843,-0.2687,0.0085
7475,797,822,33.857,25.996,-0.0228,0.0465,9.8132,0.2727,-0.5259,-0.0606
7480,782,814,33.812,26.057,0.0743,0.0113,9.721,0.427,0.0247,-0.9224
7485,789,816,33.941,26.051,-0.0094,-0.0183,9.8718,-0.7978,-0.2212,-0.568
7490,775,820,33.963,26.022,-0.0383,-0.0516,9.8779,0.2144,-0.3121,0.1782
7495,770,823,33.951,26.048,0.0582,-0.0934,9.8816,0.5392,-0.0638,0.3691
7500,775,817,34.032,25.979,-0.0016,0.0136,9.9344,-0.4968,0.1592,-0.0586
7505,759,812,33.904,26.076,-0.032,-0.035,9.7668,-0.601,-0.5902,0.4089
7510,767,819,33.941,26.104,0.044,0.013,9.7882,-0.5669,0.1838,-0.1399
7515,769,815,33.938,26.069,-0.0356,0.0023,9.83,0.3851,0.5171,-1.3213
7520,763,820,33.963,26.056,0.032,-0.0618,9.8472,0.5031,0.5083,0.3029
7525,755,821,34.008,26.033,0.0461,0.0185,9.7777,-0.2418,-0.0814,0.1336
7530,747,814,33.95,26.012,0.0464,0.0367,9.8102,-0.0256,0.3006,-0.5584
7535,756,810,34.005,26.073,0.0329,0.0386,9.8102,-0.4225,0.2524,0.8674
7540,746,809,33.95,25.995,-0.0443,-0.0396,9.734,-0.8133,-0.3252,0.1104
7545,743,817,33.872,26.075,0.0712,-0.0016,9.7985,0.3554,-0.2142,0.9525
7550,741,811,33.903,26.042,-0.0082,-0.034,9.8811,0.7601,-0.4277,0.6449
7555,750,810,33.975,26.061,-0.0896,0.0057,9.9501,0.1173,-0.0383,0.9916
7560,750,812,33.972,25.995,0.0258,0.0315,9.8597,-0.0068,-0.1214,1.2803
7565,753,815,33.958,26.089,0.0267,0.0156,9.7865,0.3436,0.3542,-0.1753
7570,749,808,33.914,26.009,-0.0399,-0.1119,9.7684,-0.5117,0.708,0.1118
7575,753,811,33.92,26.049,0.0684,0.0205,9.8402,0.3913,0.9325,-0.4103
7580,756,810,33.928,26.054,0.0379,-0.0069,9.7735,0.7655,0.1321,-0.3221
7585,758,811,33.974,26.058,0.0538,-0.02,9.8885,0.4377,-0.0794,0.2842
7590,761,812,33.865,26.142,0.0082,-0.0263,9.8097,-0.1189,-0.453,-0.2366
7595,762,807,33.948,26.01,-0.0704,-0.0336,9.8221,0.5483,0.1221,-0.3893
7600,768,809,33.954,25.993,-0.0076,0.0161,9.8361,-0.3339,-0.6491,0.3944
7605,775,813,33.93,26.071,0.0492,-0.0685,9.8289,0.3217,0.1243,-0.0455
7610,777,805,33.849,26.071,0.0068,0.0238,9.8427,0.5365,-0.3649,0.3442
7615,785,801,33.917,25.969,0.0136,0.0106,9.7987,0.091,0.419,0.1079
7620,792,807,33.858,26.025,-0.0286,0.0532,9.7738,0.5491,-0.0331,-0.7892
7625,802,802,33.99,26.097,-0.0197,-0.1027,9.8285,0.25,0.5535,0.8079
7630,792,803,33.932,26.059,0.0483,-0.0036,9.7726,0.4128,0.7235,-0.3747
7635,805,799,33.953,26.022,-0.0955,0.0326,9.8892,-0.5319,0.3193,-0.5133
7640,817,797,33.855,26.018,-0.0393,0.0189,9.7742,0.0778,0.0938,-0.631
7645,822,798,33.941,25.967,-0.0912,-0.0463,9.8732,0.6566,-0.5062,-0.4049
7650,826,798,33.895,26.139,0.0339,0.0564,9.8778,-0.5841,-0.3818,-0.2027
7655,838,797,33.965,26.01,-0.0294,-0.0332,9.7808,-0.5231,-0.729,-0.0352
7660,841,793,33.902,26.051,-0.0591,0.01,9.7679,0.1873,-0.3485,-0.6356
7665,845,792,33.924,25.967,-0.055,-0.0138,9.8458,0.2339,-0.6627,0.753
7670,861,793,33.948,26.029,-0.0543,-0.0349,9.7975,-0.207,0.1226,-0.1281
7675,868,788,33.886,26.074,-0.0209,-0.0905,9.8625,0.1864,0.9878,-0.4138
7680,877,789,33.929,26.029,-0.0588,0.0315,9.8226,1.0135,0.548,-0.7195
7685,896,783,33.953,26.038,-0.0443,0.04,9.8295,0.2693,-0.468,-0.6591
7690,894,780,33.948,26.001,0.0373,0.0011,9.7584,-0.4052,0.429,-0.1972
7695,916,789,33.975,26.065,-0.0381,-0.0668,9.766,-0.0479,0.4647,0.0129
7700,927,784,33.922,26.111,-0.0071,0.0175,9.7932,-0.5962,-0.4377,0.1272
7705,935,783,33.989,26.014,0.137,0.002,9.9099,0.2957,-0.3933,0.5953
7710,934,783,33.909,26.016,0.0108,-0.0283,9.8205,0.0626,0.02,-0.0146
7715,945,780,33.899,26.097,0.0627,-0.0094,9.8999,0.6155,-0.5753,0.0021
7720,969,778,34.023,26.055,-0.0294,-0.0281,9.8407,0.7252,0.3478,-0.5528
7725,968,774,33.912,26.025,-0.1075,-0.0125,9.8066,-0.3407,-0.7511,0.6119
7730,978,777,33.985,26.044,-0.022,-0.0022,9.8804,-0.7195,0.3955,0.1727
7735,990,771,33.877,26.079,-0.0149,0.0275,9.7316,0.0038,0.7701,-0.1163
7740,995,767,34.037,25.997,0.0078,0.0042,9.7772,-0.1561,0.424,-0.5775
7745,1008,770,34.03,26.067,-0.0127,-0.0879,9.8448,-0.0846,-0.7983,-0.0516
7750,1017,769,33.934,26.099,0.0551,-0.0082,9.7475,-0.3209,-0.928,0.8063
7755,1020,770,33.823,25.987,-0.19,0.0126,9.9151,0.6988,0.2731,0.1243
7760,1039,764,33.912,25.972,-0.0331,0.0096,9.8474,0.8162,0.4774,0.6422
7765,1044,764,34.024,26.064,0.0063,0.0496,9.771,-0.607,-1.0725,0.5136
7770,1055,758,33.994,26.005,-0.001,-0.0231,9.7419,0.1266,0.5515,-0.4378
7775,1067,763,33.968,25.962,0.0161,0.0696,9.812,0.384,-0.8841,0.6252
7780,1072,763,33.961,25.963,0.0317,-0.0043,9.7912,-0.8971,0.2656,-0.0174
7785,1084,752,33.903,25.939,0.0166,-0.0354,9.8447,0.3051,-0.2116,0.5504
7790,1082,759,33.885,25.984,0.0007,-0.0172,9.8184,-0.4272,-0.3817,0.0739
7795,1094,760,33.954,25.983,-0.0124,0.0197,9.8419,0.7133,-0.8927,0.1579
7800,1105,751,33.972,26.103,0.0277,0.0163,9.7942,0.0887,0.3947,-0.2399
7805,1107,755,33.975,26.058,-0.0026,-0.022,9.8074,0.3911,-0.5254,-0.1828
7810,1123,757,33.884,26.064,0.0134,-0.104,9.8185,0.052,-0.0356,0.4802
7815,1126,754,34.005,25.947,0.0474,-0.0153,9.7569,-0.8916,0.1964,-0.3004
7820,1133,753,33.947,25.985,0.0306,0.0521,9.8079,-0.2717,-0.1392,-1.0276
7825,1143,756,33.912,26.114,-0.0115,0.0383,9.8272,0.1618,-0.7195,-1.2168
7830,1144,752,33.997,26.002,-0.0199,-0.0133,9.8077,-0.5513,0.4397,-0.5993
7835,1148,746,33.893,26.083,-0.0029,-0.0018,9.7668,-0.9806,-0.5561,0.1862
7840,1158,749,33.915,26.024,-0.0266,-0.0065,9.8658,-0.2626,-0.0254,-0.391
7845,1157,746,34.074,25.922,0.0464,0.0148,9.8059,0.1921,0.6943,0.0817
7850,1163,751,33.919,26.043,0.0543,-0.0659,9.7878,1.1345,0.2164,1.0866
7855,1172,746,33.92,26.082,-0.0146,0.0552,9.7848,0.3674,-0.5543,-0.0441
7860,1174,749,33.989,26.041,-0.0191,0.0816,9.7652,1.4766,0.1269,0.3509
7865,1177,748,33.945,26.008,-0.0502,0.0496,9.8391,-0.1471,0.1266,-0.3464
7870,1179,750,33.926,26.063,-0.0659,-0.041,9.842,0.6688,0.0081,0.4249
7875,1176,751,33.885,26.008,-0.0753,0.0539,9.7702,0.2665,0.2541,-0.2959
7880,1182,744,33.917,26.009,0.0248,0.0998,9.7839,1.08,-0.1099,-0.0309
7885,1186,749,33.923,26.02,-0.0037,-0.0495,9.8723,-0.525,0.1632,0.6816
7890,1185,749,33.898,26.057,-0.0122,0.0497,9.858,-0.5215,0.1162,-0.021
7895,1196,753,33.952,26.052,0.1181,-0.0138,9.7983,0.413,0.4955,0.2411
7900,1180,748,33.891,26.036,-0.0282,-0.002,9.8817,0.3604,0.2713,0.7751
7905,1176,755,33.995,26.031,0.023,-0.0569,9.8446,-0.1825,-0.4653,0.2792
7910,1187,753,33.965,26.026,0.0386,0.0224,9.7555,0.2119,0.087,-0.5096
7915,1189,752,33.97,26.083,-0.0143,0.0341,9.8384,-0.3492,-0.3762,-0.1805
7920,1185,757,33.873,26.115,0.0355,-0.0323,9.8901,-0.151,0.0022,0.6274
7925,1187,756,33.855,26.057,-0.0293,0.0402,9.8088,-0.1666,-0.1503,0.924
7930,1192,755,33.944,26.023,0.1154,0.0306,9.7308,-0.6231,-0.3893,0.2745
7935,1182,756,33.937,26.094,-0.0844,-0.086,9.7592,0.5899,-1.0031,-0.1586
7940,1186,752,33.954,26.062,0.0215,-0.0868,9.7434,0.2999,-0.2542,-1.0191
7945,1186,758,33.903,26.077,-0.034,0.0033,9.9014,0.1322,0.48,0.3888
7950,1186,760,33.999,26.039,-0.0855,-0.0424,9.7498,-0.2031,0.4569,-0.8086
7955,1174,767,33.95,26.025,-0.0471,0.0234,9.8646,0.4511,0.5071,0.935
7960,1180,768,34.022,26.066,-0.0574,0.0916,9.8147,-0.5474,0.6158,0.1656
7965,1174,761,33.942,25.991,-0.0162,-0.0634,9.8025,-0.9723,-0.2991,0.466
7970,1180,766,34.019,26.039,-0.0532,-0.0846,9.8761,0.0132,-0.2257,0.2199
7975,1170,773,33.977,26.022,0.0193,-0.0077,9.7427,0.4069,-0.1118,-0.3843
7980,1180,769,33.894,26.022,-0.0592,-0.024,9.7373,0.0255,-0.068,-0.0048
7985,1169,772,33.951,26.036,-0.0434,0.0744,9.7345,0.7868,0.1426,0.5254
7990,1155,771,33.986,25.998,-0.0151,0.0584,9.7107,-0.0934,0.1185,-0.6266
7995,1161,775,34.003,26.112,0.0399,0.0664,9.797,1.1019,-0.1472,0.1383
8000,1162,778,33.901,25.967,-0.0101,0.0668,9.8411,0.8125,-0.3423,-0.2285
8005,1157,785,33.901,26.07,-0.0124,-0.0525,9.719,0.0085,0.4994,-0.3995
8010,1156,779,33.836,26.057,0.0792,0.1244,9.7438,-0.0307,0.7035,-0.2738
8015,1151,787,33.996,26.101,0.0877,-0.0219,9.7919,0.1786,-0.2971,-0.2634
8020,1146,790,33.945,26.087,-0.0141,-0.0593,9.8119,0.5261,-0.6174,-0.367
8025,1150,788,33.973,26.025,0.0211,-0.0466,9.7057,0.5902,-0.451,0.6592
8029,1145,791,33.986,26.124,0.0966,-0.0604,9.7656,0.1493,0.3362,-0.0828
8035,1138,796,33.911,26.057,-0.0395,-0.0372,9.864,-0.6214,-0.186,-0.0045
8039,1139,792,33.988,26.085,0.0227,-0.079,9.8632,-0.2553,-0.0364,0.1207
8045,1136,798,33.971,26.131,0.0408,-0.0563,9.8996,-0.1484,-0.8624,-0.7152
8050,1132,798,33.895,26.022,0.0013,-0.0087,9.8932,0.4388,0.6459,0.579
8055,1127,804,33.912,26.023,0.0086,-0.084,9.8323,0.3315,0.013,0.6373
8060,1125,801,34.051,26.111,0.0684,-0.0232,9.8182,0.7482,-0.1564,0.023
8064,1133,803,33.969,26.098,-0.105,0.0016,9.7852,-0.2479,0.1642,0.3393
8070,1113,809,33.91,26.125,-0.0073,0.0579,9.8626,0.0625,0.1691,0.7162
8074,1124,810,33.928,25.925,-0.0358,0.0226,9.7895,-0.0559,-1.4069,-0.6131
8080,1119,810,33.922,26.034,-0.024,-0.064,9.8099,1.0566,0.0994,0.7149
8085,1116,816,33.929,26.05,0.0176,-0.1246,9.8037,0.2825,-0.3337,0.161
8090,1115,812,33.918,25.959,0.0042,0.0667,9.807,-0.2674,0.0097,-0.5001
8095,1105,818,33.893,26.049,0.0029,-0.0693,9.7358,0.0336,-0.3459,0.4919
8100,1107,812,33.953,25.95,0.0783,0.0756,9.7552,0.3333,-0.2294,0.7479
8105,1111,820,33.915,26.035,0.0135,-0.0007,9.7851,0.1489,0.1292,0.614
8109,1110,817,33.886,26.025,0.0773,-0.0352,9.7713,-0.2217,-0.1073,0.1263
8115,1107,820,33.874,26.025,-0.0592,0.0117,9.8013,0.2351,-0.7657,-0.1767
8119,1106,822,33.965,26.083,0.0546,0.0023,9.788,-0.335,0.2617,-0.1302
8125,1098,822,34.034,25.988,-0.1389,0.0916,9.8564,-0.0603,0.2078,0.2154
8130,1101,822,33.933,26.14,-0.0194,-0.0973,9.8194,0.5506,-0.2969,0.2675
8135,1089,828,33.876,26.036,0.039,0.0765,9.84,0.611,0.0173,0.3002
8140,1089,830,33.877,26.068,-0.0831,-0.0114,9.84,0.6659,0.0122,0.3445
8145,1097,832,33.957,26.089,-0.0137,-0.0166,9.8236,0.3261,0.0674,-0.0363
8150,1088,829,33.909,26.086,0.049,-0.0612,9.7939,0.3501,-0.1374,0.3332
8154,1086,832,33.959,26.006,-0.055,0.0478,9.7744,0.652,0.134,-0.0421
8160,1086,834,33.929,26.009,0.1319,-0.013,9.8938,-0.6614,0.1079,-0.6302
8164,1092,835,33.845,25.945,-0.0446,0.0557,9.8295,-0.3444,0.1113,-0.4414
8170,1077,836,33.878,26.091,-0.0666,-0.0587,9.8523,0.0372,-0.1546,-0.3029
8175,1081,834,33.971,26.007,0.1005,-0.0373,9.8603,-0.0658,0.6409,-0.7217
8180,1077,835,33.99,26.105,-0.0166,-0.0893,9.8174,-0.2293,0.6564,-0.6965
8185,1081,839,33.855,25.967,0.0793,0.0094,9.8814,0.4088,0.3233,-0.1348
8189,1083,835,34.008,26.04,0.0518,0.0086,9.8411,1.0011,0.7029,-0.6493
8195,1076,837,33.981,26.036,-0.0432,0.0788,9.7638,-0.6119,0.1793,-0.6045
8200,1073,843,33.934,26.087,-0.0572,0.0501,9.7964,0.2146,-0.9539,0.2387
8205,1061,835,33.929,25.997,0.0345,-0.0257,9.8826,0.4105,0.7593,-0.1435
8210,1064,839,33.936,26.049,-0.004,-0.0561,9.852,-0.6646,0.2522,-0.0023
8215,1066,833,33.897,25.986,-0.0438,0.0659,9.8655,0.243,-0.3892,-0.4521
8220,1058,841,33.95,26.088,0.0088,-0.0354,9.7531,-0.3349,-0.3777,0.3039
8225,1051,837,34.005,26.078,-0.028,-0.0851,9.8282,0.9398,-0.3697,0.1823
8230,1051,838,33.967,26.077,0.0195,-0.0471,9.8262,-0.8378,0.4726,-0.2407
8235,1044,837,33.951,26.008,-0.0427,0.0228,9.8497,0.4371,-0.122,0.4983
8240,1042,834,33.971,26.04,0.0791,0.0547,9.8155,-0.9587,0.1039,-0.1459
8245,1046,842,34.02,26.094,0.0065,-0.0373,9.7687,0.1055,0.3553,0.228
8250,1043,832,33.923,26.092,0.0549,-0.033,9.7318,0.3957,-0.7968,-0.2272
8255,1031,834,33.902,26.121,0.0092,-0.0071,9.8281,-0.7217,0.3845,0.4672
8260,1032,834,34.018,25.976,0.0236,-0.0657,9.9017,-0.0486,0.1273,-0.6252
8265,1037,834,33.972,26.121,-0.0049,0.0152,9.8272,-1.0119,-0.5898,0.4531
8270,1020,833,33.946,26.1,-0.0238,0.0125,9.8544,0.1262,-0.524,-0.4018
8275,1021,836,33.9,26.017,0.0734,0.004,9.7238,0.0741,0.3283,0.2378
8280,1015,834,33.994,26.08,0.0007,-0.0376,9.7718,0.211,0.1367,-0.3517
8285,1005,833,33.965,25.975,0.0144,0.0629,9.8516,-0.8746,0.9316,-0.3122
8290,1002,838,33.823,26.091,-0.014,-0.0364,9.8574,-0.1,-0.2427,0.323
8295,1000,835,34.02,26.021,-0.0779,-0.0859,9.8484,-0.12,0.871,-0.6116
8300,996,836,33.921,26.092,0.0828,0.0349,9.8193,0.1641,-0.6746,-0.1675
8305,993,834,34.001,26.057,-0.0025,-0.0271,9.9157,0.5641,0.7853,0.3327
8310,985,836,33.899,26.104,0.025,-0.006,9.8739,0.3362,0.4597,0.0032
8315,964,835,34.023,26.12,0.0255,-0.0218,9.8393,0.6559,0.2652,0.8688
8320,966,827,33.966,26.063,0.0399,0.0902,9.707,-0.2943,-0.3341,-0.1425
8325,955,832,33.954,25.981,0.0617,-0.0488,9.8154,0.164,0.2366,0.3477
8330,954,828,33.946,26.089,-0.0405,0.0293,9.8673,0.0978,-0.0036,-0.099
8335,945,832,33.958,26.055,0.0262,-0.0186,9.8385,-0.1504,0.8009,0.0032
8340,938,822,33.962,26.1,0.0211,0.0642,9.8145,-0.0012,-0.1912,-0.8203
8345,940,836,33.898,25.988,-0.0151,0.0434,9.796,-0.1039,0.1018,0.3427
8350,932,829,33.94,25.994,-0.0227,-0.0049,9.805,-0.6661,-0.0154,-0.3965
8355,916,827,33.996,26.068,0.0215,-0.0121,9.8345,0.5907,-0.5895,-0.009
8360,911,821,33.914,26.033,0.0281,0.1008,9.763,-0.3344,-0.6625,0.9805
8365,903,825,33.825,26.065,-0.0548,-0.0331,9.7703,-0.5457,-0.7499,-0.1605
8370,905,827,33.96,26.078,0.061,0.0311,9.8215,0.431,-0.0462,0.3816
8375,895,821,33.843,25.981,-0.004,-0.0595,9.8879,0.7213,0.2715,0.1963
8380,882,822,33.918,26.048,0.0396,-0.047,9.8123,0.1161,0.2052,-0.5761
8385,872,830,33.916,26.016,-0.019,-0.0435,9.8138,-0.2124,-0.2659,-1.0719
8390,870,821,34.033,26.062,-0.1097,0.0442,9.766,-1.1154,-0.1854,0.5767
8395,857,824,33.866,26.019,0.0577,0.0512,9.8412,-0.3922,-0.1077,0.5439
8400,855,828,33.984,26.05,0.0141,0.0205,9.7525,0.2355,-0.4703,-0.0763
8405,847,817,33.947,26.063,0.0216,-0.0914,9.8361,1.3589,0.008,-1.0005
8410,846,824,33.932,26.114,0.0025,-0.0377,9.8243,0.082,-0.8472,-0.0329
8415,832,820,33.962,26.063,0.0144,-0.0228,9.8278,-0.1195,0.1863,0.0025
8420,819,823,33.863,26.057,-0.0622,-0.0519,9.8453,0.4631,-0.126,-0.1751
8425,822,822,34.002,26.088,0.1189,0.0148,9.793,-0.089,0.2943,0.4099
8430,821,826,33.925,26.109,-0.0696,0.0006,9.8156,-0.3027,0.4882,-0.1904
8435,803,818,33.952,26.064,-0.0791,-0.0214,9.8343,0.0548,-0.4339,-0.1556
