timestamp_ms,ir_finger,ir_toe,temp_finger,temp_toe,ax,ay,az,gx,gy,gz
0,1049,653,34.449,33.527,0.0474,0.009,9.8831,0.2957,0.1628,0.0123
5,1054,662,34.404,33.614,0.1075,-0.017,9.8878,-0.3128,-0.895,0.5392
10,1064,667,34.418,33.57,-0.0171,0.0016,9.8947,0.0328,-0.1216,0.3205
15,1077,670,34.32,33.592,-0.0046,0.0585,9.841,-0.6123,0.4679,0.5539
20,1090,677,34.452,33.623,-0.079,-0.0071,9.8042,0.7359,-0.2116,0.5321
25,1092,682,34.456,33.654,-0.0958,-0.0386,9.7469,-0.2638,1.0366,1.2108
30,1091,687,34.404,33.626,0.0555,-0.0585,9.7991,-0.3747,0.5702,0.7539
35,1108,698,34.422,33.618,0.0214,-0.0156,9.7787,0.2612,-0.364,-0.0812
40,1114,703,34.565,33.592,-0.0002,0.0916,9.7855,-0.6174,0.0051,0.2685
45,1128,706,34.431,33.602,0.1083,0.0346,9.8618,0.2544,0.4067,-0.187
50,1128,716,34.498,33.598,-0.0023,0.0296,9.8565,-0.4185,-0.0803,-0.6738
55,1136,722,34.39,33.587,0.0813,-0.0081,9.8243,-1.3617,0.4911,-0.6816
60,1153,731,34.347,33.612,-0.0938,-0.0584,9.815,0.098,0.3817,-0.2162
65,1155,744,34.417,33.634,0.1184,-0.0232,9.7967,0.3215,0.2064,0.0558
70,1157,746,34.448,33.53,-0.0589,0.0255,9.7757,0.404,-0.2507,-0.4185
75,1167,750,34.412,33.578,-0.0277,-0.0411,9.8048,0.0962,0.1642,-1.0121
80,1168,765,34.469,33.617,0.0063,0.0603,9.7654,0.2222,-0.1279,-0.499
85,1175,769,34.304,33.654,-0.0075,-0.0247,9.8108,0.6142,0.4106,0.7543
90,1169,784,34.48,33.523,-0.0977,0.0006,9.8306,0.306,0.2265,-0.9028
95,1175,784,34.491,33.514,-0.0192,-0.1735,9.8233,0.3044,-0.4344,-0.162
100,1174,796,34.442,33.608,0.0561,-0.0135,9.8165,0.0353,0.1613,0.0852
105,1185,799,34.545,33.626,0.0046,0.0844,9.9215,-0.0389,-0.4816,0.7693
110,1185,808,34.414,33.614,-0.089,-0.0122,9.7978,-0.0428,0.7463,0.9373
115,1192,816,34.404,33.641,0.0466,-0.0983,9.8207,0.7296,0.0371,0.2173
120,1185,828,34.477,33.603,0.042,0.0176,9.854,0.0933,-0.5862,-0.0626
125,1188,835,34.548,33.626,-0.0266,0.0596,9.7869,-0.4375,0.114,0.0931
130,1184,839,34.332,33.554,-0.0497,0.0326,9.8014,-0.5265,-0.12,0.199
135,1185,848,34.394,33.625,-0.0484,-0.0542,9.7731,-0.6695,0.1078,-0.1412
140,1193,857,34.451,33.604,0.0284,0.0242,9.7916,-0.0221,-0.1104,0.4825
145,1186,855,34.392,33.574,0.042,-0.0569,9.8062,-0.7069,0.3912,0.3102
150,1187,865,34.41,33.595,-0.059,-0.0486,9.8256,-0.6838,0.7693,-0.7117
155,1186,870,34.436,33.604,-0.0276,0.033,9.8625,0.4337,0.3787,0.1075
160,1189,875,34.447,33.569,0.043,0.0084,9.801,-0.4785,0.2796,1.0505
165,1173,884,34.365,33.52,0.0038,-0.0404,9.8302,0.4081,0.0213,-0.3036
170,1184,887,34.317,33.59,0.0591,0.0083,9.8222,-0.1026,-0.7255,0.0893
175,1184,894,34.389,33.594,0.0461,0.0118,9.8401,0.6039,-0.0437,-0.3532
180,1176,905,34.46,33.583,-0.022,-0.0065,9.7547,1.1241,0.1437,-0.3657
185,1163,903,34.386,33.585,0.0571,-0.0008,9.8716,0.1018,0.6038,-0.6701
190,1162,904,34.365,33.536,0.0728,0.0261,9.7189,0.0876,0.1628,0.4387
195,1168,914,34.47,33.557,-0.1059,0.0721,9.8363,0.4044,0.3905,-0.1639
200,1164,912,34.336,33.596,-0.06,-0.0296,9.7994,-0.3011,0.2939,0.3
205,1166,918,34.49,33.577,-0.0188,-0.0124,9.855,-0.1688,0.7026,0.3409
210,1161,919,34.478,33.536,-0.0168,0.0479,9.87,-0.2624,0.0631,-0.1013
215,1154,919,34.428,33.581,0.0235,-0.0752,9.8066,0.12,-0.5145,0.0877
220,1147,926,34.32,33.567,0.0439,0.0211,9.7846,0.2545,-0.6174,0.0136
225,1141,930,34.454,33.583,0.0053,0.0552,9.7258,1.091,0.1141,-0.1723
230,1147,930,34.48,33.566,-0.0672,0.0091,9.7859,-0.2816,-0.3293,-0.7372
235,1138,931,34.363,33.573,-0.0167,-0.0473,9.789,0.1942,-0.0047,0.0923
240,1128,926,34.469,33.565,-0.0205,0.0149,9.8159,-0.1234,0.0745,0.0429
245,1127,928,34.403,33.482,0.0129,-0.0851,9.7511,-0.4414,0.5296,-0.4165
250,1137,928,34.432,33.645,-0.0751,-0.0219,9.8062,-0.2507,-1.0449,-0.3224
255,1124,929,34.389,33.622,-0.0206,0.0613,9.8356,-0.0842,-0.5206,-0.335
260,1123,927,34.411,33.591,-0.0305,-0.0201,9.8024,0.0021,-0.1023,0.3224
265,1118,930,34.483,33.629,-0.0126,-0.0394,9.7488,0.52,0.279,0.7373
270,1121,928,34.49,33.626,-0.0315,-0.0659,9.8045,0.5448,-0.2867,-0.2375
275,1119,930,34.483,33.616,0.0086,-0.0386,9.7838,0.2799,0.2489,0.3871
280,1121,923,34.445,33.542,0.0842,-0.0754,9.8573,0.0386,0.1518,0.0193
285,1116,918,34.478,33.507,0.001,-0.0429,9.7973,0.0894,0.3316,-0.1587
290,1114,923,34.485,33.511,-0.0341,-0.0542,9.8617,0.2841,0.5535,0.3414
295,1102,919,34.42,33.496,-0.0318,0.009,9.7388,0.1743,-0.2206,0.3585
300,1105,921,34.377,33.552,-0.037,-0.0452,9.7757,-0.3019,0.3975,-0.2156
305,1101,917,34.385,33.636,-0.0562,0.0443,9.8937,-0.0998,-0.7842,-0.2178
310,1106,911,34.422,33.584,-0.0719,-0.0352,9.779,0.8528,0.1104,-0.2778
315,1108,919,34.317,33.609,0.0763,0.0565,9.8466,0.7772,0.076,0.15
320,1094,908,34.341,33.579,-0.0444,-0.0516,9.7659,-0.4224,-0.9123,-0.5502
325,1093,907,34.379,33.637,0.0286,-0.0018,9.8097,0.2419,-0.1208,-0.0738
330,1086,909,34.4,33.609,-0.0057,0.0509,9.8784,0.3366,-0.4212,-0.4241
335,1084,904,34.492,33.526,-0.0204,0.0274,9.867,-0.1649,0.0574,-0.0854
340,1087,902,34.396,33.658,-0.0138,-0.1054,9.7792,-0.152,0.0623,0.5245
345,1086,897,34.396,33.6,0.0763,-0.0756,9.7836,-0.5062,0.4821,0.9429
350,1084,895,34.345,33.657,0.0188,0.0283,9.8427,0.3115,0.6024,-0.4534
355,1081,893,34.361,33.683,0.0055,0.0538,9.9381,-0.2843,0.2173,-0.2114
360,1086,887,34.457,33.53,-0.0561,0.0002,9.816,-0.8038,0.5325,-0.4144
365,1081,893,34.463,33.627,-0.0632,0.0625,9.8346,-0.127,-0.0234,-0.0604
370,1065,887,34.419,33.551,-0.0408,-0.055,9.8447,-0.3961,0.0628,0.0497
375,1070,886,34.43,33.558,-0.0015,0.0045,9.8911,-0.8398,0.3281,-0.3227
380,1064,883,34.412,33.623,-0.0019,-0.0306,9.8178,-0.8139,-0.2158,0.5826
385,1063,886,34.463,33.597,0.0888,0.0619,9.8355,0.8624,-0.0323,0.6924
390,1056,886,34.423,33.562,0.1038,-0.0439,9.9171,-0.1246,0.1562,-0.039
395,1053,882,34.415,33.573,0.0254,0.0215,9.8525,0.2429,-0.0204,-0.1123
400,1059,877,34.492,33.578,0.0487,0.0055,9.8708,0.041,-0.1171,0.1985
405,1043,881,34.438,33.56,0.1263,0.0637,9.9537,-0.0343,0.1981,-0.7447
410,1048,876,34.443,33.576,0.0667,-0.0806,9.7193,0.8994,1.0848,-0.29
415,1039,860,34.501,33.523,0.0053,0.056,9.7975,0.3529,-1.0159,-0.6866
420,1033,873,34.423,33.562,-0.0053,-0.0519,9.7577,0.1444,-0.2137,0.1282
425,1036,870,34.46,33.608,-0.1001,0.0211,9.7894,0.5423,-0.3647,-0.4026
430,1026,870,34.417,33.565,0.0405,-0.0263,9.8904,0.0069,-0.4085,-0.6172
435,1020,862,34.422,33.566,0.0204,0.071,9.7697,-0.1334,0.4954,-0.8563
440,1015,868,34.394,33.612,0.0425,0.0491,9.7733,-0.2992,-0.3458,0.9146
445,1010,860,34.46,33.463,-0.1068,0.0335,9.8184,-0.1994,-0.7241,0.2189
450,1009,863,34.453,33.607,0.0471,-0.0593,9.7781,-0.3735,0.2434,-0.3274
455,1006,864,34.379,33.549,0.042,-0.0243,9.8755,-0.8751,-0.3991,-0.0616
460,993,858,34.468,33.581,0.0482,0.0515,9.8234,0.208,0.8657,-0.0436
465,987,865,34.43,33.589,-0.0094,0.0284,9.7858,0.7227,0.4026,0.1882
470,978,859,34.478,33.621,-0.0749,0.0057,9.863,0.35,0.3829,0.2732
475,971,858,34.262,33.571,0.0028,-0.0481,9.858,-0.3166,0.054,0.1962
480,973,854,34.523,33.568,-0.0157,0.0634,9.812,0.043,-0.0618,-0.6665
485,951,854,34.464,33.534,0.0188,-0.0307,9.7655,-0.0104,-1.1475,-0.6189
490,944,845,34.527,33.541,-0.1071,-0.0051,9.8288,0.2609,0.0408,-0.6997
495,940,851,34.391,33.674,0.0693,-0.0312,9.7715,-0.9985,1.2117,-0.1213
500,927,847,34.443,33.578,0.0913,-0.008,9.8163,-0.3507,0.2973,-0.1604
505,917,846,34.509,33.582,-0.0574,0.031,9.8276,0.1746,0.0686,0.7847
510,922,846,34.401,33.59,0.0608,-0.0446,9.7504,0.2432,-0.0447,-0.2098
515,904,847,34.483,33.647,0.0436,-0.0305,9.7392,-0.8656,0.0675,-0.8787
520,899,840,34.444,33.647,0.0244,0.0269,9.859,-0.5782,-0.7934,0.9059
525,891,838,34.376,33.622,-0.0127,0.0918,9.8541,0.6166,0.151,0.3874
530,879,834,34.352,33.694,0.0076,-0.0289,9.8504,-0.2248,-0.1029,-0.5487
535,869,835,34.496,33.556,-0.0794,0.0047,9.7868,-0.063,-0.468,0.1997
540,864,825,34.525,33.56,0.0766,-0.0808,9.8584,-0.527,-0.4099,0.4686
545,858,827,34.353,33.612,0.0013,-0.0609,9.8648,-0.401,-0.1487,-0.9006
550,837,819,34.437,33.509,-0.0573,0.0273,9.8142,-0.0372,-0.011,-0.1588
555,840,818,34.396,33.585,-0.0114,0.0442,9.8038,-0.3075,-0.2057,-0.6713
560,827,810,34.468,33.572,-0.0062,0.0408,9.8565,-0.2777,-0.0399,-0.4546
565,826,813,34.517,33.527,-0.04,-0.0113,9.9219,-0.0202,-1.1226,-0.9556
570,805,803,34.486,33.573,-0.0187,0.0221,9.8359,-0.1183,0.3219,-0.3088
575,815,802,34.592,33.646,-0.0113,0.0647,9.7238,-0.2077,-0.3549,-0.7201
580,801,794,34.402,33.612,-0.0299,-0.0097,9.7957,-0.3227,0.537,-0.177
585,791,792,34.431,33.597,0.0736,-0.0593,9.8233,0.0437,0.2771,-0.6882
590,781,793,34.495,33.588,-0.0515,-0.0236,9.724,0.752,-0.0471,-0.5785
595,778,781,34.394,33.669,0.0258,0.087,9.8161,0.111,-0.5352,0.3902
600,768,773,34.444,33.699,0.0983,0.0134,9.7557,-0.2306,-0.5603,-0.0453
605,767,772,34.402,33.644,-0.0135,-0.0388,9.788,0.6022,0.039,0.3293
610,775,764,34.479,33.565,0.0285,0.0191,9.8535,-1.996,-0.9999,-0.8652
615,762,760,34.487,33.535,0.031,-0.0258,9.8204,-0.1892,-0.1975,0.0361
620,758,753,34.468,33.581,0.0149,0.0303,9.8019,-0.2828,0.0841,-1.1538
625,755,751,34.413,33.661,0.0728,0.0264,9.7899,0.055,-0.72,-0.9447
630,754,744,34.482,33.609,0.0623,0.0865,9.8029,0.1425,-0.8894,-0.0446
635,755,737,34.409,33.696,-0.0611,-0.0413,9.8136,-0.9066,0.5699,0.6425
640,752,736,34.396,33.595,-0.0544,-0.0317,9.8583,-0.4082,0.6058,0.5393
645,747,727,34.436,33.65,0.0601,0.063,9.845,-0.5773,0.2681,1.2996
650,745,722,34.471,33.555,0.0085,0.1017,9.951,-0.0665,-0.6635,0.0414
655,748,715,34.505,33.596,-0.0336,0.0361,9.7358,1.1023,0.0554,-0.3032
660,757,711,34.429,33.63,0.127,-0.0327,9.843,0.1318,-0.3754,0.4129
665,750,704,34.441,33.628,0.0131,0.0511,9.827,0.3468,-0.4838,0.1869
670,754,697,34.347,33.656,-0.0265,-0.0063,9.7968,-0.2578,0.2558,0.0681
675,763,689,34.36,33.546,-0.022,-0.0002,9.8944,0.4836,0.4087,-0.401
680,756,691,34.378,33.564,0.0596,-0.0889,9.783,0.0148,0.6338,0.1337
685,765,684,34.418,33.566,0.0094,-0.018,9.8502,-0.9916,0.0764,-0.9285
690,770,680,34.374,33.626,-0.0007,-0.0471,9.9087,-0.8897,-0.6561,-0.0624
695,782,670,34.381,33.545,0.0981,-0.0031,9.8223,-0.0723,-0.4279,-0.0618
700,783,664,34.447,33.494,-0.0239,-0.0436,9.9083,0.1362,0.6457,1.1897
705,784,661,34.434,33.492,-0.0244,0.0085,9.8526,-0.631,-0.6583,-0.463
710,796,657,34.472,33.659,0.0613,-0.0354,9.8378,0.1483,0.0815,-0.4816
715,791,653,34.459,33.532,-0.1131,-0.0384,9.8194,0.0112,-1.557,0.5911
720,814,650,34.483,33.588,0.0461,-0.1083,9.7259,0.0936,0.295,0.0255
725,817,645,34.379,33.575,-0.0194,-0.0228,9.7654,-0.073,0.6414,0.7002
730,824,648,34.417,33.602,0.0074,-0.0507,9.8319,0.5195,-0.5621,-0.1991
735,839,642,34.448,33.55,0.0005,-0.0309,9.7875,-0.2374,0.1835,0.0112
740,838,635,34.436,33.661,0.0029,0.0091,9.7885,-0.1292,-0.5756,0.0337
745,848,629,34.422,33.612,0.0441,0.022,9.8475,-0.5246,-0.1098,-0.2829
750,862,633,34.451,33.658,0.0341,-0.0301,9.9175,0.5435,-0.5444,-0.3555
755,877,631,34.448,33.553,-0.0146,0.0,9.8357,-0.4303,-0.9295,-0.3497
760,878,631,34.413,33.579,-0.0454,-0.0642,9.7966,-0.9389,-0.013,-0.1702
765,881,631,34.406,33.572,0.0433,-0.0203,9.8427,-0.0966,-0.5012,0.2016
770,908,629,34.38,33.526,-0.0501,0.0168,9.783,-0.3923,0.4175,0.3052
775,918,630,34.441,33.623,-0.0448,-0.0304,9.8259,-0.8958,0.6578,0.1853
780,924,623,34.381,33.526,-0.0052,-0.0022,9.8151,0.072,0.8248,-0.3749
785,949,626,34.376,33.48,-0.006,-0.0253,9.7979,0.2144,1.2575,-0.1734
790,949,630,34.482,33.597,-0.062,0.1417,9.8059,-0.2361,0.6324,-0.1685
795,958,635,34.372,33.618,0.0386,-0.0265,9.8378,1.4803,-0.0353,-0.3256
800,973,633,34.4,33.461,-0.0172,-0.0269,9.8651,0.9919,-0.1469,-0.1935
805,982,636,34.497,33.697,-0.0094,0.021,9.7328,-0.1884,-0.5972,-0.5531
810,993,640,34.492,33.67,-0.0681,-0.0256,9.753,0.6554,-0.4131,0.8537
815,1011,645,34.461,33.527,0.0178,0.023,9.7214,0.0282,-0.761,0.4687
820,1023,649,34.35,33.487,0.0503,0.0201,9.8298,0.1703,-0.6814,-0.2327
825,1042,651,34.421,33.55,-0.0205,-0.1048,9.7751,0.3738,-0.1859,0.4691
830,1053,663,34.478,33.496,0.0043,0.0246,9.743,0.159,0.4334,-0.1574
835,1065,660,34.363,33.636,0.0163,0.0338,9.8725,0.3603,0.3966,1.0468
840,1069,671,34.387,33.61,0.0075,-0.0495,9.7621,0.6632,-0.1575,-0.2082
845,1077,674,34.349,33.546,0.0224,0.0038,9.8154,0.164,-0.3778,0.4868
850,1084,678,34.406,33.562,-0.1245,-0.0066,9.8423,0.5898,-0.0084,-0.3544
855,1099,678,34.348,33.515,-0.0056,-0.0245,9.8601,-0.19,0.1375,-0.0942
860,1099,691,34.457,33.539,-0.0401,-0.0364,9.8695,0.1538,-0.5622,0.1805
865,1111,694,34.369,33.592,-0.0053,0.0312,9.9051,-0.0427,1.1861,-0.3412
870,1126,698,34.411,33.656,-0.0477,0.0131,9.8578,-0.2758,0.2537,-0.3942
875,1130,710,34.434,33.536,-0.1682,0.0085,9.7692,-0.0476,-0.1123,-0.261
880,1131,717,34.424,33.527,0.0386,-0.0267,9.8183,0.4871,0.3965,0.8946
885,1142,722,34.508,33.536,0.0441,-0.0347,9.8032,0.2529,0.2779,-0.2143
890,1146,731,34.437,33.616,-0.0092,0.0731,9.7819,0.4686,-0.4459,-0.0775
895,1153,742,34.461,33.647,-0.0351,0.0073,9.7725,-0.456,-0.3638,-0.1544
900,1147,745,34.391,33.613,-0.0312,0.0344,9.8397,1.4709,0.7012,0.0246
905,1163,753,34.387,33.563,-0.0057,0.0582,9.8398,-0.4095,0.2245,0.4443
910,1165,757,34.429,33.538,0.0226,0.1259,9.8259,-0.222,-1.1038,-0.1254
915,1175,772,34.38,33.594,0.0469,-0.0088,9.7807,-0.1388,0.0806,-0.0574
920,1177,773,34.454,33.58,-0.1033,-0.0029,9.8294,0.2304,0.3435,0.9957
925,1176,788,34.422,33.543,-0.0133,0.037,9.7347,-0.0476,0.2242,-0.3533
930,1180,792,34.444,33.609,0.0905,0.0469,9.7755,-0.4447,0.2796,0.0924
935,1184,800,34.389,33.621,0.0037,-0.0218,9.7659,-0.684,0.7641,-0.8218
940,1180,812,34.487,33.572,0.0543,0.0231,9.8578,-0.8664,-0.6914,-0.6805
945,1194,815,34.376,33.587,0.0232,-0.0288,9.7454,-1.0202,-0.2576,-0.6993
950,1177,824,34.488,33.639,-0.0235,-0.0381,9.8287,0.1161,0.7714,-0.5461
955,1182,832,34.44,33.591,0.0444,-0.0595,9.814,-1.2639,0.7911,0.3802
960,1178,837,34.389,33.616,-0.0389,0.0632,9.8077,-1.0133,0.3088,-0.4919
965,1196,842,34.363,33.56,0.0182,-0.0182,9.8409,1.5229,0.2093,0.4944
970,1191,851,34.459,33.618,0.0393,-0.0479,9.8496,0.6344,-0.0965,-0.5618
975,1187,856,34.454,33.593,-0.0454,-0.0241,9.805,0.1498,1.1619,0.0972
980,1185,866,34.397,33.646,0.0539,0.0214,9.7426,-0.065,0.4199,-0.8715
985,1180,874,34.474,33.659,0.0042,-0.0393,9.8187,0.2471,0.4476,-0.0861
990,1185,879,34.463,33.539,-0.0734,0.0356,9.744,-0.2222,-0.6165,0.5155
995,1191,883,34.444,33.574,-0.0319,0.0551,9.8257,-0.5925,0.3302,0.0104
1000,1177,884,34.399,33.58,0.0328,0.0322,9.7429,0.787,-0.7147,-0.4181
1004,1172,898,34.402,33.646,0.0697,0.137,9.7778,-0.1628,0.0042,0.2507
1010,1181,901,34.408,33.662,-0.0266,0.0102,9.8798,1.3139,-0.4633,0.0305
1014,1171,898,34.482,33.602,-0.0678,0.0752,9.838,-0.962,0.5252,-0.0231
1020,1168,907,34.411,33.566,-0.0428,0.0531,9.8768,-0.4491,-0.8064,0.0361
1025,1160,908,34.427,33.509,-0.0632,-0.0217,9.8243,0.1373,-0.287,-0.0091
1030,1162,914,34.463,33.591,-0.0581,0.1257,9.8097,-0.0312,0.5571,-0.4567
1035,1164,916,34.458,33.62,0.046,0.0134,9.8692,-0.1653,0.6653,0.9776
1040,1159,919,34.545,33.512,0.0472,-0.0231,9.8317,-0.0059,-0.3948,0.374
1045,1149,924,34.466,33.531,0.0831,-0.0202,9.7254,-0.3807,0.6101,-0.0178
1050,1152,920,34.408,33.608,0.0175,0.0411,9.8172,-0.085,0.0238,0.3675
1055,1144,925,34.358,33.677,-0.0563,-0.0131,9.856,0.5215,0.593,-0.6076
1060,1143,922,34.408,33.531,-0.024,0.0358,9.8219,0.4185,-0.2187,-0.0996
1065,1147,932,34.457,33.603,0.0134,-0.0189,9.799,-0.251,0.4404,0.0272
1070,1134,926,34.401,33.621,0.0512,0.0512,9.898,-0.401,-0.081,-0.3829
1075,1139,924,34.433,33.63,-0.0084,-0.0472,9.7533,0.122,0.625,-0.0494
1080,1124,924,34.425,33.607,0.0316,-0.0573,9.8515,-0.3678,0.2965,0.7146
1085,1125,924,34.455,33.569,0.0564,0.0237,9.7956,-0.7629,-0.8176,0.5087
1090,1130,925,34.451,33.572,0.0118,-0.0657,9.8211,0.349,-0.6266,0.0366
1095,1120,921,34.468,33.535,0.017,-0.0542,9.8353,0.192,0.0013,-0.8059
1100,1119,927,34.419,33.566,0.0701,0.0665,9.7557,-0.0521,0.1329,-0.2221
1105,1121,924,34.461,33.578,0.0715,-0.0214,9.7667,-0.4727,-0.4136,0.222
1110,1112,922,34.565,33.674,0.0949,-0.0436,9.7874,0.6071,-0.3901,-0.2642
1115,1111,924,34.32,33.545,0.0255,0.0187,9.8236,-0.8716,0.7052,1.4549
1120,1107,922,34.472,33.588,-0.059,0.0434,9.8034,0.289,-0.4722,-0.0301
1125,1104,920,34.38,33.609,0.0515,-0.0299,9.9068,-0.564,-0.308,-0.4079
1130,1103,920,34.489,33.547,-0.0037,0.0705,9.8364,0.4038,0.3927,-0.0415
1135,1101,914,34.486,33.563,-0.0345,0.0054,9.7659,0.249,-0.0252,-0.4898
1140,1110,912,34.398,33.655,-0.0559,-0.0509,9.8106,0.2146,0.6838,0.0669
1145,1097,907,34.51,33.589,-0.0623,0.0971,9.8265,0.1009,0.4166,-0.2039
1150,1098,905,34.482,33.673,-0.0626,0.1218,9.8816,-0.6913,0.198,1.1178
1155,1095,911,34.453,33.588,-0.0178,0.0044,9.8364,1.0416,-0.1236,0.0376
1160,1096,907,34.489,33.559,0.036,-0.0398,9.7566,0.4104,0.8054,0.3297
1165,1095,900,34.475,33.673,0.0172,-0.0369,9.9068,0.0256,0.2866,-0.1153
1170,1102,904,34.463,33.727,0.0541,-0.0059,9.8232,-0.3928,-0.4329,-0.3305
1175,1081,901,34.462,33.503,-0.0176,-0.0067,9.8348,0.1585,-0.8587,-0.3934
1180,1088,894,34.394,33.654,-0.0795,-0.0818,9.8148,-0.5623,-0.7218,-0.3844
1185,1079,895,34.453,33.611,0.0089,0.0425,9.7686,-0.0742,0.3992,-0.0138
1190,1078,891,34.434,33.588,-0.0591,-0.007,9.8263,0.1514,-1.4928,-0.6976
1195,1071,891,34.421,33.594,0.0502,-0.0308,9.7663,-0.3641,-1.3403,0.1221
1200,1075,888,34.534,33.629,-0.0132,0.0224,9.6961,-0.5672,-0.127,-0.8443
1205,1065,887,34.449,33.631,-0.0071,-0.0502,9.8681,0.1155,-0.5822,0.5466
1210,1065,888,34.475,33.646,0.1141,-0.0029,9.8444,0.2116,0.0567,0.6779
1215,1070,881,34.456,33.529,-0.0354,0.0339,9.789,0.4657,0.4717,-0.7367
1220,1057,882,34.413,33.617,0.0773,-0.0694,9.8432,0.2508,0.9049,-0.3968
1225,1064,876,34.363,33.588,-0.0699,0.0171,9.8701,0.2203,0.3161,0.7307
1230,1047,881,34.351,33.567,-0.0464,-0.0034,9.7532,0.4003,-0.4574,0.383
1235,1051,876,34.468,33.655,-0.0644,-0.0632,9.8355,-0.1172,0.365,-0.3894
1240,1036,869,34.466,33.556,0.0488,-0.0038,9.7476,0.1747,0.3381,-0.1335
1245,1038,870,34.417,33.672,-0.0312,0.0242,9.8507,-0.1512,0.2475,-0.17
1250,1041,875,34.543,33.595,0.0017,-0.0519,9.7132,0.6355,-0.8743,-0.4403
1255,1038,869,34.379,33.613,-0.0614,0.002,9.8353,0.2625,0.8571,-0.7222
1260,1035,865,34.429,33.509,0.0156,0.0102,9.7094,0.8544,-0.0983,-0.7072
1265,1017,862,34.373,33.645,-0.1074,-0.0373,9.8497,0.2107,-0.2496,-0.6415
1270,1015,867,34.42,33.583,-0.0764,-0.0355,9.8281,-0.7862,-0.5705,0.9927
1275,1008,865,34.379,33.531,-0.0147,-0.0046,9.8017,0.0138,0.3357,0.0653
1280,1000,858,34.477,33.528,0.0562,-0.0355,9.8161,0.2552,-0.6091,0.5887
1285,1000,867,34.417,33.515,0.0317,0.027,9.7116,0.4486,0.3376,-0.389
1290,994,855,34.475,33.582,0.0109,-0.0235,9.796,0.4561,0.4547,0.0616
1295,978,858,34.446,33.558,0.0026,0.0349,9.8279,0.5854,0.6037,0.4827
1300,975,853,34.435,33.586,0.051,0.088,9.7708,-0.4215,0.347,-0.3834
1305,969,858,34.468,33.508,0.0926,-0.0457,9.798,-0.0471,-0.0871,-0.2743
1310,960,855,34.457,33.668,0.0837,-0.0884,9.7908,-0.1429,0.2149,0.6125
1315,956,849,34.449,33.654,0.0883,-0.0882,9.812,0.8682,-0.7908,0.507
1320,946,852,34.415,33.618,-0.0478,-0.0246,9.8166,-0.6156,0.1897,1.2013
1325,938,843,34.499,33.554,-0.0053,-0.0523,9.8018,1.0784,0.5304,0.5541
1330,935,845,34.525,33.632,0.018,0.014,9.8653,-0.468,0.173,0.3935
1335,920,845,34.507,33.615,0.0038,-0.0482,9.8233,-0.5775,-0.3634,-0.3993
1340,913,841,34.414,33.558,0.0187,-0.0757,9.8366,-0.1286,-0.0904,-0.8333
1345,900,840,34.434,33.678,0.0678,-0.0594,9.7533,-0.4635,0.332,-0.4155
1350,887,838,34.449,33.598,-0.0828,0.007,9.8481,0.9705,0.2425,-0.0037
1355,887,828,34.415,33.59,-0.0343,-0.0386,9.8076,0.1229,-0.3378,-0.8646
1360,876,837,34.451,33.637,0.1022,0.0628,9.8452,0.4763,-0.5603,-0.3625
1365,876,827,34.49,33.617,0.0249,-0.0948,9.7733,0.1734,-1.2695,-0.8103
1370,862,827,34.404,33.553,0.0698,0.0398,9.8425,0.008,0.1192,0.3867
1375,859,829,34.458,33.638,0.0529,-0.0006,9.8519,-0.4311,-0.3341,-0.7841
1380,843,819,34.354,33.569,-0.1027,0.0549,9.809,-0.299,-0.1663,-0.6994
1385,830,817,34.444,33.687,-0.1002,0.0356,9.8071,-0.7921,0.8848,0.2826
1390,827,815,34.441,33.522,0.0075,-0.0235,9.7747,0.4466,-0.5481,0.3103
1395,819,817,34.472,33.658,-0.0853,-0.072,9.8108,-0.3688,-0.6464,0.0183
1400,814,802,34.394,33.543,-0.0069,0.0284,9.8236,-0.329,-0.1151,1.1028
1405,798,803,34.404,33.53,0.0554,0.067,9.8034,0.0277,0.1135,-0.2019
1410,801,799,34.45,33.604,-0.0153,0.0481,9.8092,-0.2939,-0.307,0.7203
1415,800,793,34.485,33.64,0.0729,-0.0441,9.7556,-0.1855,0.117,-0.1085
1420,780,788,34.454,33.621,-0.0533,0.0116,9.7901,0.7671,0.1186,-0.3006
1425,771,779,34.516,33.516,0.0515,0.0539,9.806,-0.1036,0.2463,-0.2624
1430,778,772,34.473,33.62,0.0571,0.1348,9.7539,0.4657,0.0238,-0.1612
1435,773,772,34.46,33.59,-0.0192,0.0204,9.8811,0.5401,0.1175,-0.5364
1440,763,762,34.386,33.61,-0.0507,-0.0099,9.8376,-0.8419,0.8055,-0.5928
1445,765,762,34.492,33.571,0.033,-0.0006,9.8414,0.3242,-0.0456,0.1202
1450,758,760,34.49,33.641,-0.044,0.0189,9.8667,-0.5891,0.1321,0.1436
1455,753,752,34.476,33.601,-0.0062,0.029,9.7979,0.2839,0.5558,-0.3728
1460,754,745,34.362,33.579,0.0053,-0.0245,9.7005,-0.4815,0.3703,-0.1769
1465,744,731,34.38,33.585,-0.0991,-0.0055,9.7748,-0.3726,0.99,0.6519
1470,757,733,34.468,33.57,-0.0019,0.0311,9.8065,0.0545,0.1251,0.0519
1475,751,730,34.392,33.598,-0.0238,-0.0083,9.7478,-0.02,-0.0252,0.5031
1480,754,721,34.479,33.594,-0.031,0.0106,9.7373,-0.4718,-0.4414,-0.3081
1485,744,712,34.499,33.506,-0.048,0.0445,9.8922,-0.0753,0.4766,-0.1535
1490,758,715,34.476,33.541,0.0856,0.0885,9.784,-0.287,0.7617,0.576
1495,741,703,34.399,33.645,0.0421,-0.0606,9.7716,0.9017,0.2735,0.4601
1500,749,695,34.32,33.52,0.0,0.007,9.7988,-0.0525,-0.1886,0.0513
1505,756,695,34.578,33.624,0.0518,0.0685,9.8408,0.2352,0.5678,0.1028
1510,761,683,34.406,33.564,0.0465,0.0526,9.8549,0.0834,0.1925,0.9481
1515,768,683,34.485,33.571,0.0471,-0.0163,9.7877,-0.0784,0.4368,0.7839
1520,768,681,34.427,33.621,0.0028,0.0066,9.8649,0.1188,0.3172,0.2173
1525,778,674,34.464,33.636,-0.0795,-0.0204,9.8121,-0.1663,0.4735,-0.9631
1530,778,666,34.466,33.658,0.0296,-0.0282,9.8219,0.3231,-0.4545,0.2186
1535,783,661,34.334,33.615,-0.0238,-0.0422,9.7775,0.4254,0.1259,-0.5587
1540,795,659,34.433,33.535,0.0952,-0.0409,9.8377,0.9295,-0.2731,0.3973
1545,792,654,34.461,33.589,0.0043,-0.0129,9.8478,0.4508,-0.4897,0.2946
1550,803,650,34.454,33.569,-0.022,0.0436,9.726,-0.0948,-0.6027,0.3296
1555,814,645,34.491,33.595,-0.0717,0.0152,9.7567,0.2018,-0.6676,0.2988
1560,827,646,34.44,33.592,-0.0301,0.016,9.7415,0.7965,1.3389,0.6157
1565,836,640,34.522,33.598,-0.0019,0.0685,9.9145,0.1423,0.5689,0.4071
1570,835,639,34.531,33.586,-0.0256,0.0643,9.7892,0.5882,0.1149,-0.9018
1575,848,630,34.44,33.581,0.0398,0.0498,9.7495,0.4338,0.0163,-0.5216
1580,857,630,34.554,33.567,0.0329,0.0141,9.8024,-0.6404,0.6827,-0.2404
1585,869,628,34.369,33.566,0.0083,-0.0747,9.7781,0.5978,1.1769,0.124
1590,892,630,34.42,33.518,0.0429,-0.011,9.7589,-0.67,-0.232,-0.3272
1595,900,630,34.383,33.493,0.0386,0.1089,9.7809,-0.162,-0.0034,-0.2525
1600,913,626,34.499,33.659,0.0017,-0.0436,9.9089,-0.0565,0.1258,0.0761
1605,926,624,34.367,33.535,-0.0625,-0.0369,9.7551,-0.3827,0.666,-0.3434
1610,933,628,34.529,33.623,-0.0049,0.0161,9.8482,0.6781,-0.0626,0.7561
1615,938,631,34.359,33.508,-0.0424,-0.0258,9.8522,0.0686,0.2025,-0.4095
1620,949,625,34.418,33.617,-0.0285,0.0232,9.7777,-0.7628,-0.1464,0.0303
1625,963,634,34.504,33.608,0.0247,0.0565,9.7906,-0.6821,0.0294,-0.3818
1630,985,637,34.394,33.571,-0.0025,-0.032,9.7854,0.1551,-0.0792,-0.6789
1635,984,640,34.377,33.54,-0.0486,-0.0341,9.7949,0.5325,-0.647,0.002
1640,1003,641,34.481,33.59,0.0785,0.1194,9.8395,-0.5683,-0.2564,0.4838
1645,1006,649,34.383,33.5,0.0596,0.0589,9.8342,-0.1795,0.1825,0.8852
1650,1030,649,34.391,33.622,0.0356,-0.1096,9.8171,-0.1347,-0.236,0.6801
1655,1035,648,34.441,33.626,-0.0627,-0.0103,9.9541,-0.5852,0.5593,-0.3394
1660,1033,649,34.352,33.628,0.0127,-0.018,9.8707,-0.9188,0.0372,0.2313
1665,1051,664,34.575,33.572,-0.0501,0.0104,9.8478,-0.069,0.4459,-0.5538
1670,1066,668,34.489,33.557,-0.0019,-0.0852,9.809,0.139,-0.0292,-0.3131
1675,1066,670,34.57,33.646,-0.0278,0.0176,9.7593,-0.3464,-0.4847,0.3054
1680,1088,675,34.512,33.602,-0.0241,-0.0194,9.826,0.1528,-0.4896,0.0368
1685,1095,687,34.436,33.66,-0.0036,0.021,9.7444,0.1495,0.0454,0.042
1690,1096,694,34.39,33.624,-0.0169,-0.0253,9.8013,0.3418,-0.0674,-0.1253
1695,1101,704,34.501,33.581,-0.02,0.0692,9.8016,0.0512,-0.533,-0.5916
1700,1117,706,34.513,33.615,-0.0536,0.0318,9.7406,0.2231,0.1546,-0.3118
1705,1121,707,34.448,33.737,-0.0044,0.0182,9.8179,0.2022,1.1867,0.2497
1710,1138,725,34.419,33.603,0.0762,-0.0873,9.8407,-0.3115,-0.0265,0.0731
1715,1139,724,34.526,33.635,-0.0324,0.0257,9.7914,-0.4819,0.0184,-0.3319
1720,1152,734,34.452,33.645,0.0204,0.0271,9.7634,0.2046,-0.7694,-0.0196
1725,1154,743,34.393,33.566,-0.0549,-0.0335,9.8262,-0.288,0.2355,0.0686
1730,1154,746,34.353,33.628,0.0333,-0.0161,9.8315,0.507,0.4725,-0.2543
1735,1158,763,34.539,33.571,-0.0235,-0.0089,9.7649,0.4527,0.6536,-0.5406
1740,1174,758,34.448,33.542,0.0084,-0.0172,9.7385,-0.3805,-0.489,-1.3583
1745,1175,771,34.356,33.548,-0.0429,-0.0161,9.8167,0.6505,-0.0922,0.1095
1750,1169,778,34.434,33.607,0.0128,0.0305,9.7394,-0.6341,-0.7067,-0.6613
1755,1179,791,34.476,33.61,-0.0552,0.0518,9.8667,0.6282,0.5654,-0.5464
1760,1179,789,34.461,33.609,-0.0616,-0.0912,9.7375,-0.2337,-0.015,-0.7052
1765,1183,803,34.442,33.592,-0.0299,0.0089,9.7506,-0.2399,-0.4078,-1.1274
1770,1190,812,34.463,33.609,-0.0851,0.009,9.7358,-0.7486,0.3111,0.0864
1775,1193,816,34.338,33.63,0.0536,-0.0126,9.8388,-0.5633,0.3837,-0.076
1780,1185,825,34.439,33.594,0.0335,0.0296,9.7793,0.4306,0.1742,0.1132
1785,1190,835,34.41,33.608,0.0097,0.0915,9.7103,0.4123,-0.5479,-0.467
1790,1193,840,34.487,33.559,-0.0493,-0.0556,9.8215,0.0193,-0.4623,0.3719
1795,1188,843,34.453,33.62,-0.0106,0.0383,9.8031,0.4345,0.1617,0.4239
1800,1189,854,34.572,33.585,-0.0443,-0.0656,9.7573,-0.0471,0.3416,-0.7312
1805,1185,859,34.588,33.661,-0.0172,-0.0461,9.8771,0.044,-0.6554,0.696
1810,1183,870,34.475,33.537,0.0133,-0.0731,9.9632,-0.278,0.3789,0.2867
1815,1186,868,34.403,33.533,-0.0059,-0.038,9.8288,-0.4107,0.6569,-0.1385
1820,1177,879,34.497,33.561,0.03,0.1036,9.9145,0.4893,0.8942,0.6625
1825,1181,886,34.473,33.64,0.0591,-0.0153,9.7557,0.6956,-0.5639,0.1182
1830,1178,891,34.476,33.606,-0.117,-0.0336,9.6998,-0.0534,0.336,0.5175
1835,1175,890,34.456,33.619,-0.0081,0.0245,9.7177,0.7596,-0.3866,0.173
1840,1170,897,34.482,33.593,0.0057,0.001,9.8544,-0.3149,-0.4017,0.6393
1845,1167,895,34.433,33.586,0.0443,-0.049,9.8289,-0.3671,0.682,0.5309
1850,1179,907,34.357,33.661,0.005,0.0146,9.7275,-0.713,0.1659,0.4626
1855,1165,906,34.433,33.637,-0.009,0.0213,9.8432,0.0282,-0.0389,0.2854
1860,1158,912,34.418,33.59,-0.0398,-0.0562,9.7757,-0.1479,-0.1538,0.0664
1865,1153,918,34.358,33.558,0.039,-0.0077,9.8229,-0.5852,0.0183,0.2988
1870,1152,921,34.425,33.715,0.0535,-0.0524,9.7102,-0.6376,-0.8223,0.0152
1875,1144,917,34.473,33.732,0.0917,-0.0485,9.8013,0.0422,0.74,-0.4167
1880,1147,919,34.431,33.587,-0.0219,-0.0456,9.7747,0.4385,-0.0421,0.2035
1885,1146,925,34.389,33.55,-0.0338,-0.1072,9.8923,0.5832,-0.5141,0.2655
1890,1135,921,34.433,33.549,0.0955,0.0125,9.9036,0.6052,0.5584,0.0888
1895,1143,932,34.398,33.576,0.0115,-0.0501,9.7607,-0.4749,0.2976,0.6215
1900,1138,928,34.357,33.547,-0.0778,-0.0305,9.7609,-0.1587,-0.981,-0.6157
1905,1118,932,34.336,33.543,0.0638,0.0523,9.8143,-0.0199,-0.4319,-0.4963
1910,1126,928,34.455,33.621,0.0067,-0.0224,9.7303,0.1614,-0.2492,0.5115
1915,1130,923,34.45,33.525,-0.0068,-0.0089,9.8631,-0.8947,0.0146,-0.4058
1920,1131,927,34.428,33.589,-0.0637,0.0591,9.8289,0.1094,-0.4593,-0.1226
1925,1119,929,34.478,33.627,0.0602,-0.0116,9.9214,0.1078,-0.066,0.4018
1930,1116,928,34.479,33.545,-0.0022,-0.0649,9.7672,0.3134,0.7764,0.3862
1935,1120,925,34.387,33.642,0.0051,-0.0308,9.7912,-0.9433,-1.1609,0.5489
1940,1115,927,34.437,33.529,0.0005,-0.0516,9.8182,-0.4781,-0.2828,0.535
1945,1105,922,34.448,33.515,-0.0359,0.036,9.7884,-0.0082,-0.4444,-0.5186
1950,1115,918,34.447,33.524,0.0177,-0.0017,9.7439,0.3894,-0.6102,-0.0438
1955,1104,918,34.491,33.579,0.0103,0.0509,9.8055,-0.3979,-0.7867,0.7304
1960,1107,916,34.506,33.611,-0.0434,-0.0101,9.8571,-0.3223,-0.1709,-0.1212
1965,1105,912,34.445,33.703,0.0167,0.0085,9.9035,0.4341,0.4614,-0.4395
1970,1109,913,34.419,33.607,0.044,-0.0359,9.8524,0.2385,0.2725,-0.463
1975,1093,914,34.445,33.701,-0.096,0.0695,9.8366,-0.2512,-1.0045,0.4119
1980,1089,912,34.45,33.576,-0.015,-0.0091,9.7704,0.7146,0.7505,-0.2698
1985,1096,910,34.466,33.61,-0.0552,0.0214,9.8376,0.479,1.063,-0.3162
1990,1083,904,34.505,33.628,-0.0174,0.0256,9.8028,0.5877,-0.155,0.495
1995,1087,907,34.487,33.601,-0.0846,0.0055,9.901,-0.6172,0.2561,0.5564
2000,1095,902,34.432,33.684,0.1265,0.0408,9.7622,-0.4151,0.839,-0.6607
2005,1076,895,34.434,33.597,0.0226,0.09,9.8787,1.089,0.4182,0.1226
2009,1084,902,34.402,33.678,0.0773,-0.1059,9.7745,0.08,0.42,-0.4571
2015,1082,894,34.512,33.614,0.0027,-0.0303,9.8513,-0.2503,-0.0973,0.1648
2020,1076,892,34.409,33.596,-0.0414,-0.0693,9.8032,-0.0999,0.1978,-0.7977
2025,1079,886,34.464,33.58,-0.0652,-0.0304,9.826,-0.395,-0.2433,0.2804
2029,1073,889,34.463,33.515,0.0375,-0.0788,9.8181,1.0564,-0.9807,-0.0737
2035,1077,886,34.363,33.62,0.034,-0.0174,9.7132,1.2493,0.2394,0.1901
2040,1069,880,34.469,33.562,-0.0887,0.0037,9.7594,-0.4684,-0.5988,0.3392
2045,1063,881,34.377,33.566,-0.0152,0.0638,9.7689,-0.0748,0.1774,-0.038
2050,1066,887,34.386,33.685,0.108,0.0133,9.7414,-0.2053,0.4369,-0.0246
2055,1060,877,34.44,33.529,0.0371,-0.1378,9.7567,-0.7903,-1.024,-0.3954
2060,1057,874,34.462,33.639,0.0679,0.0351,9.8188,-0.1051,-0.6737,-0.6003
2065,1055,874,34.467,33.647,-0.0377,-0.0049,9.8493,0.4916,-0.4209,0.3649
2070,1046,866,34.454,33.542,0.0401,-0.0295,9.7907,-0.274,-0.7557,0.4169
2075,1032,873,34.492,33.562,0.0405,-0.0092,9.7731,-0.3315,-0.3704,-0.0005
2080,1031,873,34.448,33.657,0.025,-0.041,9.819,-0.0349,-0.4983,0.5193
2085,1031,869,34.489,33.573,-0.0176,-0.0513,9.8105,-0.1694,-0.7733,0.5154
2090,1027,868,34.4,33.588,-0.0022,-0.0142,9.7851,-0.4512,0.7405,-0.2797
2095,1019,866,34.424,33.593,0.0323,-0.0665,9.8923,0.3064,0.4656,0.9788
2100,1016,865,34.463,33.557,-0.003,0.0048,9.8351,-0.2323,0.7673,0.1602
2105,1016,864,34.478,33.61,-0.0095,-0.0505,9.761,-0.6193,0.1674,0.3132
2110,1003,860,34.465,33.527,0.0723,-0.0238,9.8126,-0.2219,-0.3649,-0.0207
2115,1004,853,34.446,33.649,0.0184,-0.0384,9.8404,-0.0048,0.294,-0.0576
2120,999,863,34.533,33.637,0.0762,-0.046,9.8239,0.8496,-0.2891,0.7277
2125,983,857,34.468,33.577,0.0003,-0.0171,9.7414,0.1991,0.088,-0.2065
2130,976,861,34.447,33.654,-0.078,0.0289,9.9179,-1.2207,0.1766,-0.309
2135,968,853,34.467,33.534,-0.0428,-0.0035,9.8829,-0.4862,0.3419,0.8661
2140,956,855,34.448,33.57,-0.0285,0.0139,9.8765,-0.6111,-0.3042,-0.0519
2145,956,852,34.543,33.676,-0.0969,0.0576,9.8248,-0.1906,0.5648,0.895
2150,948,850,34.45,33.655,-0.0371,0.0153,9.8083,0.189,0.0725,0.5415
2155,943,852,34.443,33.536,0.0185,0.0087,9.7967,-0.3066,0.1909,0.285
2160,931,850,34.383,33.587,0.0196,0.0622,9.7927,0.5215,-0.0253,-0.641
2165,916,845,34.427,33.513,0.0713,0.0141,9.786,-0.1736,0.2624,0.1117
2170,918,842,34.478,33.644,0.0614,0.0547,9.7426,0.4179,-0.2137,0.24
2175,909,843,34.444,33.645,0.0073,-0.0888,9.8417,0.021,0.4735,0.5221
2180,899,834,34.414,33.58,0.0196,0.0104,9.8544,0.0176,0.2854,0.0623
2185,890,834,34.38,33.539,0.0504,0.0661,9.8141,-0.3679,-0.3567,-0.56
2190,880,829,34.479,33.567,0.0863,-0.0641,9.7898,0.1507,0.1989,-0.1402
2195,867,830,34.466,33.628,0.0078,-0.0616,9.6632,-0.3993,-0.1067,0.1497
2200,856,824,34.43,33.647,0.019,0.0158,9.8018,0.7683,1.1553,-0.6694
2205,852,833,34.415,33.671,0.0214,0.0797,9.8036,-0.4952,-0.2437,0.1631
2210,850,819,34.394,33.608,-0.0006,0.1452,9.8102,0.7204,0.6317,0.0924
2215,839,817,34.443,33.643,0.0685,0.0173,9.8162,-0.054,0.6197,-0.4282
2220,817,814,34.477,33.63,0.0137,-0.059,9.8224,0.7393,0.4538,-0.2325
2225,819,804,34.348,33.643,0.0564,0.0179,9.8312,0.6682,-1.6104,-0.7754
2230,813,800,34.45,33.63,-0.0346,0.0437,9.8246,0.631,-0.6313,0.0183
2235,801,803,34.454,33.614,-0.0437,0.0176,9.856,-0.1545,-0.1736,-0.3588
2240,804,794,34.384,33.572,-0.0094,0.0605,9.7669,0.3483,-0.0162,0.6555
2245,787,794,34.46,33.575,-0.0342,-0.015,9.7232,-0.6316,0.2315,-0.758
2250,790,785,34.467,33.557,-0.014,-0.0096,9.8738,0.3298,-0.3829,0.3811
2255,775,780,34.462,33.514,-0.0431,0.0196,9.7803,-0.5772,-0.0379,0.1993
2260,771,779,34.51,33.666,-0.0124,0.0824,9.8413,-0.3741,0.5631,0.3197
2265,773,771,34.415,33.484,0.0006,0.0826,9.7697,-0.49,0.2928,0.2126
2270,764,765,34.436,33.625,0.0491,-0.0801,9.8388,-0.4668,0.1741,-0.8276
2275,754,759,34.437,33.625,0.0427,0.013,9.8171,0.3062,0.134,0.5818
2280,753,762,34.447,33.665,-0.1091,-0.0038,9.8597,0.1154,0.3107,-0.0969
2285,762,749,34.448,33.556,0.0639,-0.0233,9.827,-1.2906,-0.0571,0.7389
2290,742,744,34.436,33.655,0.0487,0.1463,9.8166,0.7773,-0.0605,-0.3983
2295,747,739,34.437,33.574,-0.0504,0.0334,9.7991,0.0579,-0.5845,1.0059
2300,749,729,34.501,33.635,0.0014,-0.0265,9.8268,0.5203,0.669,-1.0051
2305,746,720,34.453,33.57,0.0222,0.0123,9.8875,-0.0917,0.6198,-0.317
2310,757,720,34.506,33.724,0.07,0.0532,9.8269,0.1068,-0.4808,-0.5704
2315,743,715,34.444,33.561,-0.0426,0.0127,9.7924,0.593,0.1049,0.0463
2320,752,705,34.513,33.628,0.0037,-0.0679,9.6979,-0.6288,-0.0434,-0.8288
2325,746,705,34.518,33.679,0.0838,-0.0101,9.8568,1.0154,0.7308,-0.1704
2330,754,699,34.569,33.521,-0.0229,-0.0824,9.7765,0.8545,0.0867,0.7762
2335,754,693,34.437,33.59,0.013,-0.0128,9.8145,0.5943,0.9194,0.217
2340,763,680,34.408,33.576,-0.0102,-0.0163,9.829,-0.1046,0.4159,-0.2627
2345,762,682,34.516,33.683,0.0499,-0.0158,9.9394,-0.2022,0.1133,0.1642
2350,771,676,34.33,33.622,-0.0026,-0.0126,9.8066,-0.0486,1.0435,0.4309
2355,782,669,34.459,33.599,-0.0677,-0.0234,9.7474,0.6082,-0.6108,-1.4608
2360,779,659,34.47,33.589,-0.0525,0.0436,9.8416,0.2097,-0.6801,0.2885
2365,779,659,34.392,33.571,0.0127,0.0413,9.9112,0.5487,-0.744,-0.7567
2370,789,655,34.484,33.583,0.0231,0.0276,9.8296,0.1006,-0.3314,0.1652
2375,799,656,34.384,33.629,0.0061,-0.0186,9.872,0.4157,-0.1538,0.151
2380,809,642,34.452,33.658,-0.0381,0.0455,9.8824,-0.1389,-0.2965,0.3285
2385,816,645,34.456,33.572,0.0294,-0.0184,9.8056,-0.1126,-0.0975,0.1238
2390,821,648,34.382,33.561,-0.0406,-0.1301,9.8132,-0.6197,0.3348,0.0855
2395,839,636,34.47,33.607,-0.0059,-0.0235,9.8131,-0.2395,0.4,-0.4576
2400,850,640,34.497,33.564,-0.0009,0.0514,9.918,0.0432,0.5921,-0.5961
2405,854,637,34.517,33.595,0.0115,0.0647,9.7543,-0.1381,0.3356,-0.3704
2410,865,628,34.447,33.609,-0.0262,0.0591,9.8812,0.1258,-0.5867,0.8675
2415,870,635,34.451,33.698,-0.0194,0.0089,9.8199,-0.2805,-0.0674,-0.5622
2420,885,628,34.453,33.616,-0.0638,-0.0371,9.7712,-0.4467,-0.0202,0.667
2425,899,624,34.5,33.653,0.0181,0.0847,9.7664,0.1173,0.2275,-0.6202
2430,903,626,34.516,33.656,-0.0655,0.0529,9.7396,0.1474,-0.4854,-0.0485
2435,911,627,34.424,33.635,0.0136,-0.0097,9.8177,-0.1353,-0.5097,-0.5461
2440,931,631,34.45,33.677,-0.0471,-0.0575,9.7501,0.7746,-0.6831,0.2369
2445,935,628,34.544,33.561,0.0743,-0.0003,9.7828,-0.4457,0.1125,0.166
2450,956,636,34.456,33.631,0.0507,-0.0186,9.9243,-0.6602,-0.065,0.2798
2455,957,632,34.572,33.586,-0.0414,-0.0014,9.8676,-0.1316,0.0678,0.616
2460,976,634,34.4,33.538,0.0657,-0.0646,9.8745,0.6587,-0.5418,0.2454
2465,990,641,34.523,33.567,0.0072,-0.0684,9.8062,-0.1864,-0.6978,-0.5942
2470,1001,645,34.439,33.538,-0.0318,-0.0653,9.7976,-0.1399,0.11,-1.6869
2475,1016,646,34.428,33.537,-0.0668,0.0797,9.7736,1.7858,-0.1176,-0.1593
2480,1022,644,34.416,33.635,0.0416,0.0051,9.7465,-1.1826,-1.0768,-0.4475
2485,1038,654,34.519,33.562,0.0419,0.0496,9.9068,-0.3768,-0.4574,0.2986
2490,1051,658,34.482,33.64,-0.0424,0.0231,9.8033,0.6133,0.4336,-0.8029
2495,1060,666,34.434,33.645,0.0451,-0.0279,9.803,-0.7625,0.4508,0.0112
2500,1062,662,34.388,33.617,0.0003,-0.0023,9.7982,0.355,0.8153,-0.1351
2505,1080,666,34.464,33.606,-0.0574,-0.1182,9.8262,-0.4401,-0.5766,-1.2847
2510,1085,678,34.501,33.662,-0.0787,0.0169,9.7408,0.2265,0.4347,0.3123
2515,1092,685,34.418,33.676,-0.0591,-0.0122,9.7773,0.0141,-0.2578,-0.0533
2520,1103,686,34.493,33.531,0.0851,-0.0446,9.8546,-0.0319,-0.1336,0.558
2525,1107,698,34.417,33.677,0.0502,0.1201,9.896,-0.0819,0.7084,0.2807
2530,1116,703,34.428,33.53,-0.0696,-0.0255,9.7921,-0.844,0.039,0.3454
2535,1127,713,34.351,33.681,-0.0225,-0.0487,9.7448,0.3564,-0.6091,0.507
2540,1142,718,34.378,33.606,0.1033,0.0344,9.8252,0.1887,-0.678,-0.5234
2545,1150,727,34.456,33.603,-0.0478,0.0885,9.7804,-0.2813,0.0453,-0.5522
2550,1152,735,34.48,33.606,0.0561,0.0235,9.8509,0.2732,-0.3597,0.0426
2555,1156,740,34.43,33.659,-0.0493,0.0765,9.9083,-0.6824,0.4732,-0.1675
2560,1158,751,34.487,33.615,0.0682,0.0538,9.808,0.0104,0.0461,0.6463
2565,1165,757,34.489,33.626,-0.0249,0.0515,9.817,-0.8656,0.6022,-0.7958
2570,1156,771,34.481,33.596,-0.0496,-0.0264,9.92,-0.0985,-0.3899,0.4177
2575,1170,771,34.435,33.563,0.037,0.0199,9.7442,0.2078,-0.1285,-0.2213
2580,1169,777,34.41,33.605,0.0551,-0.0197,9.8061,-0.1447,0.3459,0.371
2585,1180,795,34.422,33.646,-0.0084,0.0651,9.8779,0.3484,-0.17,-0.1298
2590,1174,798,34.549,33.525,0.0299,-0.0629,9.7564,-0.1687,0.8215,-0.0642
2595,1194,798,34.466,33.648,0.0792,0.0393,9.877,0.2192,-0.053,0.3881
2600,1183,811,34.383,33.665,0.082,-0.0485,9.8716,0.3559,-0.1663,0.2145
2605,1186,817,34.462,33.705,-0.0158,0.0277,9.8049,0.6227,-0.9525,-0.4311
2610,1188,826,34.392,33.624,-0.0334,-0.0739,9.729,0.2155,0.4781,-1.0569
2615,1189,839,34.495,33.568,-0.0493,0.0132,9.8637,-0.7643,-0.2565,0.1368
2620,1185,842,34.355,33.583,-0.1516,-0.0377,9.8036,0.8759,0.2233,0.5993
2625,1186,848,34.478,33.564,0.0197,0.0547,9.7188,0.1312,-0.6022,-0.4096
2630,1197,858,34.393,33.526,-0.0365,-0.0395,9.7911,0.4921,-0.1511,-0.6426
2635,1182,862,34.535,33.647,0.049,-0.0345,9.8425,0.2364,-0.2113,-0.586
2640,1181,865,34.452,33.613,0.0647,0.0219,9.7402,-0.6051,-0.8446,0.7247
2645,1181,876,34.471,33.67,0.0058,-0.075,9.8063,0.4197,0.4487,0.0081
2650,1184,878,34.444,33.622,0.0087,0.0775,9.8087,-0.1344,-0.2146,0.4847
2655,1176,883,34.497,33.614,0.0948,0.0542,9.7726,0.1733,0.2583,-0.2771
2660,1183,888,34.405,33.616,0.0381,0.0531,9.8595,0.7614,0.4895,-0.5196
2665,1177,899,34.401,33.497,0.1004,-0.0036,9.7306,-0.2711,0.2038,1.0252
2670,1180,896,34.492,33.573,-0.0433,0.0716,9.9611,0.4393,-0.1038,0.1256
2675,1163,902,34.405,33.671,0.0492,0.0851,9.7191,0.1513,0.5849,0.5714
2680,1167,910,34.498,33.628,0.0077,0.0528,9.8187,0.1626,-0.5223,0.2449
2685,1159,911,34.495,33.628,0.0052,-0.0386,9.82,-0.6822,0.4078,-0.061
2690,1166,910,34.459,33.583,-0.0242,-0.0666,9.8446,0.7144,0.1033,0.5199
2695,1144,920,34.543,33.642,0.0394,-0.085,9.7661,-0.0368,-0.33,0.6005
2700,1157,920,34.398,33.608,0.0067,-0.0451,9.805,0.5506,-0.3025,0.1861
2705,1148,920,34.456,33.5,-0.1031,0.0099,9.8566,-0.0246,-0.928,-0.1469
2710,1150,922,34.513,33.543,0.046,0.0393,9.8398,0.7612,0.7215,0.8731
2715,1154,926,34.428,33.55,0.0412,0.0663,9.7477,0.7325,-1.1921,-0.5163
2720,1146,925,34.521,33.643,0.0492,0.0719,9.7566,0.4496,0.2379,-0.6167
2725,1136,923,34.498,33.612,0.0119,0.0894,9.804,0.1357,-0.0566,-0.0229
2730,1135,923,34.457,33.569,0.0352,0.0145,9.9014,0.034,-0.8582,0.583
2735,1133,930,34.453,33.608,0.0689,-0.052,9.9377,0.5203,0.0218,0.3921
2740,1128,925,34.341,33.597,-0.0582,-0.0388,9.772,-0.1564,-0.347,0.2584
2745,1131,921,34.474,33.563,-0.0157,-0.0055,9.762,-0.0409,-0.6649,0.0077
2750,1126,929,34.509,33.605,0.0462,-0.001,9.788,-1.2395,-0.0415,0.9213
2755,1118,924,34.487,33.601,0.0207,-0.0138,9.8427,0.0321,-0.112,-0.1033
2760,1113,926,34.455,33.488,-0.1088,-0.0171,9.755,-0.3899,1.1392,-0.8943
2765,1113,927,34.472,33.625,-0.068,0.0931,9.7424,-0.2216,-0.0879,0.614
2770,1111,925,34.436,33.63,-0.0269,0.0037,9.797,0.4086,0.1626,-1.2921
2775,1120,920,34.564,33.585,0.1025,0.0506,9.9245,0.1016,0.3313,0.6578
2780,1105,922,34.532,33.652,0.0566,0.0323,9.8052,-1.0996,-0.3576,-0.5478
2785,1101,921,34.411,33.623,-0.0128,0.0017,9.91,0.7131,0.3151,-0.6386
2790,1099,921,34.416,33.581,-0.0112,-0.0448,9.8599,-0.1439,0.3685,0.8625
2795,1106,916,34.44,33.597,-0.0775,0.0157,9.9105,-0.586,0.1167,0.7354
2800,1092,915,34.485,33.639,0.0596,-0.0429,9.8032,0.2296,0.0104,-0.5628
2805,1096,913,34.473,33.606,0.0222,-0.057,9.8636,-0.0942,0.2129,0.4355
2810,1101,912,34.51,33.611,-0.04,0.0596,9.8112,-0.6426,0.2026,-0.2044
2815,1084,907,34.489,33.622,0.0627,-0.0691,9.823,-0.8338,0.193,-0.7397
2820,1088,903,34.466,33.55,-0.0718,-0.0116,9.8167,-0.3056,0.1397,-0.6976
2825,1081,905,34.599,33.627,-0.0044,0.0076,9.7716,-1.2472,-0.1905,-0.2794
2830,1084,895,34.397,33.595,0.0157,0.0038,9.7979,0.1632,-0.3422,-0.1418
2835,1086,895,34.531,33.54,0.0161,-0.044,9.7953,0.6252,1.3007,-0.3414
2840,1082,897,34.491,33.497,-0.0166,0.0092,9.8056,-0.1796,0.0521,-0.6099
2845,1083,896,34.515,33.564,-0.0532,-0.0247,9.8173,0.1399,-0.9044,0.4512
2850,1080,895,34.432,33.586,-0.0409,0.0448,9.8232,-0.1546,0.1627,0.5805
2855,1076,890,34.533,33.63,-0.082,0.0361,9.8292,0.4823,0.0463,0.5108
2860,1074,888,34.404,33.558,-0.0058,-0.0209,9.8114,-0.0491,0.9136,-0.0089
2865,1072,888,34.351,33.675,0.0926,0.0597,9.8718,0.1717,-0.254,-0.6737
2870,1069,887,34.511,33.64,-0.0436,0.0474,9.7942,-0.2412,0.5036,-0.2515
2875,1070,885,34.57,33.681,-0.0024,0.0669,9.7638,-1.0636,0.3182,-0.0865
2880,1067,880,34.431,33.647,0.0125,-0.0286,9.8085,-0.3918,-0.1498,0.0785
2885,1062,881,34.466,33.655,-0.0217,0.0927,9.8182,0.194,0.0884,0.0908
2890,1054,875,34.407,33.691,0.0371,0.0065,9.8694,-1.2219,-0.2561,1.0773
2895,1056,876,34.314,33.611,0.0371,0.0027,9.8359,-0.0439,-0.1659,0.5573
2900,1041,872,34.471,33.621,-0.0787,0.0647,9.8049,-0.2796,0.7695,-0.4404
2905,1041,873,34.418,33.681,0.0485,0.0108,9.7782,-0.7691,-0.4504,-0.1758
2910,1040,869,34.456,33.546,0.0389,-0.0157,9.7228,0.3634,-0.1199,-0.0204
2915,1018,865,34.52,33.573,0.0019,0.0325,9.7496,-0.1598,0.3535,-1.0601
2920,1024,868,34.393,33.549,-0.0214,0.0102,9.8584,0.4741,-0.7731,0.1911
2925,1026,866,34.457,33.623,0.001,-0.0455,9.8131,0.605,-0.1689,-0.0033
2930,1012,861,34.414,33.633,-0.0255,-0.0111,9.7931,-0.1351,-0.6078,-0.8441
2935,1013,866,34.447,33.603,-0.0078,0.039,9.7789,0.0316,-0.0957,0.4469
2940,995,862,34.525,33.561,0.0526,-0.0203,9.8519,-0.3908,0.2167,0.3152
2945,992,859,34.441,33.568,-0.0245,-0.0307,9.8459,-0.0026,0.1838,-0.3454
2950,993,865,34.52,33.535,-0.0067,-0.0153,9.8016,0.5371,-0.6148,-0.3974
2955,979,853,34.463,33.641,0.0565,0.0171,9.7985,-0.7945,0.1813,-0.0484
2960,971,852,34.483,33.677,-0.0053,-0.0153,9.8261,-0.3451,0.0712,-0.2846
2965,965,853,34.48,33.597,-0.0213,-0.0102,9.8297,-1.0695,-0.5714,0.2337
2970,955,856,34.513,33.537,-0.0403,0.031,9.8327,-0.6029,0.1603,0.0885
2975,956,846,34.404,33.599,0.0284,-0.0414,9.8133,0.3619,-0.1706,-0.1652
2980,941,853,34.453,33.618,-0.034,0.0032,9.8136,-0.3528,-0.0923,0.0802
2985,926,850,34.482,33.554,-0.0936,-0.1147,9.8197,0.0347,-0.0178,-0.4132
2990,924,845,34.455,33.669,0.02,-0.0096,9.7507,-0.3063,-0.356,0.3337
2995,922,839,34.446,33.595,0.0124,-0.0066,9.8112,-0.5361,0.1506,0.2078
3000,915,841,34.523,33.711,0.0021,-0.0626,9.8687,0.0014,-0.0696,-0.0603
3005,906,841,34.5,33.635,0.0837,-0.0366,9.7912,0.19,-0.245,-0.1801
3010,898,838,34.447,33.653,0.1197,0.0524,9.7705,-0.0437,0.6437,0.29
3015,880,834,34.434,33.654,-0.0038,-0.0322,9.7257,-0.7012,1.016,0.4559
3020,876,832,34.442,33.624,0.014,-0.1096,9.8827,0.2588,0.0447,-1.1422
3025,870,825,34.438,33.559,-0.0274,-0.0407,9.7914,0.1558,-0.3324,-0.4302
3030,862,828,34.523,33.558,0.0047,-0.0646,9.7718,0.1313,-0.6435,-0.4188
3035,849,819,34.492,33.595,0.054,0.1446,9.7572,0.0178,0.1636,0.095
3040,838,820,34.488,33.553,0.0307,-0.0454,9.8448,0.2991,0.2831,0.1279
3045,834,815,34.429,33.639,0.0097,0.012,9.8229,-0.0115,-0.1038,-0.22
3050,828,814,34.63,33.617,-0.0475,0.0389,9.7535,-0.5226,0.3693,0.1426
3055,811,809,34.306,33.627,0.0045,-0.0273,9.8087,0.2861,0.2105,-0.0268
3060,817,808,34.45,33.606,-0.0289,0.0691,9.7956,-1.3589,-0.4068,-0.7684
3065,809,804,34.454,33.533,0.0723,-0.054,9.8034,0.9193,0.0243,-0.1458
3070,799,797,34.522,33.659,0.0311,0.0755,9.8153,-0.437,0.3669,-0.001
3075,800,789,34.41,33.643,0.0546,-0.049,9.7761,0.5535,0.353,0.4392
3080,782,782,34.477,33.665,0.0818,0.0282,9.7901,-0.2425,0.1594,0.4796
3085,773,775,34.48,33.725,0.0319,0.0416,9.7988,0.262,-0.2579,0.2488
3090,777,778,34.453,33.657,0.0028,-0.0129,9.8638,0.5553,-0.7572,-0.1169
3095,772,769,34.388,33.661,-0.1222,0.0323,9.8381,0.1962,0.0992,0.0485
3100,756,761,34.447,33.608,0.0253,0.0201,9.799,0.2963,-0.8647,0.6684
3105,759,758,34.475,33.526,0.1147,0.0246,9.7874,1.0858,0.2378,0.6016
3110,759,753,34.474,33.617,0.001,-0.0853,9.7818,-0.6845,0.3371,0.1196
3115,758,752,34.429,33.527,-0.061,-0.015,9.8625,0.1948,-0.1523,-0.1873
3120,756,746,34.476,33.588,0.0532,-0.0179,9.8224,-0.3046,-0.8364,0.3506
3125,742,742,34.487,33.647,0.0029,-0.0247,9.8135,0.2132,0.5278,-0.756
3130,749,731,34.416,33.575,-0.0648,-0.1009,9.786,0.3402,-0.426,-0.1915
3135,741,727,34.419,33.712,-0.0434,-0.0778,9.8005,-0.022,0.3729,0.0394
3140,756,719,34.478,33.618,0.0301,-0.0693,9.8058,-0.4365,-0.1693,0.6074
3145,736,706,34.493,33.574,-0.0455,0.1128,9.7599,0.8442,-0.9337,0.2285
3150,746,711,34.447,33.581,-0.0566,-0.0031,9.7552,-0.6807,-0.6281,-0.2176
3155,750,702,34.381,33.646,0.0091,0.045,9.9056,-1.0761,0.5189,0.4441
3160,762,693,34.409,33.694,0.1022,-0.0471,9.7555,-0.285,-0.7232,-0.3836
3165,759,692,34.456,33.486,-0.0236,-0.0207,9.827,-0.5291,0.1865,-0.0213
3170,757,684,34.464,33.632,0.0307,-0.0266,9.8226,0.712,-0.3868,0.3584
3175,761,675,34.458,33.606,-0.0756,0.0232,9.7645,0.3185,0.1191,-0.348
3180,774,673,34.438,33.542,-0.0555,0.0341,9.8524,-0.7452,0.4164,0.1131
3185,773,670,34.519,33.561,0.025,0.0438,9.7356,-0.0207,-0.0232,-0.2201
3190,778,668,34.473,33.621,-0.0392,0.0804,9.7596,-0.2925,0.2216,0.8353
3195,782,658,34.454,33.623,0.028,-0.0226,9.7809,0.4118,-0.4224,0.1775
3200,791,657,34.351,33.579,0.0321,0.0262,9.865,0.2582,-0.3293,0.6786
3205,799,651,34.551,33.552,-0.0059,0.0304,9.8329,-0.5241,0.619,-0.8341
3210,812,647,34.478,33.623,-0.0302,-0.0032,9.7814,0.6788,-0.2215,-0.8909
3215,814,647,34.454,33.565,-0.0818,0.0191,9.7927,-0.0799,0.4306,0.2066
3220,825,640,34.419,33.455,-0.0354,-0.0131,9.864,0.4751,0.8703,-0.201
3225,840,636,34.421,33.586,-0.0314,0.0933,9.8044,0.4637,0.1574,0.2901
3230,850,637,34.526,33.626,-0.0808,-0.0622,9.8133,1.0176,-0.2109,0.3427
3235,857,635,34.515,33.532,0.0255,0.0342,9.8062,-0.1743,0.1348,0.1811
3240,867,634,34.427,33.539,-0.0481,-0.0013,9.7911,-0.478,0.4562,-0.7107
3245,881,632,34.494,33.59,-0.0125,0.0023,9.8124,-0.1511,0.1586,0.3177
3250,882,629,34.349,33.6,-0.0227,0.0358,9.8466,-0.2927,0.9856,0.2162
3255,905,634,34.476,33.61,-0.0447,0.0333,9.7826,-0.6741,-0.3108,-0.303
3260,920,625,34.464,33.685,-0.0179,-0.0338,9.8528,0.0039,-0.19,1.2815
3265,915,626,34.448,33.622,0.0315,0.0897,9.9064,0.1775,-0.1105,-0.6963
3270,934,625,34.473,33.6,-0.0443,-0.0432,9.8112,0.2699,-0.3297,-0.1172
3275,946,629,34.354,33.633,-0.0012,0.0366,9.8135,0.2897,0.1795,0.0963
3280,949,631,34.5,33.581,-0.0207,-0.027,9.8602,-0.021,-0.3992,-0.0736
3285,970,633,34.524,33.63,-0.0575,-0.0169,9.8953,-0.5729,0.8761,-0.2632
3290,988,639,34.508,33.606,0.0185,-0.0402,9.8477,-0.1747,0.1465,-1.2789
3295,988,636,34.509,33.619,-0.0327,-0.027,9.7536,0.0663,0.0605,0.8345
3300,1001,638,34.373,33.641,0.0469,0.0218,9.8061,-0.3154,0.2916,-0.3444
3305,1016,641,34.4,33.581,0.0576,0.0532,9.7464,0.0176,0.1331,0.4879
3310,1024,650,34.523,33.527,-0.0389,0.0023,9.7269,-0.6757,0.4689,0.6022
3315,1036,652,34.447,33.544,-0.0351,0.0367,9.7603,0.0457,0.1492,0.571
3320,1042,656,34.462,33.574,-0.0703,-0.0755,9.7809,-0.3502,0.4321,0.2275
3325,1056,664,34.409,33.575,0.0041,0.1125,9.8348,1.3347,-0.3569,0.1526
3330,1067,665,34.45,33.585,-0.0039,0.074,9.8929,-0.2738,-0.0649,-0.1742
3335,1077,676,34.489,33.56,-0.0313,0.1054,9.7805,-0.3231,0.5948,0.0599
3340,1080,679,34.387,33.599,0.0046,0.0618,9.8923,0.2137,0.4663,0.3188
3345,1102,687,34.414,33.647,0.0093,0.0997,9.7837,-0.5089,-0.086,-0.667
3350,1100,695,34.419,33.545,0.0432,0.1401,9.7508,1.3886,-0.3437,0.1425
3355,1118,696,34.487,33.614,0.0762,-0.0465,9.8388,0.976,-0.2051,0.897
3360,1125,706,34.585,33.7,0.0532,0.0361,9.8546,-0.1471,0.2477,-0.3024
3365,1121,708,34.479,33.609,-0.0653,0.0472,9.8531,-0.0063,-0.0692,-0.6367
3370,1129,723,34.443,33.628,-0.0639,-0.0975,9.8827,0.7333,-0.5468,-0.3682
3375,1142,723,34.443,33.7,0.0709,-0.0302,9.7711,-0.0655,-0.1741,-0.2689
3380,1149,735,34.485,33.661,0.0191,-0.0045,9.791,-0.5045,-0.6126,-0.0135
3385,1155,745,34.51,33.64,-0.0454,-0.0497,9.8561,-0.187,-0.2694,0.1495
3390,1157,746,34.338,33.667,-0.048,0.0182,9.7296,-0.0106,-0.3352,-0.424
3395,1159,754,34.517,33.591,0.0694,0.0423,9.7388,1.0447,0.2459,0.5861
3400,1169,765,34.439,33.532,0.0513,-0.0201,9.8376,0.0405,0.2403,0.6602
3405,1173,779,34.458,33.619,-0.0551,0.0757,9.7272,-0.1872,-0.2782,-0.0511
3410,1181,781,34.5,33.671,-0.0244,0.116,9.7787,0.3153,0.3649,-0.1056
3415,1188,791,34.481,33.646,0.0262,0.0596,9.8138,-0.4294,0.6752,-0.3851
3420,1182,798,34.42,33.665,-0.057,-0.1081,9.7201,-0.2551,0.2775,-0.5888
3425,1178,806,34.484,33.672,0.0668,0.0138,9.8362,-0.2795,0.369,0.6124
3430,1180,816,34.461,33.645,-0.0575,-0.0164,9.8251,0.0986,-1.2101,0.2614
3435,1189,820,34.487,33.59,0.003,0.0058,9.7431,0.5745,0.4848,-0.9916
3440,1182,825,34.452,33.562,-0.0295,-0.0735,9.7496,0.0793,0.7223,0.1954
3445,1183,837,34.483,33.688,0.0261,-0.0602,9.833,0.339,0.3503,-0.538
3450,1192,839,34.352,33.641,-0.0433,-0.0159,9.7093,0.3117,-0.2414,1.2335
3455,1187,851,34.444,33.687,0.0141,0.0579,9.7837,1.1114,0.3338,0.618
3460,1178,860,34.466,33.643,-0.0456,-0.0303,9.7345,0.1304,-0.1522,-0.3131
3465,1189,865,34.398,33.678,-0.0131,-0.0875,9.7342,0.6954,0.1844,0.3374
3470,1183,869,34.4,33.624,0.0281,0.0386,9.833,0.3958,-1.2379,-0.6675
3475,1175,871,34.453,33.644,0.0535,0.0519,9.8084,0.1874,-0.5825,0.3546
3480,1177,880,34.519,33.519,-0.0193,-0.0877,9.768,-0.7683,0.7432,-0.9469
3485,1181,881,34.453,33.689,-0.0939,-0.0491,9.7845,-0.3571,0.268,0.0552
3490,1180,894,34.554,33.566,0.0725,0.1191,9.8172,-0.3384,0.5712,0.5202
3495,1177,893,34.52,33.548,-0.0192,0.0145,9.8347,-0.1522,0.946,-0.9344
3500,1177,899,34.431,33.71,0.0936,0.0429,9.9132,-0.3326,0.029,0.169
3505,1167,902,34.414,33.621,-0.015,0.0699,9.7214,-0.1213,0.7154,0.0636
3510,1161,910,34.521,33.568,-0.1021,0.0877,9.7642,0.3523,0.477,-0.0496
3515,1157,911,34.513,33.605,0.008,-0.0049,9.8305,-0.3804,-0.6176,0.0164
3520,1164,911,34.453,33.537,-0.0141,-0.0573,9.8876,-0.5617,0.2638,0.4235
3525,1158,913,34.507,33.625,-0.0021,-0.0111,9.8617,-0.6146,0.1213,0.171
3530,1160,915,34.483,33.642,0.0097,0.074,9.773,-0.5191,-0.0926,-0.3522
3535,1153,924,34.387,33.514,0.0125,-0.0208,9.8403,-0.5478,0.2715,-0.2881
3540,1150,922,34.406,33.558,0.0228,0.0157,9.7811,-0.224,0.6916,-0.372
3545,1150,924,34.509,33.639,0.0725,-0.0465,9.7768,-1.0141,0.3919,0.1058
3550,1136,927,34.407,33.606,0.0215,-0.0149,9.847,0.9487,0.2561,-0.097
3555,1136,926,34.473,33.57,0.0828,0.1011,9.8578,0.3881,0.1276,0.0264
3560,1136,923,34.546,33.659,-0.0506,-0.0089,9.8217,0.2414,-0.1186,0.1165
3565,1126,929,34.46,33.55,0.0686,0.001,9.7922,0.3021,-0.8083,-0.5885
3570,1131,925,34.431,33.679,0.0076,0.0609,9.8847,0.7186,-0.8296,-0.184
3575,1120,927,34.427,33.655,-0.021,0.0096,9.8617,-0.1353,1.0599,0.7991
3580,1121,927,34.511,33.628,0.0209,0.0161,9.9313,-0.7275,-0.7662,0.4772
3585,1112,931,34.524,33.652,0.0497,0.0162,9.8406,-0.1718,0.1297,-0.5937
3590,1117,925,34.406,33.644,0.0078,0.0763,9.7046,0.4164,0.2639,-0.351
3595,1120,927,34.413,33.677,0.0533,0.0368,9.8021,0.2296,0.2504,0.3403
3600,1109,926,34.418,33.632,0.0864,0.0035,9.8412,0.1863,-0.7654,0.3028
3605,1111,926,34.446,33.555,-0.0101,0.0316,9.7929,-0.5701,0.2227,-0.8351
3610,1101,919,34.445,33.659,0.0122,-0.0401,9.7566,-0.8553,0.0293,-0.165
3615,1113,921,34.44,33.633,0.0513,0.0079,9.8167,0.09,0.1992,-1.0434
3620,1104,922,34.517,33.676,0.0314,-0.118,9.8596,0.2868,0.527,-0.0842
3625,1096,916,34.378,33.621,0.0457,0.0489,9.821,-0.464,-0.9676,1.106
3630,1097,915,34.407,33.547,0.0194,0.0365,9.8458,-0.5435,-0.3204,-0.3183
3635,1098,908,34.458,33.577,0.0469,0.005,9.8128,0.3461,0.3542,0.3611
3640,1096,913,34.405,33.545,0.0161,-0.0608,9.8096,-0.2516,-0.4262,0.1812
3645,1094,909,34.48,33.593,-0.003,-0.0163,9.7556,-0.1981,-0.4669,0.2356
3650,1090,903,34.43,33.617,-0.0712,-0.0773,9.8403,0.2759,0.0711,-0.7202
3655,1096,903,34.504,33.593,0.0202,0.0142,9.7701,-0.0967,0.2105,-0.81
3660,1086,902,34.414,33.603,0.0009,-0.0843,9.8211,0.1391,0.5943,0.3924
3665,1092,904,34.484,33.579,-0.0475,-0.0155,9.7385,0.6624,-0.8766,0.9304
3670,1087,897,34.328,33.659,-0.064,-0.033,9.886,1.0696,0.9966,-0.2649
3675,1078,890,34.473,33.606,-0.0034,-0.0531,9.8109,-1.2638,0.3502,0.0989
3680,1077,894,34.439,33.601,-0.0055,-0.0001,9.8286,0.316,-1.0262,0.6319
3685,1070,892,34.458,33.717,0.1199,-0.0492,9.8654,-0.2198,0.1148,0.9269
3690,1073,887,34.483,33.587,0.0319,-0.0571,9.7136,0.3358,-0.5747,-0.2491
3695,1068,884,34.529,33.506,-0.0018,0.0054,9.7876,-0.4619,-0.1178,-0.191
3700,1073,881,34.496,33.548,0.0184,0.0472,9.7922,0.0065,1.0972,0.6214
3705,1065,885,34.45,33.536,0.0443,0.0988,9.7215,0.1104,-1.0737,0.224
3710,1061,881,34.493,33.699,0.0371,-0.0265,9.8206,-0.0385,-0.2011,0.2235
3715,1052,878,34.471,33.624,0.0011,0.0327,9.8356,-0.3129,0.0509,0.2167
3720,1058,879,34.483,33.658,0.0628,0.0622,9.7799,-0.4252,-0.1604,-0.5278
3725,1048,877,34.477,33.636,-0.0601,-0.044,9.7578,-0.2593,-0.2064,0.249
3730,1039,870,34.421,33.664,-0.1159,0.0011,9.8256,-0.5527,-0.0365,0.6482
3735,1037,874,34.398,33.761,0.0103,0.0308,9.8273,0.4726,1.012,0.3812
3740,1038,872,34.516,33.652,-0.1039,0.0145,9.7745,0.2504,-0.1646,0.1705
3745,1045,866,34.309,33.628,0.126,-0.0456,9.783,0.3964,-0.3416,0.4866
3750,1014,865,34.424,33.71,0.1122,-0.0387,9.8282,-0.3144,0.2873,0.5646
3755,1022,872,34.44,33.54,0.0442,0.0156,9.7583,-0.7623,0.3828,0.5593
3760,1018,869,34.559,33.638,-0.0004,0.0542,9.753,1.4157,-0.2643,-0.4855
3765,1011,869,34.451,33.735,0.0037,-0.051,9.8297,-0.267,-0.211,0.3921
3770,998,860,34.442,33.669,0.0877,-0.0299,9.8739,0.0061,0.7347,0.4034
3775,993,863,34.447,33.591,-0.0343,-0.0677,9.7232,0.1674,0.0483,-0.5615
3780,986,859,34.404,33.641,0.1504,0.0353,9.8317,-0.5166,-0.3738,1.0394
3785,980,864,34.491,33.581,-0.0085,-0.0271,9.8469,-0.3748,0.1863,-0.1749
3790,969,860,34.479,33.519,0.0422,0.0449,9.8325,-0.2386,-0.3781,0.1919
3795,964,854,34.455,33.552,-0.0193,-0.0959,9.7836,-0.5021,-0.1157,-0.2907
3800,965,852,34.421,33.621,0.0256,-0.0746,9.8696,0.8639,0.1118,-0.1209
3805,963,854,34.484,33.563,0.0144,-0.007,9.9185,-0.1109,-0.2158,-0.1506
3810,947,849,34.507,33.627,-0.0468,0.0279,9.841,0.1156,-0.5649,-0.4709
3815,937,852,34.399,33.598,-0.0494,-0.0702,9.769,0.0613,0.9327,0.387
3820,918,849,34.505,33.632,0.0143,0.0444,9.8849,0.06,0.3162,-0.7805
3825,919,848,34.52,33.654,0.0436,-0.0109,9.8654,-0.3777,0.352,0.2376
3830,906,844,34.482,33.598,0.026,-0.0138,9.8569,0.3355,-0.5345,-0.3973
3835,898,843,34.477,33.639,-0.0778,0.0452,9.8493,-0.4692,-0.2125,-0.5352
3840,891,836,34.453,33.616,-0.0145,-0.0383,9.8842,-0.0431,0.244,0.4307
3845,888,831,34.437,33.57,-0.0004,0.0375,9.9634,0.1585,-0.2671,0.3488
3850,877,827,34.51,33.59,0.0534,0.0466,9.7995,0.4653,-1.3016,-0.4496
3855,863,831,34.468,33.548,-0.0155,0.0199,9.7617,-0.3679,0.0792,0.3893
3860,866,829,34.515,33.609,-0.0466,0.0072,9.7384,0.0574,0.1329,-0.2669
3865,854,830,34.35,33.583,0.0077,0.0229,9.8186,-0.8982,-0.3274,-0.0986
3870,840,817,34.422,33.566,0.0524,0.107,9.7813,0.4002,-0.0567,-0.0489
3875,841,817,34.467,33.649,-0.0088,-0.038,9.8406,-0.6455,-0.071,-0.1508
3880,826,814,34.514,33.643,0.0428,0.0222,9.8068,1.254,0.1069,0.3736
3885,818,808,34.505,33.627,0.086,-0.0094,9.6818,-0.0529,-0.1091,-0.6308
3890,811,803,34.446,33.722,-0.0021,-0.0417,9.7985,0.2582,-0.1397,0.681
3895,804,798,34.438,33.695,0.0149,0.0856,9.819,-0.7652,-0.1006,0.2335
3900,802,791,34.422,33.507,-0.0155,-0.0158,9.8789,0.4905,-0.3655,0.2347
3905,789,782,34.514,33.573,-0.0454,0.0178,9.7473,0.2956,-0.4533,1.1705
3910,780,787,34.484,33.674,-0.091,-0.0211,9.8934,1.1301,-0.0476,-0.4857
3915,766,777,34.504,33.687,0.0299,0.0066,9.7588,0.073,-0.6997,-0.0011
3920,765,782,34.562,33.619,0.0133,0.0227,9.8555,0.0775,0.2223,1.24
3925,770,773,34.527,33.598,0.0352,-0.0094,9.8279,-0.3425,-0.6643,-0.3472
3930,764,769,34.438,33.616,0.0091,-0.0012,9.7406,-0.2186,0.2057,0.3936
3935,760,762,34.485,33.648,0.0063,0.0097,9.8033,-0.0924,-0.3864,0.1252
3940,756,757,34.463,33.562,-0.0988,0.0866,9.8335,-0.4553,-0.1739,-0.1669
3945,756,748,34.518,33.596,-0.063,-0.0736,9.8028,0.035,-0.1144,-0.2985
3950,751,743,34.436,33.616,-0.0691,-0.0166,9.7687,0.0888,-0.5193,-0.1471
3955,753,736,34.503,33.601,0.0106,0.0487,9.7954,1.0071,-0.1627,0.0009
3960,754,733,34.416,33.608,-0.0549,-0.0183,9.7859,0.7289,-0.7065,-0.6982
3965,742,722,34.409,33.583,-0.0381,-0.0247,9.7832,-0.6035,0.3958,0.5887
3970,746,718,34.556,33.666,-0.01,-0.0319,9.7956,0.3704,0.7718,-0.1737
3975,753,717,34.506,33.634,0.038,-0.0397,9.7735,-0.2865,-0.4311,0.252
3980,751,712,34.493,33.571,-0.0263,0.0064,9.7987,-0.5558,-0.5301,-0.63
3985,753,703,34.452,33.619,-0.0074,0.0287,9.9035,0.2015,1.0829,-0.6263
3990,751,692,34.47,33.596,-0.0469,-0.0161,9.7867,0.0954,0.0234,0.8934
3995,760,691,34.435,33.628,0.0311,0.0331,9.7901,-0.1985,0.2552,-0.6267
4000,759,683,34.438,33.608,0.049,-0.0454,9.8641,0.6766,0.6702,-0.4365
4005,767,681,34.416,33.639,0.0299,-0.0815,9.833,0.7304,0.1934,-0.1577
4010,761,676,34.472,33.667,0.013,0.0711,9.8758,-0.1336,-0.4238,0.4492
4014,771,673,34.436,33.673,0.0054,0.0402,9.809,0.4356,0.1729,-0.3895
4019,788,662,34.473,33.578,0.0213,0.0074,9.8187,-0.3265,0.1021,-0.1999
4025,788,659,34.538,33.588,0.0946,0.0806,9.7902,0.7552,0.6834,-0.5682
4030,786,656,34.447,33.603,-0.0035,0.0065,9.873,0.6485,0.045,-0.1013
4035,795,649,34.443,33.646,-0.025,-0.0208,9.8111,-0.661,0.5173,-0.7216
4040,797,648,34.41,33.606,0.0673,-0.0049,9.8449,-0.5824,-0.7758,-0.6373
4045,825,642,34.573,33.591,-0.1085,0.1077,9.7918,-0.428,-0.0866,0.38
4050,829,640,34.465,33.66,0.0872,0.0444,9.8148,-0.9143,-0.5313,0.0736
4054,833,641,34.43,33.684,-0.0031,0.064,9.7631,-0.3169,0.0337,1.1535
4059,856,633,34.446,33.663,-0.0327,-0.0374,9.8903,0.2794,0.4457,0.0319
4065,851,632,34.454,33.549,0.0474,0.0586,9.7816,-0.4718,0.0949,0.2042
4070,875,632,34.455,33.619,-0.0024,0.0269,9.8242,-0.4712,0.4817,-0.5263
4075,882,625,34.44,33.602,-0.0471,-0.14,9.7834,0.7958,-0.03,0.1505
4080,885,628,34.558,33.644,0.0476,0.0222,9.8154,0.1512,-0.1977,0.2794
4085,901,632,34.489,33.584,0.0275,-0.0539,9.7822,-0.2436,-0.5377,1.423
4090,913,627,34.463,33.657,-0.0247,-0.0173,9.8707,0.0644,-0.0308,-0.356
4094,926,627,34.5,33.634,-0.021,0.003,9.9112,0.0145,0.504,0.2075
4100,933,630,34.368,33.648,-0.0239,0.0177,9.7141,-0.2392,0.0371,-0.1564
4105,954,630,34.499,33.634,0.1241,0.1066,9.8389,0.1134,-0.4205,-0.6854
4110,963,632,34.52,33.637,0.0476,-0.0018,9.783,0.1611,-0.2503,-0.4642
4115,969,631,34.48,33.575,0.005,-0.0297,9.8363,0.4399,-0.2205,-0.0032
4120,973,636,34.549,33.62,-0.0358,-0.0736,9.8183,0.147,-0.9547,0.6743
4125,989,636,34.506,33.645,-0.0476,0.0166,9.8373,-0.2679,0.5681,0.5864
4130,1002,638,34.477,33.582,0.0257,-0.0153,9.7495,-0.2331,-0.3298,0.892
4135,1008,645,34.586,33.639,0.1016,-0.0017,9.7501,-0.2599,-0.1968,-0.3078
4140,1013,649,34.423,33.575,-0.0718,0.0572,9.7694,0.3807,0.3405,-0.0607
4145,1029,652,34.434,33.704,0.0888,0.0246,9.7161,0.2776,0.046,-0.0154
4150,1048,652,34.576,33.538,0.0394,0.0154,9.8636,-0.019,-0.1397,-0.021
4155,1061,659,34.414,33.66,0.0081,0.06,9.8378,-0.5483,-0.3751,-0.2406
4160,1071,667,34.368,33.683,-0.1175,-0.0015,9.8961,-0.1208,-0.0452,-0.6951
4165,1082,673,34.517,33.574,0.078,-0.0403,9.859,-0.1897,-0.161,-0.2539
4170,1074,678,34.493,33.666,-0.0634,-0.0541,9.8914,0.7887,0.4966,0.8029
4175,1087,682,34.493,33.544,-0.0046,0.0277,9.8196,-0.1952,-0.286,0.4418
4180,1109,692,34.443,33.619,-0.0356,0.0724,9.8354,0.5211,0.1659,-0.3801
4185,1109,700,34.504,33.54,-0.0166,0.1012,9.7211,0.5351,0.2901,-0.3526
4190,1124,702,34.462,33.66,-0.0406,-0.0178,9.8698,-0.196,-0.4171,-0.2577
4195,1125,709,34.388,33.616,0.0953,0.0269,9.878,-0.3216,-0.0909,-0.0747
4200,1140,721,34.49,33.636,-0.0273,0.0756,9.8562,-1.0575,-0.0033,-0.0121
4205,1149,725,34.439,33.581,0.042,0.0571,9.8519,0.0411,-0.3339,-0.5437
4210,1155,736,34.532,33.601,-0.0319,-0.0187,9.779,0.1216,-0.0026,0.1776
4215,1154,740,34.506,33.59,0.0299,0.043,9.7105,0.5639,-0.1054,-0.5044
4220,1160,757,34.364,33.621,-0.0012,0.0277,9.8239,-0.5447,0.953,-0.1142
4225,1159,754,34.471,33.698,0.0399,-0.0039,9.7865,0.3937,0.7953,0.3483
4230,1169,766,34.408,33.663,0.0287,0.0469,9.8459,-0.0747,0.3438,0.2958
4235,1169,776,34.454,33.643,-0.0733,-0.0709,9.858,-1.099,-0.2912,-0.1392
4240,1170,780,34.508,33.659,-0.113,0.0462,9.8265,-0.1567,0.0855,0.5052
4245,1175,783,34.458,33.635,-0.0092,0.0142,9.8196,0.0138,0.0707,0.2607
4250,1179,799,34.498,33.599,0.069,0.0009,9.8439,-0.896,0.1992,0.2406
4255,1178,804,34.59,33.618,-0.1342,-0.0328,9.7716,0.0926,-0.2995,-0.8455
4260,1186,812,34.483,33.601,-0.0536,0.0517,9.9008,0.6374,0.412,-0.4097
4265,1194,822,34.396,33.545,-0.0301,0.1489,9.8221,0.3199,-0.3474,-0.3846
4270,1178,827,34.38,33.659,-0.0042,0.0196,9.7107,0.7259,-0.1607,-0.1403
4275,1184,835,34.508,33.652,-0.0116,-0.0618,9.8009,0.0375,-0.0093,-0.0493
4280,1183,841,34.53,33.57,-0.1821,-0.0462,9.7917,-0.7554,-0.5227,-0.6445
4285,1184,844,34.441,33.676,0.0182,-0.0434,9.7567,0.3974,0.2718,0.2727
4290,1187,853,34.405,33.594,0.0124,-0.0291,9.8638,-0.0496,-0.2204,-0.0182
4295,1186,868,34.399,33.591,-0.1219,0.0061,9.8128,-0.4314,-0.0689,0.1531
4300,1184,866,34.563,33.709,-0.0007,-0.0488,9.8115,0.3141,-0.0702,-0.091
4305,1188,871,34.453,33.601,-0.0445,-0.0255,9.7875,0.2829,-0.4247,0.4577
4310,1179,878,34.5,33.659,-0.0235,-0.0086,9.7864,-0.3183,-1.0996,-0.6834
4315,1187,885,34.428,33.63,-0.0933,0.1166,9.8577,0.169,-0.0003,0.1433
4320,1177,892,34.533,33.661,0.0132,-0.098,9.8073,-0.2448,-0.0886,1.1573
4325,1166,898,34.505,33.651,-0.0722,0.0069,9.7125,0.3537,0.7262,-0.0494
4330,1174,898,34.481,33.586,0.0503,0.0009,9.851,0.083,-0.8738,0.1753
4335,1167,903,34.458,33.548,-0.0645,-0.0291,9.8457,0.3464,0.2499,0.0825
4340,1168,904,34.437,33.617,-0.0465,-0.064,9.8092,0.0004,-0.34,0.1618
4345,1162,914,34.492,33.673,-0.0157,-0.021,9.7522,-0.0771,-0.8655,-0.1156
4350,1155,915,34.485,33.662,0.0033,-0.0868,9.7595,-0.8711,-0.9407,-0.7887
4355,1164,912,34.586,33.573,-0.0152,-0.0231,9.7599,0.4822,-0.4717,0.3054
4360,1148,921,34.423,33.521,0.0426,-0.0068,9.7757,0.6633,0.7821,-0.0343
4365,1154,920,34.537,33.542,0.0214,0.0918,9.7781,0.5987,-0.8875,0.1185
4370,1146,919,34.568,33.658,0.0135,-0.0383,9.8534,1.2044,0.0793,0.2553
4375,1148,921,34.506,33.6,0.0453,-0.0541,9.7308,-0.3485,-0.3026,-0.037
4380,1138,926,34.467,33.603,0.0156,0.05,9.8286,-0.4073,-0.1427,-0.5493
4385,1136,927,34.547,33.68,0.0521,0.08,9.7332,-1.0015,0.3791,-0.1207
4390,1138,932,34.533,33.644,-0.0301,0.0525,9.8674,0.017,0.1287,0.2383
4395,1138,930,34.489,33.647,0.0137,-0.0186,9.8431,-0.2773,0.4878,-0.1827
4400,1129,928,34.428,33.54,0.0442,0.0678,9.883,0.1057,0.9943,0.1157
4405,1127,927,34.487,33.559,0.012,-0.0503,9.893,-0.4361,0.009,0.0127
4410,1120,930,34.522,33.599,-0.0297,0.081,9.8355,-0.4548,0.2418,-0.54
4415,1119,924,34.481,33.573,-0.0067,0.0506,9.8945,0.2248,0.1691,0.3552
4420,1115,927,34.505,33.522,-0.0255,0.038,9.8827,-0.0532,-0.0956,-0.5194
4425,1115,924,34.539,33.592,0.0673,0.0229,9.7598,0.2954,-0.1035,0.153
4430,1115,921,34.621,33.596,-0.0451,0.0602,9.8379,0.1112,-0.5486,0.0323
4435,1106,924,34.567,33.696,-0.0678,-0.0008,9.7984,0.17,-0.0158,0.1858
4440,1103,925,34.566,33.567,0.0244,0.0114,9.8125,0.1448,1.0671,-0.0608
4445,1096,917,34.5,33.654,0.0187,-0.0263,9.8003,0.116,-0.4656,0.1438
4450,1106,918,34.488,33.646,-0.002,0.0356,9.7889,0.2289,0.2961,-0.417
4455,1091,916,34.463,33.6,-0.0689,0.0676,9.8542,0.671,0.7927,1.0465
4460,1101,919,34.527,33.545,0.0261,-0.0274,9.7929,-0.4783,-0.2872,-0.0803
4465,1095,915,34.52,33.602,-0.0916,0.0759,9.7983,-0.1149,0.0722,-0.2495
4470,1103,905,34.413,33.622,-0.0318,0.0794,9.8834,-0.1382,-0.7725,0.643
4475,1090,912,34.478,33.62,-0.0335,-0.0221,9.7223,0.7693,0.4038,-0.5225
4480,1095,906,34.515,33.682,0.0083,-0.0513,9.8089,-0.773,-0.0229,0.2863
4485,1084,901,34.423,33.671,-0.0784,-0.0574,9.8288,-0.5262,0.5324,0.1824
4490,1084,899,34.451,33.58,-0.0903,-0.0458,9.7691,-0.2079,-0.5622,-0.4427
4495,1087,898,34.439,33.617,-0.1175,-0.0672,9.7828,-0.6062,0.1823,-0.4672
4500,1086,892,34.529,33.596,0.0314,-0.1009,9.7889,-0.4602,0.3254,0.4415
4505,1084,888,34.456,33.513,-0.026,0.0264,9.7536,-0.3279,-0.4226,-0.2222
4510,1078,890,34.479,33.6,0.0251,-0.039,9.7705,-0.4479,0.0711,-0.7449
4515,1071,887,34.39,33.644,-0.0682,-0.0381,9.7888,0.4041,0.5499,-0.9622
4520,1069,893,34.418,33.626,-0.0633,-0.0101,9.8394,-0.0501,0.2815,-0.0606
4525,1069,883,34.432,33.559,-0.044,0.055,9.8184,-0.3314,-0.0634,0.0409
4530,1071,884,34.457,33.625,0.028,0.0186,9.7758,-0.8569,0.4354,0.1434
4535,1068,879,34.466,33.608,0.0212,0.0118,9.6948,-0.1923,-0.0799,1.3267
4540,1060,880,34.439,33.72,0.017,0.0228,9.8583,0.3655,0.6854,0.2054
4545,1063,878,34.473,33.646,-0.0493,0.0536,9.7701,0.6984,-0.4616,-0.8347
4550,1052,884,34.484,33.606,-0.0005,-0.0578,9.8058,-0.051,-0.2346,-1.3589
4555,1050,870,34.516,33.67,0.0084,0.0072,9.849,-0.0343,-0.2726,0.1291
4560,1046,874,34.51,33.667,0.1188,-0.0339,9.8312,0.3191,-1.0955,0.4784
4565,1034,871,34.4,33.643,0.041,0.0634,9.8309,0.9157,-0.2984,-0.5993
4570,1038,869,34.486,33.691,0.0033,-0.0038,9.8691,0.403,0.1743,-0.0456
4575,1025,871,34.544,33.621,-0.0102,0.0285,9.775,0.1049,0.5128,0.1325
4580,1025,870,34.473,33.602,0.0297,0.0482,9.854,-0.1926,-0.2903,-0.7308
4585,1017,865,34.434,33.702,-0.0059,-0.0018,9.8181,-0.6154,-0.0141,0.3238
4590,1012,871,34.562,33.583,0.0301,0.0329,9.8636,0.304,0.268,0.3096
4595,1016,858,34.432,33.571,0.0673,0.0531,9.8198,0.2474,-0.0104,-0.352
4600,1000,863,34.504,33.598,0.0101,-0.0093,9.779,0.3926,0.2246,-0.117
4605,988,862,34.504,33.609,0.0311,0.0317,9.8708,0.1619,-0.8178,0.2526
4610,993,858,34.44,33.659,-0.0589,-0.138,9.8989,-0.3147,-0.2595,-0.3279
4615,970,863,34.575,33.606,0.0564,-0.0068,9.8934,0.159,-0.1598,0.1705
4620,977,857,34.529,33.644,0.0318,0.1275,9.8911,-0.2367,0.2378,0.1157
4625,964,851,34.484,33.632,0.0103,-0.0657,9.8005,0.2362,0.1804,-1.3119
4630,960,855,34.42,33.68,-0.0071,-0.0391,9.7442,0.5271,0.0001,0.8348
4635,947,847,34.529,33.631,0.0183,0.0726,9.7783,-0.4789,0.1863,0.4717
4640,948,860,34.436,33.633,0.0645,-0.0405,9.7955,0.951,0.0993,-0.5361
4645,946,849,34.539,33.575,-0.1214,0.0065,9.8384,0.6261,0.0898,-0.5625
4650,926,843,34.515,33.604,0.0043,0.0608,9.7306,0.4507,0.2263,-0.0222
4655,914,846,34.467,33.67,-0.0369,0.0873,9.8028,0.4699,-0.2572,-0.4649
4660,910,846,34.463,33.672,0.0427,0.0167,9.8658,0.1781,-0.3647,-0.65
4665,907,839,34.467,33.709,0.0756,0.0643,9.7994,-0.6174,0.1745,0.0327
4670,891,840,34.514,33.67,-0.0121,0.0453,9.8594,-0.1686,-0.6423,0.4889
4675,880,839,34.528,33.545,-0.0115,-0.0075,9.8015,0.1106,-0.1771,-0.1255
4680,872,836,34.462,33.618,0.0437,-0.0117,9.8434,-0.7393,-0.3817,-0.0486
4685,872,832,34.541,33.626,0.0426,0.0317,9.7934,0.0182,0.8374,0.255
4690,860,825,34.487,33.656,-0.0167,0.0105,9.9159,0.2188,0.0075,-0.8186
4695,856,825,34.523,33.634,-0.0175,0.0315,9.7546,0.8241,0.4236,-0.0941
4700,843,817,34.365,33.673,-0.0657,-0.0181,9.8225,-0.0156,0.371,0.0364
4705,833,814,34.515,33.608,0.0636,-0.0291,9.7834,0.7661,0.7264,0.3335
4710,826,800,34.436,33.633,-0.0222,0.0187,9.775,0.4009,0.3013,-0.2871
4715,809,812,34.597,33.629,-0.0112,0.0332,9.8376,-0.2061,-0.0379,-0.4537
4720,812,801,34.545,33.537,0.0254,0.0183,9.8014,-0.1124,0.7187,-0.4839
4725,805,800,34.562,33.63,-0.0571,-0.0316,9.8841,0.174,-0.6452,0.1701
4730,807,796,34.509,33.589,-0.0043,-0.0397,9.8129,-0.6787,0.0249,-0.2277
4735,793,791,34.434,33.568,0.0204,0.0085,9.8035,0.0043,-0.0879,-0.575
4740,780,787,34.549,33.679,0.0113,0.0386,9.8338,-0.1512,0.0564,0.5502
4745,774,784,34.417,33.712,-0.0185,0.034,9.7472,-0.4423,-0.1299,0.3852
4750,769,774,34.521,33.563,0.0076,0.0679,9.8729,1.3693,0.4634,-0.185
4755,764,765,34.531,33.593,0.0105,-0.0558,9.8759,0.2781,0.0388,-0.3139
4760,762,765,34.476,33.677,0.0906,0.0874,9.7818,0.4346,-0.103,0.2564
4765,755,758,34.418,33.541,0.119,-0.03,9.7334,-0.2484,0.0042,-0.4677
4770,758,753,34.424,33.609,0.0754,0.0028,9.8044,0.5882,0.5562,0.2038
4775,755,745,34.594,33.745,-0.0747,-0.1008,9.8889,0.242,0.0867,-0.7087
4780,757,750,34.435,33.692,0.0526,0.0935,9.8999,-0.2692,0.3276,0.4875
4785,759,733,34.56,33.589,-0.0177,-0.0532,9.7925,0.6597,-0.013,0.3015
4790,750,727,34.513,33.616,-0.0325,-0.0406,9.7952,-1.006,0.5721,0.4882
4795,743,726,34.528,33.734,-0.0608,-0.0407,9.7611,0.492,-0.6956,0.0096
4800,745,720,34.432,33.704,0.0109,0.0281,9.7787,0.0327,0.3283,0.3873
4805,751,713,34.552,33.604,-0.0047,0.041,9.8159,-0.2209,0.051,-0.5259
4810,755,705,34.438,33.615,0.0007,-0.003,9.7509,-0.1329,-0.7517,-1.0368
4815,752,704,34.488,33.598,0.0509,-0.0326,9.8527,-0.5685,-0.642,0.3193
4820,750,700,34.491,33.63,0.0403,-0.0437,9.8253,0.4318,-0.4808,-1.0361
4825,757,693,34.462,33.743,0.021,0.0362,9.835,-0.6975,-0.5914,-0.0477
4830,768,689,34.43,33.715,-0.0063,0.0251,9.8188,-0.2961,-0.7382,-0.3728
4835,763,683,34.47,33.607,-0.0351,-0.0773,9.7643,0.6735,-0.1573,0.1051
4840,774,674,34.437,33.697,0.0624,0.0587,9.7793,-0.3839,0.94,-0.6757
4845,777,674,34.525,33.626,0.0141,-0.0174,9.8089,-0.1072,-0.2961,-0.601
4850,793,671,34.48,33.592,0.0252,-0.0673,9.8302,0.5138,0.2355,0.2978
4855,782,664,34.373,33.65,-0.0145,-0.0123,9.8388,-0.0051,-0.9007,0.2691
4860,793,657,34.509,33.588,-0.0078,0.0186,9.8092,0.5003,0.3076,0.2114
4865,800,652,34.392,33.586,0.0148,0.0851,9.8892,0.3001,-0.2784,-0.222
4870,815,647,34.51,33.671,0.0275,-0.0721,9.8329,-0.183,0.252,-0.975
4875,818,644,34.455,33.576,-0.0332,-0.0311,9.7765,-0.8584,-0.5458,0.7823
4880,829,639,34.504,33.644,-0.0901,-0.0072,9.734,0.059,0.2939,0.0062
4885,839,642,34.468,33.542,-0.0566,-0.0181,9.8929,0.0046,0.3313,-0.6071
4890,840,638,34.409,33.587,-0.0077,-0.0282,9.9002,-0.5852,-0.1678,-1.1744
4895,854,635,34.538,33.702,0.0142,-0.0282,9.8029,-0.6233,0.2743,-0.101
4900,866,633,34.439,33.595,0.008,0.0081,9.742,-0.6163,-0.0332,0.1332
4905,889,632,34.475,33.635,-0.0217,-0.0076,9.8547,-0.6837,0.371,0.6366
4910,895,624,34.446,33.618,-0.073,0.0581,9.9398,0.5455,0.5563,-0.1168
4915,903,624,34.391,33.571,0.0417,0.1139,9.898,-0.2508,-0.3508,0.1512
4920,910,628,34.6,33.679,0.0389,0.0238,9.8045,0.1797,0.1652,0.6315
4925,929,626,34.515,33.656,-0.0069,0.0067,9.7931,1.4271,0.3716,-0.2825
4930,927,635,34.487,33.585,0.0349,-0.0185,9.7841,-0.5508,-0.8418,0.1517
4935,946,626,34.464,33.652,-0.033,0.0446,9.888,-0.2651,-0.3833,-0.1793
4940,955,631,34.423,33.682,-0.0563,-0.0045,9.8598,0.7024,-0.292,0.2857
4945,977,636,34.513,33.635,-0.023,-0.0432,9.8133,0.1469,0.3056,-0.2021
4950,975,634,34.493,33.606,-0.0086,0.027,9.7759,0.7748,0.9993,0.1608
4955,991,642,34.459,33.579,0.0496,0.1015,9.8524,-0.3591,-0.4064,-0.0567
4960,1004,643,34.417,33.572,0.0568,0.098,9.7817,-0.174,-0.1199,0.8787
4965,1018,643,34.498,33.555,-0.0265,0.0031,9.8403,-0.0568,0.0522,-0.4739
4970,1029,647,34.568,33.604,-0.025,0.0473,9.6949,-0.1767,0.1694,0.4733
4975,1041,657,34.509,33.534,-0.0201,-0.0375,9.7277,-0.6845,-0.3534,0.0529
4980,1044,660,34.47,33.616,0.0321,-0.0108,9.8546,1.0291,-0.3074,0.3337
4985,1074,663,34.473,33.632,-0.0167,0.0058,9.7454,-0.2891,0.069,0.1819
4990,1082,672,34.507,33.619,-0.0254,0.0448,9.7075,0.4129,0.047,0.43
4995,1086,671,34.513,33.645,-0.0228,-0.0159,9.6722,0.8926,0.3069,-0.1269
5000,1090,682,34.42,33.536,0.0329,0.0865,9.8418,0.1026,-0.0298,0.4569
5005,1097,685,34.49,33.586,-0.0391,0.1132,9.8374,-0.7899,-0.1185,1.2879
5010,1113,689,34.483,33.641,-0.0637,0.029,9.796,-0.0588,0.2736,-0.0118
5015,1115,695,34.455,33.61,-0.0094,-0.0281,9.8233,-0.1538,0.5775,-0.2598
5020,1122,708,34.495,33.67,-0.0013,0.0141,9.8779,-0.1997,-0.7869,-0.0347
5025,1129,717,34.479,33.608,0.0524,-0.0327,9.8316,0.6172,0.0834,0.3679
5030,1137,722,34.551,33.583,0.0638,-0.1213,9.8318,0.9205,0.3123,0.8961
5035,1139,729,34.398,33.672,-0.0079,0.0565,9.8125,-0.3883,-0.2269,-1.134
5040,1147,736,34.406,33.623,-0.0413,-0.0251,9.8381,0.5242,0.342,1.3371
5045,1167,744,34.59,33.589,0.0009,0.0714,9.8201,-0.6441,-0.1895,-0.4235
5050,1165,751,34.543,33.554,0.0358,-0.0563,9.849,-0.4154,0.5591,0.082
5055,1160,756,34.555,33.619,0.0121,0.0465,9.8556,-0.4285,-0.863,0.6776
5060,1177,771,34.483,33.633,0.0541,0.0356,9.8271,-0.228,0.7808,-0.1759
5065,1175,776,34.404,33.646,-0.0168,0.033,9.7157,1.1207,0.145,-0.1985
5070,1177,776,34.502,33.539,-0.0179,0.0215,9.7763,-0.0743,0.7131,0.3297
5075,1182,796,34.468,33.66,-0.0494,0.0285,9.8224,0.3547,0.2454,-0.072
5080,1178,792,34.37,33.649,0.05,-0.0342,9.8208,-1.1108,1.3532,-0.5879
5085,1184,804,34.492,33.626,-0.0106,-0.0305,9.8331,-0.294,0.0593,-0.6995
5090,1189,811,34.465,33.613,-0.0375,0.0657,9.8042,-0.1455,-0.1809,0.7503
5095,1196,827,34.506,33.683,-0.0016,0.0301,9.7725,-0.9407,0.4778,0.5394
5100,1186,839,34.474,33.659,-0.0371,0.0007,9.7484,0.0773,-0.945,0.2655
5105,1189,842,34.477,33.508,0.0032,-0.1086,9.7868,-0.1316,0.3416,0.4566
5110,1194,843,34.401,33.613,0.0533,0.0515,9.8239,-0.4246,0.4428,-0.1113
5115,1182,849,34.532,33.661,-0.0126,0.0368,9.7105,-1.1542,-0.801,-0.4092
5120,1187,856,34.423,33.664,-0.0047,-0.0488,9.8163,-0.4606,0.3404,-0.5457
5125,1182,870,34.51,33.642,0.0233,-0.0028,9.8652,-0.5805,-0.1091,-0.2329
5130,1174,867,34.504,33.672,-0.0248,0.0644,9.8617,0.6183,-0.2568,0.5976
5135,1173,872,34.459,33.653,0.0006,0.0238,9.8256,1.0846,0.2762,0.1896
5140,1180,879,34.526,33.665,0.0799,-0.0494,9.7597,-0.3088,-0.461,0.0915
5145,1184,891,34.536,33.652,0.0473,0.0414,9.8086,-0.4296,0.5894,0.2631
5150,1184,890,34.441,33.618,0.0292,0.0511,9.8658,-0.312,0.4696,-0.3263
5155,1173,890,34.453,33.671,0.029,0.0601,9.9499,0.9392,0.5309,-0.3386
5160,1174,899,34.565,33.629,0.0014,-0.0506,9.8248,0.1471,-0.5825,-0.2654
5165,1173,908,34.471,33.677,0.066,0.0058,9.7448,-0.0212,0.1239,-0.8964
5170,1176,909,34.588,33.687,-0.0124,0.0141,9.8486,0.3441,-0.2578,0.1783
5175,1173,914,34.482,33.562,-0.0703,-0.0184,9.7123,-0.5725,-0.6618,-0.3674
5180,1161,910,34.441,33.527,-0.0112,0.0298,9.7577,-0.4882,-0.9527,0.6089
5185,1155,915,34.526,33.591,-0.1045,0.0598,9.9004,-0.5357,0.0172,-0.6664
5190,1145,916,34.461,33.587,0.0616,-0.0489,9.839,0.1881,-0.1285,-1.8239
5195,1164,921,34.418,33.627,0.042,0.0464,9.769,-0.127,0.9142,-0.8891
5200,1158,926,34.461,33.683,0.0656,-0.0979,9.9265,0.265,-0.8366,-0.8449
5205,1147,920,34.469,33.664,-0.0038,0.0171,9.7771,0.1864,0.4407,-0.0959
5210,1134,930,34.597,33.599,-0.0241,0.0869,9.693,0.2535,-0.0027,0.1238
5215,1137,928,34.586,33.545,-0.0388,0.0388,9.7881,-1.132,0.1274,-0.0384
5220,1140,928,34.475,33.642,-0.0731,-0.0338,9.8395,-0.23,-1.2786,-0.7167
5225,1132,929,34.602,33.618,0.0532,0.0323,9.8296,0.5645,-0.0242,0.5562
5230,1121,926,34.473,33.625,0.021,-0.0356,9.8939,0.3959,-0.6809,-1.1384
5235,1122,927,34.432,33.638,-0.0397,0.0007,9.7368,-0.2415,-0.1826,-0.1909
5240,1121,922,34.492,33.619,-0.0108,-0.0312,9.8489,0.1967,-0.8216,0.1108
5245,1115,926,34.448,33.661,-0.0652,0.0401,9.814,0.7868,1.2859,0.3818
5250,1110,925,34.444,33.684,-0.0153,0.0292,9.8,-0.0763,0.0981,-0.0882
5255,1107,922,34.453,33.675,0.0877,-0.0306,9.8558,0.0941,-0.1363,-0.1452
5260,1109,927,34.502,33.572,-0.0089,0.0096,9.798,0.798,-0.2707,0.1634
5265,1103,922,34.536,33.566,0.0044,-0.0071,9.8932,0.0326,0.2773,0.0927
5270,1109,921,34.478,33.617,0.0497,0.0453,9.7984,-1.4425,0.2712,0.605
5275,1101,919,34.52,33.662,0.048,-0.0595,9.7555,-0.4736,-0.393,0.6936
5280,1097,918,34.485,33.657,-0.0387,0.0176,9.7645,-0.4188,-0.8152,0.1229
5285,1101,920,34.479,33.582,-0.0482,-0.0071,9.8243,0.0812,-0.6604,0.3311
5290,1099,916,34.575,33.652,-0.0207,0.0275,9.8813,-0.151,0.2278,-0.3451
5295,1095,909,34.486,33.606,-0.0177,-0.0675,9.8725,0.0856,-0.7439,-0.1509
5300,1096,907,34.423,33.65,-0.0188,-0.0982,9.7946,0.0969,-1.4809,-0.559
5305,1092,906,34.538,33.543,0.0344,0.0364,9.8549,0.9616,0.7971,0.3715
5310,1086,906,34.435,33.639,0.0951,0.0131,9.7522,-0.3449,0.1629,0.6129
5315,1091,901,34.353,33.673,-0.0233,-0.077,9.8201,-0.3653,0.0741,0.2451
5320,1082,900,34.492,33.605,-0.0564,0.0219,9.8143,0.5297,-0.8826,-0.0279
5325,1096,898,34.556,33.688,0.0044,-0.0771,9.8208,-1.3034,0.1866,-0.7239
5330,1100,895,34.435,33.632,-0.0171,-0.007,9.8341,0.1956,0.1671,-0.6018
5335,1087,887,34.46,33.653,0.0584,-0.0236,9.8119,0.2,0.4594,0.0053
5340,1078,894,34.552,33.536,-0.0561,-0.0269,9.7631,-0.5717,0.1366,0.0877
5345,1070,887,34.367,33.653,-0.0475,0.0274,9.8518,-0.496,0.0597,-0.4866
5350,1072,889,34.5,33.596,-0.0029,0.0125,9.8344,-0.5166,0.3132,0.8564
5355,1071,886,34.473,33.625,0.004,0.0193,9.8051,-0.6752,-0.5388,0.1884
5360,1063,884,34.492,33.501,0.0687,0.0453,9.8185,-0.3184,-0.704,0.3082
5365,1064,881,34.492,33.667,-0.039,-0.0371,9.6607,-0.244,0.2045,-0.6799
5370,1061,878,34.478,33.698,0.0158,-0.0157,9.7686,0.5624,-0.0137,0.583
5375,1064,879,34.44,33.564,-0.0163,0.0274,9.7859,-0.6196,0.541,0.0691
5380,1052,870,34.455,33.692,-0.0408,-0.0156,9.8615,0.4782,0.496,-0.0312
5385,1038,877,34.462,33.589,-0.0149,0.0263,9.7991,0.231,0.7025,0.294
5390,1052,872,34.458,33.698,-0.0462,-0.0026,9.8031,0.4783,-0.2967,-0.0472
5395,1037,871,34.419,33.58,-0.1108,-0.0219,9.8345,-0.0301,-0.3515,0.6095
5400,1033,876,34.526,33.603,0.0234,-0.0172,9.7571,1.1183,-0.6794,-0.2218
5405,1033,869,34.477,33.564,0.0111,0.0304,9.7434,-0.9108,0.4462,0.316
5410,1033,868,34.442,33.643,-0.0067,-0.0405,9.8232,-0.62,0.2161,1.1751
5415,1027,863,34.459,33.57,0.0197,0.0154,9.8967,-0.4791,0.2748,0.1988
5420,1009,860,34.368,33.694,-0.0157,-0.0553,9.7863,-0.1743,-0.2026,-0.5047
5425,1008,868,34.489,33.644,0.0478,-0.0235,9.9009,-0.3109,-0.3271,-0.0107
5430,1005,859,34.411,33.672,0.0357,-0.0369,9.83,0.0748,1.0725,0.2423
5435,993,857,34.534,33.679,0.1031,-0.0152,9.7908,0.4937,0.0003,-0.5823
5440,987,864,34.442,33.648,-0.0149,0.0791,9.7179,0.848,0.0489,0.5135
5445,980,857,34.383,33.633,-0.0481,0.0134,9.8946,0.5918,-0.1968,-0.2715
5450,971,857,34.548,33.675,0.0396,-0.0234,9.7907,0.2342,0.3899,-0.6804
5455,968,853,34.466,33.647,0.0079,-0.0235,9.7925,-0.4109,0.1837,0.3962
5460,958,855,34.498,33.697,0.0991,0.0353,9.8683,0.787,0.2808,0.1554
5465,954,854,34.489,33.676,0.0719,-0.0502,9.7705,-1.1871,0.4604,-0.3686
5470,938,852,34.585,33.602,-0.0408,-0.0212,9.8038,0.4205,0.0036,-0.1036
5475,930,853,34.452,33.709,0.0538,-0.0147,9.7618,-0.3108,0.4595,0.1767
5480,918,842,34.531,33.66,-0.0265,0.0388,9.7877,0.2617,-0.1068,0.1318
5485,911,844,34.471,33.604,0.0362,0.0,9.7727,0.1168,-0.3799,-0.0977
5490,905,841,34.391,33.656,-0.0506,-0.0529,9.8374,0.3823,-0.522,0.8608
5495,898,837,34.507,33.639,-0.0377,-0.0439,9.7033,0.0719,0.2994,0.6196
5500,892,838,34.481,33.61,-0.0148,0.0043,9.7884,-0.0528,0.8473,-0.1128
5505,879,833,34.439,33.626,0.0644,-0.0253,9.7409,0.4149,-0.6341,-0.01
5510,878,833,34.486,33.648,-0.0023,-0.0164,9.8026,-0.7613,-0.0412,-1.0885
5515,866,827,34.472,33.577,-0.0194,0.0321,9.8171,0.4775,-1.3585,0.2433
5520,865,820,34.541,33.634,0.0029,-0.0412,9.7466,0.0138,-0.3911,0.3364
5525,855,826,34.52,33.588,0.0306,0.0655,9.7941,-0.0466,0.1015,1.1939
5530,844,821,34.523,33.698,0.02,-0.0345,9.7594,-0.6286,0.6217,-0.3246
5535,831,814,34.511,33.543,-0.0309,-0.0826,9.7917,-0.1654,0.0172,-0.6601
5540,826,809,34.367,33.59,-0.0723,-0.0462,9.8149,0.1692,-0.61,0.4391
5545,817,808,34.549,33.658,-0.0369,0.0009,9.8608,0.0495,-0.4605,-0.2552
5550,812,804,34.418,33.604,-0.047,-0.0775,9.8566,-0.3602,-0.0319,0.3355
5555,805,797,34.493,33.675,-0.0153,-0.0309,9.8272,0.2387,0.2354,0.3592
5560,798,797,34.455,33.676,-0.0512,0.0637,9.8056,0.4727,0.0125,0.2366
5565,786,785,34.485,33.73,-0.0393,0.0752,9.7923,0.1872,0.5157,0.1096
5570,774,783,34.495,33.702,-0.0001,0.0178,9.8018,-0.3174,-0.8088,-0.0735
5575,780,780,34.56,33.656,0.008,0.0248,9.7811,0.0259,-0.4155,0.7426
5580,771,770,34.468,33.666,0.0421,0.0337,9.819,-0.0238,0.9737,-0.3599
5585,765,771,34.465,33.587,0.0038,0.0076,9.786,-0.6248,0.6765,-0.8476
5590,769,767,34.494,33.654,0.0356,-0.0245,9.7431,0.0931,-0.4652,-0.5932
5595,755,763,34.535,33.59,-0.0961,0.0141,9.754,-0.1397,-0.2482,0.1662
5600,755,755,34.442,33.639,0.0006,0.0393,9.8321,-0.298,0.1929,-0.4755
5605,753,749,34.528,33.58,-0.0457,-0.0413,9.7533,0.9925,0.3499,-0.589
5610,758,742,34.523,33.714,-0.0272,0.0481,9.8347,0.2247,0.0351,-0.2454
5615,758,733,34.504,33.558,0.0532,0.0243,9.7635,-0.18,-0.0986,0.4234
5620,746,731,34.575,33.669,0.0618,0.0549,9.7929,0.7743,-0.537,0.0292
5625,752,721,34.515,33.71,-0.0335,0.0725,9.7719,-0.2729,-0.9066,-0.9432
5630,748,721,34.5,33.635,-0.0085,-0.0067,9.8229,0.5797,0.6058,0.0167
5635,755,712,34.552,33.639,-0.0839,-0.0514,9.6988,0.5302,0.5154,0.3217
5640,754,703,34.537,33.651,-0.0095,-0.042,9.7577,-0.8801,-0.3557,0.6108
5645,754,701,34.443,33.612,-0.1323,0.0116,9.8106,0.6214,0.3495,-0.215
5650,754,691,34.568,33.695,-0.0474,0.0128,9.7893,0.1182,-0.6098,-0.2395
5655,762,690,34.486,33.574,-0.0298,-0.0023,9.7432,0.2605,0.3272,-1.144
5660,759,684,34.438,33.688,-0.0564,-0.038,9.8619,-0.3019,-0.1853,0.4312
5665,766,679,34.454,33.56,0.0534,0.0177,9.8774,1.0409,0.2647,0.3031
5670,770,671,34.358,33.62,0.0022,0.036,9.856,0.1711,-0.1337,-0.3618
5675,774,668,34.501,33.644,-0.055,-0.0182,9.7215,-0.0423,0.2327,0.1853
5680,785,663,34.484,33.667,0.0764,-0.0168,9.8381,0.5758,0.0896,-0.753
5685,785,659,34.501,33.713,0.0286,0.0294,9.7217,-0.1414,0.5382,-0.4738
5690,793,652,34.388,33.77,0.0472,-0.0536,9.8403,1.1862,-0.2517,-0.0194
5695,803,647,34.556,33.657,-0.0086,-0.0134,9.7814,0.0097,0.2455,-0.4387
5700,808,639,34.532,33.66,-0.0011,0.0953,9.884,-0.2673,0.086,-0.3603
5705,819,644,34.466,33.595,-0.0633,0.0035,9.875,0.2303,-0.7316,0.5776
5710,832,638,34.479,33.664,0.024,0.0227,9.8116,-0.5756,0.9499,0.2192
5715,840,631,34.412,33.575,0.0041,0.0233,9.8249,0.4479,0.0577,0.1047
5720,845,635,34.461,33.685,-0.0464,-0.043,9.7449,-0.1261,-0.1089,0.5313
5725,861,632,34.412,33.731,0.0407,-0.0287,9.8475,-0.3808,-0.419,-0.2027
5730,870,628,34.502,33.579,-0.0523,0.0254,9.8349,-0.8126,-0.2599,-0.1327
5735,885,634,34.439,33.649,-0.013,-0.0709,9.706,-0.3615,0.3172,-0.8842
5740,891,630,34.457,33.636,0.0224,-0.0541,9.8362,0.2538,-0.3195,0.2765
5745,904,630,34.451,33.721,0.0857,0.1254,9.8245,-0.1759,-0.2625,-0.4199
5750,920,631,34.493,33.747,0.0186,-0.0196,9.8132,-0.1998,0.1541,-0.0259
5755,921,627,34.511,33.575,0.0271,0.098,9.6737,0.1139,0.157,-0.2642
5760,939,632,34.498,33.657,0.0505,0.0982,9.7137,0.3593,-0.3072,1.0202
5765,939,630,34.512,33.628,0.0095,-0.0204,9.7959,0.1205,0.5128,0.0579
5770,972,630,34.553,33.671,-0.0013,0.0112,9.7736,-0.0994,1.0255,-0.3763
5775,968,636,34.53,33.637,0.0013,0.0054,9.8514,-0.4977,0.0979,-1.1762
5780,984,635,34.476,33.72,0.0869,0.0186,9.8148,0.9376,0.7686,0.0673
5785,998,641,34.523,33.642,0.0105,0.0074,9.8236,-0.2821,0.0886,0.7273
5790,1006,643,34.545,33.634,0.1106,0.0429,9.7564,0.6892,0.4187,-1.0448
5795,1016,648,34.499,33.499,-0.0382,0.0462,9.8098,0.5519,-0.0507,-0.1549
5800,1031,647,34.512,33.639,0.1234,0.0749,9.7555,-0.0389,0.5119,-0.2338
5805,1031,653,34.485,33.703,0.0933,-0.054,9.898,0.6155,0.1073,-0.5812
5810,1036,666,34.546,33.562,-0.0074,0.0179,9.7295,-0.3236,0.5316,-0.2743
5815,1060,657,34.552,33.578,-0.0049,-0.0389,9.8756,-0.0955,0.0748,0.575
5820,1081,667,34.517,33.667,-0.0627,0.0027,9.8227,0.246,-0.5216,0.1445
5825,1081,673,34.551,33.609,0.0579,-0.02,9.7545,-0.6589,-0.1773,-0.0576
5830,1089,685,34.435,33.657,-0.06,-0.0911,9.8537,-1.4385,-0.2348,-0.1315
5835,1088,682,34.507,33.672,0.0071,-0.075,9.8258,0.2992,0.9062,-0.966
5840,1107,694,34.538,33.641,-0.1084,-0.0065,9.8261,-0.0482,-0.5705,-0.6007
5845,1129,710,34.538,33.759,-0.0077,-0.0596,9.8475,0.4229,0.1465,-0.2625
5850,1127,706,34.455,33.676,-0.0278,0.0073,9.7966,0.7729,-0.1096,0.6358
5855,1128,715,34.5,33.617,-0.0207,0.1232,9.7698,0.2888,0.3068,-0.7262
5860,1130,727,34.498,33.669,-0.0148,0.0188,9.7623,-0.5718,0.0103,0.6627
5865,1143,728,34.496,33.63,-0.0651,0.0545,9.8192,-0.6726,0.6532,-0.0618
5870,1151,736,34.464,33.655,0.0402,0.0086,9.89,0.7391,0.4284,-1.7281
5875,1155,748,34.477,33.731,-0.0473,-0.0147,9.8203,-0.0988,0.4672,-0.5111
5880,1162,748,34.506,33.542,0.0085,0.0462,9.7532,-0.0237,-0.0356,0.1945
5885,1169,760,34.503,33.667,0.0779,-0.0309,9.8356,0.7495,-1.3943,-0.0252
5890,1170,768,34.486,33.689,0.0359,-0.0063,9.7212,-0.2221,0.8989,0.0077
5895,1177,783,34.482,33.664,-0.091,-0.0213,9.7747,-1.2353,0.7002,0.0411
5900,1183,780,34.506,33.654,-0.0457,0.0111,9.7639,0.1815,0.5477,0.3545
5905,1188,790,34.513,33.619,0.0259,0.0144,9.7336,-0.0159,0.058,-0.2492
5910,1180,799,34.449,33.617,-0.0084,0.011,9.7935,0.1659,0.4452,0.355
5915,1177,806,34.487,33.603,-0.0398,-0.0287,9.7829,1.1989,0.349,1.3696
5920,1188,812,34.524,33.578,0.0083,0.0473,9.7253,-0.1629,0.0054,0.0417
5925,1186,820,34.512,33.675,0.0186,0.0214,9.7858,0.2157,0.1498,-0.6063
5930,1188,832,34.551,33.619,0.1129,0.0351,9.7839,-0.884,-0.5939,0.0511
5935,1178,840,34.468,33.637,-0.0075,0.0343,9.8162,-0.1227,0.5677,0.2514
5940,1185,844,34.51,33.684,-0.0561,-0.0489,9.737,0.6909,-0.2642,-0.9892
5945,1185,851,34.382,33.622,0.0136,0.0293,9.6809,0.2233,-0.2493,1.0799
5950,1192,858,34.551,33.707,-0.0356,-0.0476,9.7621,0.3089,0.8377,-0.3349
5955,1182,865,34.559,33.719,-0.1102,-0.0202,9.7105,-0.4792,-0.0612,0.3385
5960,1185,875,34.486,33.571,-0.0281,0.0725,9.795,-0.1082,0.6103,0.2567
5965,1173,875,34.466,33.584,0.0337,0.0582,9.7497,0.3248,-0.134,1.1266
5970,1179,879,34.544,33.597,0.0561,0.034,9.8947,0.2997,0.218,-0.7444
5975,1175,878,34.494,33.609,0.0047,-0.0292,9.8032,0.7486,0.8216,0.3366
5980,1172,892,34.485,33.694,-0.0019,0.0508,9.7909,0.1961,-0.2217,-0.5095
5985,1171,890,34.534,33.646,-0.0281,-0.0077,9.8398,-0.4676,0.1819,-0.0491
5990,1170,903,34.587,33.635,-0.0374,-0.0048,9.8185,0.0654,0.6028,0.3388
5995,1165,905,34.405,33.611,0.0185,0.0044,9.8801,-0.6125,-0.0194,-0.2667
6000,1175,908,34.514,33.671,0.0326,0.1237,9.9123,-0.15,-0.0808,0.1345
6005,1163,915,34.441,33.66,-0.0473,0.0229,9.798,0.6051,-0.3226,0.3109
6010,1159,915,34.478,33.651,0.0809,-0.0395,9.7877,-0.1719,0.5135,-0.1609
6015,1148,915,34.458,33.649,0.0022,-0.0211,9.9154,0.4009,-0.4045,-0.5844
6020,1155,920,34.564,33.651,-0.0768,0.0365,9.7511,0.0586,0.3274,-0.4315
6025,1143,923,34.467,33.587,-0.0454,-0.0267,9.9056,-0.018,-0.7309,-0.0041
6030,1148,921,34.525,33.57,0.0381,0.0619,9.8149,-0.4871,-0.8155,-0.0442
6035,1148,922,34.469,33.595,0.0323,-0.0644,9.7788,-0.1693,0.0743,-0.3494
6040,1140,923,34.549,33.598,0.0336,0.0759,9.8675,-0.3274,1.4546,-0.1258
6045,1126,928,34.534,33.628,0.0459,0.0377,9.8111,-0.2035,0.7142,0.7103
6050,1137,927,34.407,33.561,-0.0443,0.1431,9.7403,0.2744,0.7193,0.1353
6055,1135,928,34.526,33.585,-0.0166,0.0129,9.8183,-0.2421,0.3985,0.7721
6060,1116,928,34.42,33.625,-0.0459,0.0421,9.714,-0.5369,0.2122,-0.1914
6065,1129,931,34.487,33.715,0.0203,-0.0381,9.8476,-0.2993,0.8979,-0.3595
6070,1128,930,34.449,33.585,0.0134,-0.0575,9.8021,0.3934,0.3785,0.1039
6075,1126,917,34.527,33.635,0.0845,0.0551,9.8721,0.355,-0.3585,0.5576
6080,1117,929,34.489,33.564,-0.034,0.0382,9.7877,-0.4636,-0.3207,0.3975
6085,1110,925,34.43,33.731,0.007,-0.0238,9.7923,0.0992,0.4755,1.1224
6090,1114,919,34.462,33.663,-0.0609,0.076,9.7744,0.0518,-0.0348,-0.2219
6095,1110,913,34.47,33.72,-0.0237,0.0547,9.7933,0.7896,0.0213,0.6593
6100,1103,920,34.465,33.676,0.0901,-0.0024,9.7692,-0.4398,-0.3683,-0.6459
6105,1108,915,34.608,33.652,-0.0701,-0.0166,9.7428,-0.2585,0.0093,-0.3769
6110,1105,917,34.56,33.597,-0.0076,0.0318,9.7911,0.1532,-0.6932,0.4424
6115,1099,920,34.459,33.644,-0.0204,-0.0244,9.8358,-0.9004,0.3974,1.1065
6120,1106,908,34.514,33.696,-0.0023,-0.0194,9.9037,-0.2937,-0.1277,-0.3827
6125,1105,908,34.501,33.597,-0.0408,-0.001,9.7922,0.5938,-0.8179,-0.4726
6130,1095,908,34.454,33.653,0.018,0.02,9.8664,-0.8595,0.361,0.0009
6135,1098,906,34.485,33.611,-0.1012,-0.0396,9.7375,-0.1542,0.4661,-0.2721
6140,1088,901,34.531,33.614,-0.0481,-0.0599,9.7907,0.2128,0.3964,-0.1564
6145,1080,906,34.441,33.715,0.0584,0.0908,9.8035,-0.2617,0.8523,-0.0389
6150,1082,901,34.425,33.639,0.0172,0.006,9.7979,0.2459,-0.4141,-0.0725
6155,1082,903,34.49,33.712,-0.109,0.0459,9.8074,0.5642,0.2598,-0.4179
6160,1085,893,34.595,33.627,0.0552,0.0327,9.8371,-0.9841,-0.6477,-0.1947
6165,1081,897,34.474,33.58,0.0712,-0.0212,9.8397,1.6727,-0.0353,-0.6663
6170,1075,892,34.477,33.69,0.0723,0.0331,9.7906,-0.6002,0.1013,0.6276
6175,1068,880,34.48,33.542,0.0092,0.0592,9.8166,-0.1308,-0.2866,-0.9835
6180,1070,885,34.463,33.639,0.0306,0.0233,9.6747,0.2296,0.1706,-0.604
6185,1067,888,34.605,33.642,0.0159,-0.0012,9.8482,0.6221,0.1215,0.5861
6190,1065,879,34.538,33.689,0.0414,-0.075,9.7391,0.6422,0.0769,0.187
6195,1071,880,34.359,33.595,0.0365,0.0239,9.762,-0.2174,-0.3564,-0.2434
6200,1054,882,34.443,33.647,-0.0567,-0.0098,9.8145,-0.3043,-0.1014,-0.6735
6205,1054,875,34.378,33.594,-0.0607,0.0414,9.7918,0.8455,0.1643,0.0878
6210,1047,871,34.365,33.599,0.0082,-0.0032,9.8256,0.5165,0.7347,-0.3038
6215,1052,878,34.508,33.669,0.0734,-0.014,9.8355,-0.2838,0.0641,0.4903
6220,1047,871,34.444,33.695,0.0803,-0.0521,9.766,-0.3118,0.1911,-0.1196
6225,1046,871,34.46,33.55,-0.0641,-0.0003,9.7357,-0.2993,-0.0028,0.244
6230,1040,870,34.449,33.697,0.023,-0.0442,9.8327,0.3895,0.0798,0.4401
6235,1030,872,34.457,33.624,0.0796,-0.0424,9.8065,-0.7409,0.5253,0.0883
6240,1018,866,34.505,33.684,0.0674,-0.0535,9.8078,0.5801,0.6893,-0.4905
6245,1025,865,34.516,33.583,-0.0399,-0.0073,9.8579,-0.31,-0.3545,-0.193
6250,1020,864,34.496,33.659,-0.0402,0.0417,9.8665,-0.3435,-0.4318,-0.5086
6255,1001,865,34.541,33.69,-0.0622,0.0223,9.8273,-0.0379,0.6939,-0.2539
6260,998,864,34.574,33.547,0.0387,-0.0905,9.793,0.1171,-0.8666,-0.0804
6265,993,863,34.465,33.683,-0.0376,-0.0098,9.8866,0.3106,0.455,-0.5863
6270,989,856,34.467,33.635,-0.0392,-0.0275,9.767,0.0139,0.4404,-0.7528
6275,976,863,34.52,33.653,0.0479,-0.0143,9.7997,-0.5628,-0.5927,0.2068
6280,979,855,34.401,33.691,-0.0137,-0.0122,9.8306,0.6879,0.6106,-0.6079
6285,960,858,34.453,33.638,-0.0618,-0.0526,9.8759,-0.5436,0.15,-0.6719
6290,958,850,34.434,33.54,-0.0182,0.0042,9.7854,1.051,0.5826,0.0621
6295,949,854,34.521,33.647,0.0844,0.0123,9.7722,0.1422,0.9163,0.5887
6300,937,848,34.53,33.678,0.0758,-0.0283,9.836,0.5318,0.1168,-0.9311
6305,932,847,34.563,33.612,0.0006,-0.033,9.8753,0.3493,-0.3621,-1.0939
6310,929,846,34.509,33.644,-0.0014,0.0543,9.7425,-0.8337,-0.6661,-0.4147
6315,920,840,34.559,33.647,-0.0349,0.0241,9.8432,0.3129,-0.2959,-0.9252
6320,912,846,34.453,33.584,0.076,0.0769,9.8512,0.3251,0.6767,-0.5159
6325,894,835,34.488,33.594,0.037,0.0804,9.7369,-0.0187,-0.143,-0.6947
6330,889,833,34.496,33.649,-0.0097,0.0363,9.7729,-0.1157,-0.2386,1.1768
6335,879,836,34.566,33.689,-0.0213,0.0451,9.8701,-0.6409,0.6714,0.4711
6340,878,830,34.465,33.697,-0.1131,-0.0852,9.8104,-0.0102,-0.0346,0.7324
6345,864,821,34.4,33.56,0.0523,0.0194,9.7925,-0.4871,0.2901,0.4458
6350,855,827,34.469,33.606,-0.0391,0.0441,9.7834,-0.5375,-0.0396,0.4837
6355,849,821,34.502,33.635,0.0165,-0.0215,9.8041,-0.4948,-0.4922,-0.0564
6360,840,815,34.497,33.561,0.0489,-0.031,9.7442,0.3884,-0.2011,-0.3153
6365,843,813,34.477,33.687,0.0522,0.0245,9.7912,-0.033,0.1286,0.1287
6370,822,806,34.531,33.68,0.1034,0.0721,9.8002,-0.1048,-0.025,-0.5762
6375,812,811,34.509,33.687,0.0948,-0.092,9.7948,0.3448,-1.1739,-0.2433
6380,812,803,34.492,33.595,0.1473,-0.0166,9.8696,-0.0433,-0.0495,0.692
6385,798,794,34.521,33.596,-0.0453,0.0074,9.8821,0.7338,-0.2721,0.0934
6390,796,798,34.438,33.695,0.0353,-0.0335,9.8184,0.5427,-0.7879,0.1461
6395,794,792,34.437,33.642,-0.0135,-0.0768,9.7821,-0.3921,-0.0333,-0.4548
6400,788,788,34.394,33.622,-0.0535,-0.0219,9.7812,0.6498,0.3616,-0.4482
6405,776,778,34.526,33.627,0.0248,-0.1138,9.801,-0.369,0.6987,-0.0392
6410,768,778,34.537,33.607,0.0547,0.0036,9.7223,-0.9507,0.2108,-0.5335
6415,765,769,34.403,33.632,0.0357,-0.0189,9.8524,-0.3316,0.1592,0.4858
6420,753,764,34.528,33.589,-0.0065,-0.0185,9.7077,0.3433,-0.4853,0.2406
6425,759,759,34.362,33.591,0.0632,0.0002,9.7979,-0.7421,-0.278,-0.1148
6430,757,753,34.464,33.625,-0.0907,-0.0266,9.775,-0.2231,-0.2212,-0.5355
6435,749,748,34.466,33.694,0.0323,-0.0126,9.7974,0.0902,-0.6868,0.076
6440,749,737,34.543,33.619,-0.0516,-0.0458,9.7187,0.1626,0.562,-0.833
6445,744,732,34.468,33.664,-0.0843,0.0391,9.8259,0.2125,0.8881,1.1555
6450,745,729,34.514,33.627,0.0239,-0.0507,9.784,0.5386,0.2679,-0.1774
6455,747,727,34.501,33.641,0.0032,-0.0137,9.7691,-0.0675,0.7011,-0.0647
6460,749,719,34.418,33.636,0.0029,-0.0005,9.8507,0.5051,-0.1612,-0.4123
6465,753,708,34.529,33.571,-0.0276,-0.0338,9.7543,0.5574,-0.1298,0.5225
6470,749,707,34.505,33.66,-0.0361,-0.044,9.7974,-0.1823,-0.1107,0.653
6475,746,696,34.558,33.662,0.0032,-0.0173,9.7786,-0.3334,0.0933,-0.5594
6480,758,697,34.527,33.665,-0.039,0.0224,9.8479,0.2079,-0.3083,-0.1845
6485,755,690,34.569,33.605,-0.0284,-0.0394,9.84,-0.0846,0.4398,-0.4393
6490,760,685,34.498,33.571,-0.0145,0.1068,9.7842,0.1449,-0.1356,0.0618
6495,756,677,34.607,33.641,0.0724,0.0271,9.9217,-0.0272,0.165,-0.3336
6500,770,675,34.489,33.628,-0.0016,0.0183,9.8422,-0.1941,-0.0682,0.0538
6505,782,665,34.485,33.512,0.0218,-0.0031,9.7663,0.0861,-0.1107,0.4213
6510,782,662,34.506,33.608,0.1029,-0.0216,9.802,-0.3505,0.1143,-0.0016
6515,793,662,34.535,33.656,-0.0235,0.0337,9.7787,0.4133,-0.5184,-0.1751
6520,803,657,34.537,33.665,-0.042,0.0494,9.813,0.2337,0.3742,0.8217
6525,803,650,34.444,33.664,-0.0045,0.0607,9.7977,0.3792,0.182,0.948
6530,800,647,34.543,33.543,0.0748,0.0045,9.8313,-0.12,0.3418,0.2169
6535,822,640,34.391,33.631,0.0354,-0.0356,9.7727,0.0762,1.1846,-0.6125
6540,828,634,34.493,33.6,0.038,0.001,9.7124,-0.0759,-0.4018,0.551
6545,840,631,34.489,33.714,-0.0419,-0.0993,9.7471,-0.9233,-0.2625,-0.5676
6550,849,634,34.466,33.63,0.0247,-0.0542,9.7753,-0.7261,0.564,0.5581
6555,866,630,34.512,33.625,-0.0068,0.0431,9.9429,0.5544,0.5201,-0.6466
6560,874,633,34.484,33.531,-0.0303,0.0391,9.7352,0.1239,-0.4037,0.5436
6565,883,633,34.519,33.626,0.0161,0.0203,9.8104,0.8431,-0.7188,-0.0455
6570,891,633,34.53,33.636,-0.0248,-0.0257,9.8301,0.3025,0.2158,-0.2265
6575,911,626,34.524,33.781,-0.0105,0.0361,9.8139,0.9578,0.3804,0.1029
6580,914,624,34.485,33.693,0.0205,0.0762,9.8998,0.0024,0.0496,0.0531
6585,925,633,34.487,33.626,0.0403,0.0336,9.7572,-0.7015,0.3621,0.7491
6590,933,629,34.432,33.625,0.0244,0.0707,9.7861,-0.9714,-0.1386,0.2836
6595,945,632,34.496,33.649,0.079,0.0098,9.7035,-0.8923,0.9571,0.2135
6600,961,632,34.496,33.627,0.1259,0.0359,9.8406,0.3513,0.2488,-0.3577
6605,977,635,34.399,33.616,-0.0379,0.033,9.784,0.2044,0.0995,-0.2734
6610,990,635,34.535,33.653,0.0279,-0.0116,9.8036,-0.1021,0.3807,-0.5703
6615,999,641,34.336,33.634,0.1182,-0.0273,9.7893,-0.3273,-0.7413,-0.0167
6620,1015,648,34.502,33.628,0.1276,-0.0601,9.7869,-0.0244,0.959,-0.2476
6625,1015,647,34.549,33.666,-0.0107,0.0083,9.8096,-0.076,-0.3398,-0.2612
6630,1041,653,34.514,33.677,-0.0962,0.0263,9.7587,1.1199,-0.6225,0.4476
6635,1040,651,34.431,33.586,0.071,-0.0268,9.8067,0.6572,-0.1405,-0.8439
6640,1054,662,34.478,33.632,-0.003,-0.006,9.797,-0.7519,-0.3678,-0.4298
6645,1066,668,34.504,33.712,-0.0321,0.0182,9.748,-0.1613,-0.5918,0.8129
6650,1074,675,34.455,33.659,-0.0341,0.0704,9.7327,-0.1563,0.2655,-0.5177
6655,1074,674,34.516,33.62,-0.0424,-0.072,9.8213,0.7086,-0.0977,0.646
6660,1090,680,34.477,33.65,-0.0046,0.0191,9.7992,-0.7377,-0.0465,0.0076
6665,1100,688,34.481,33.603,0.0116,-0.0344,9.832,-0.248,0.1873,1.0512
6670,1108,693,34.43,33.598,-0.0016,0.0354,9.8615,0.6386,-0.1305,0.7453
6675,1117,708,34.553,33.679,-0.078,-0.036,9.9181,-0.5237,0.4063,-0.2486
6680,1117,707,34.487,33.7,0.0642,-0.0506,9.7817,-0.2268,0.2481,-0.7457
6685,1135,715,34.516,33.634,0.0043,-0.0333,9.7699,-0.0961,0.1851,-0.1439
6690,1140,720,34.489,33.591,-0.0474,-0.0518,9.8691,-0.3279,-0.3041,0.1654
6695,1145,729,34.471,33.619,0.0087,-0.0153,9.7439,0.1772,-0.7922,-0.5727
6700,1157,733,34.462,33.668,-0.0606,0.0271,9.756,-0.1303,-0.406,-0.2661
6705,1163,747,34.477,33.635,0.0436,0.0094,9.7809,-0.2979,-0.0418,-0.4937
6710,1168,754,34.504,33.643,0.047,-0.0991,9.9084,-0.1036,0.3838,-0.2024
6715,1171,759,34.52,33.669,0.0449,-0.0389,9.8573,0.1099,-0.3741,-0.5633
6720,1175,767,34.513,33.687,-0.0712,0.0329,9.7888,-0.766,0.119,0.0591
6725,1171,781,34.611,33.631,-0.0017,0.0283,9.6985,0.0376,-0.4481,-0.148
6730,1179,790,34.528,33.637,0.0472,0.004,9.8445,0.1171,0.223,-0.481
6735,1178,796,34.585,33.598,-0.0631,0.0606,9.849,0.4576,-0.7,-0.0596
6740,1179,802,34.453,33.59,-0.052,0.0519,9.8646,0.1522,-0.455,0.4597
6745,1176,814,34.551,33.614,0.0223,-0.0156,9.8724,0.4688,0.8629,0.3183
6750,1189,817,34.483,33.564,-0.0313,0.1086,9.8335,-0.3233,-0.1939,0.2731
6755,1185,822,34.507,33.574,0.1257,-0.0339,9.7763,-0.5581,0.2249,-0.2451
6760,1190,830,34.557,33.65,-0.0731,-0.0043,9.8606,0.3013,-0.2382,0.2269
6765,1183,840,34.45,33.671,0.0513,-0.0115,9.8011,0.1411,-0.2593,-0.437
6770,1188,846,34.475,33.587,-0.037,0.0138,9.8356,0.4031,0.7621,-0.2112
6775,1179,853,34.571,33.631,0.0209,-0.0088,9.7722,-0.9992,0.8251,0.1932
6780,1186,853,34.574,33.661,-0.0013,-0.0289,9.8693,0.6968,0.1586,0.4915
6785,1189,869,34.432,33.619,-0.0873,-0.0346,9.8909,-0.876,-0.5528,-0.0519
6790,1175,867,34.485,33.585,0.0107,0.0061,9.8353,-0.9035,-0.0058,-0.1973
6795,1186,876,34.559,33.664,0.0517,0.1193,9.7666,0.2935,0.3965,0.318
6800,1181,882,34.511,33.714,0.0156,0.0047,9.7478,-0.379,-0.3309,-0.6509
6805,1173,890,34.431,33.685,0.0216,0.0234,9.7352,0.1134,0.4203,-0.9592
6810,1174,897,34.519,33.609,0.0194,0.0578,9.767,0.8396,0.1058,0.1928
6815,1175,895,34.488,33.599,0.0007,-0.0672,9.9143,-0.1053,0.048,0.2792
6820,1170,908,34.448,33.647,-0.0479,-0.0746,9.8621,0.4313,0.4155,-0.2645
6825,1162,911,34.472,33.637,-0.0505,-0.0968,9.7751,-0.0021,-0.5199,-0.1326
6830,1164,906,34.518,33.697,0.0697,-0.0361,9.7523,-0.492,-0.2309,1.2384
6835,1159,915,34.504,33.659,-0.0262,0.0115,9.8882,0.2559,0.3165,0.5175
6840,1153,915,34.432,33.64,0.026,-0.0088,9.8161,0.7384,0.4581,-0.8591
6845,1156,916,34.425,33.611,-0.0046,-0.0041,9.8238,0.7825,-0.3854,-0.0053
6850,1150,918,34.465,33.629,-0.013,0.06,9.8186,-0.0329,0.4696,0.8597
6855,1148,919,34.478,33.517,0.0114,-0.0359,9.7161,1.1105,0.2488,-0.0287
6860,1154,924,34.555,33.645,-0.0046,-0.0096,9.8678,0.3486,-0.1794,-0.0495
6865,1141,925,34.361,33.549,0.0741,0.0571,9.7915,-0.4664,-1.2775,-0.2712
6870,1136,922,34.47,33.674,0.0229,-0.0082,9.7837,-1.0591,-0.5129,0.2149
6875,1132,921,34.49,33.61,-0.0959,-0.0318,9.8699,0.0615,-0.4931,0.0774
6880,1127,925,34.535,33.679,-0.0135,0.0686,9.828,0.2591,-0.031,0.2
6885,1134,927,34.627,33.67,-0.0134,0.0528,9.8182,0.813,0.1275,0.3758
6890,1131,924,34.416,33.702,-0.0212,-0.0096,9.8356,-0.4885,0.077,1.0091
6895,1133,920,34.58,33.695,0.0464,-0.076,9.8268,0.1031,0.1461,0.4788
6900,1124,924,34.452,33.644,-0.0149,0.0255,9.7969,-0.0714,-0.0647,-0.1449
6905,1119,931,34.392,33.651,-0.0987,-0.0287,9.8508,-0.3855,-0.6149,-0.2336
6910,1117,926,34.453,33.7,0.0188,-0.012,9.7444,0.7576,0.4456,-0.2398
6915,1114,925,34.515,33.715,0.0483,0.0112,9.8186,0.029,-0.1986,0.7432
6920,1109,923,34.482,33.557,-0.0565,0.007,9.834,-0.0354,0.3014,-0.1859
6925,1111,926,34.548,33.647,0.033,0.0227,9.8422,-0.075,0.7222,-0.784
6930,1108,921,34.475,33.617,0.0575,0.0148,9.8555,0.3257,-0.7035,0.0506
6935,1111,920,34.42,33.577,0.0765,-0.0098,9.7742,-0.6706,-0.4684,0.2866
6940,1107,919,34.392,33.666,-0.0554,-0.0162,9.8199,-0.3451,-0.4511,0.0975
6945,1107,914,34.574,33.738,-0.0027,-0.0786,9.7707,-0.3241,-0.2441,0.1831
6950,1092,914,34.475,33.657,0.0451,-0.0637,9.7992,0.282,-0.6835,0.4907
6955,1093,913,34.47,33.652,-0.027,-0.0809,9.8335,-0.2471,-0.179,0.3835
6960,1088,911,34.5,33.669,-0.0498,-0.0227,9.8221,0.2175,-0.2365,0.2477
6965,1090,906,34.364,33.64,0.0019,-0.035,9.8516,0.4398,0.1402,-0.4824
6970,1085,905,34.547,33.669,0.0113,0.0134,9.7785,0.3268,-0.5781,-0.2046
6975,1086,900,34.54,33.709,0.0528,-0.0448,9.8126,-0.2546,-0.2495,-0.4793
6980,1085,901,34.432,33.733,0.0502,-0.0807,9.9752,-0.621,0.187,0.4134
6985,1084,899,34.561,33.658,0.0395,0.0258,9.8317,0.1796,0.2287,0.2508
6990,1080,891,34.529,33.579,0.0849,0.0056,9.769,-0.2489,0.4691,-0.1849
6995,1076,896,34.445,33.64,-0.0594,0.0156,9.6693,0.6304,0.4237,0.6909
7000,1082,889,34.476,33.669,0.0066,0.0565,9.7081,0.0592,-0.1864,0.2073
7005,1079,891,34.556,33.585,-0.0028,-0.0994,9.8403,0.531,-0.346,-0.4173
7010,1076,882,34.43,33.675,0.0094,0.027,9.7086,-0.4188,0.5688,0.4501
7015,1069,889,34.503,33.641,-0.0603,-0.0164,9.8528,-0.454,-0.2091,-0.179
7020,1057,881,34.454,33.668,0.0266,0.0171,9.7284,0.0781,-0.8376,-0.531
7025,1056,881,34.517,33.649,0.027,0.0087,9.8188,-0.0963,-0.1406,-1.3784
7030,1060,877,34.392,33.634,0.0257,0.0197,9.7554,-0.109,-0.3574,-0.3584
7035,1053,878,34.51,33.557,-0.0716,0.0216,9.7314,-0.0617,-0.1635,0.8765
7040,1046,879,34.483,33.716,0.0506,0.0143,9.7678,-0.7231,0.9826,0.5707
7045,1044,870,34.489,33.659,0.0667,0.0491,9.6685,0.0551,-0.7732,-0.7871
7050,1050,872,34.546,33.655,0.0184,0.0243,9.7858,-0.0303,-0.574,0.5193
7055,1042,872,34.475,33.704,0.0236,-0.0484,9.796,-0.3148,0.292,0.6791
7060,1035,874,34.416,33.636,-0.0316,0.0111,9.8278,0.0589,-0.7587,-0.4112
7065,1031,868,34.494,33.548,0.0583,-0.037,9.8718,-0.7314,-0.1277,0.857
7070,1030,866,34.45,33.689,-0.0076,0.0804,9.7968,0.6317,0.3689,-0.1572
7075,1026,865,34.518,33.653,0.0563,0.0561,9.7859,0.0878,0.8351,0.2911
7080,1002,865,34.509,33.625,-0.0453,-0.0593,9.7658,0.7134,0.3225,-0.3098
7085,1001,859,34.455,33.644,-0.0292,-0.0093,9.7837,0.3996,-0.3558,0.511
7090,1005,863,34.533,33.7,0.0337,0.0538,9.7988,-0.3835,0.1653,0.3649
7095,989,862,34.564,33.614,0.0469,-0.1067,9.7902,0.512,-0.3592,0.2977
7100,989,860,34.459,33.667,0.0572,-0.0401,9.8229,-1.4939,-0.0874,-0.1923
7105,978,850,34.498,33.629,0.0324,0.0389,9.789,-0.4886,0.0385,-0.7515
7110,975,852,34.428,33.678,-0.1049,-0.0269,9.7755,-0.6511,-0.4531,0.1224
7115,967,853,34.488,33.6,0.0224,-0.085,9.7705,0.498,-0.074,-0.2821
7120,964,854,34.472,33.71,-0.0456,-0.0189,9.8109,-0.6895,-0.2746,0.1432
7125,956,848,34.592,33.599,0.0359,-0.0695,9.8245,0.1489,-0.5868,-0.357
7130,941,847,34.48,33.646,0.0747,0.004,9.8725,-0.4003,0.1378,0.1343
7135,925,846,34.475,33.668,-0.1077,0.0403,9.8208,-0.0895,0.2653,-0.2379
7140,920,840,34.379,33.621,0.0062,-0.0147,9.8702,-0.4435,-0.2437,-0.1559
7145,920,844,34.451,33.613,0.0645,0.0246,9.813,0.0577,-0.0789,-0.4627
7150,905,838,34.473,33.642,0.0073,0.0481,9.7983,-0.1568,0.9011,-0.5321
7155,903,840,34.507,33.604,0.0181,-0.0183,9.7415,-0.3321,0.0133,-0.0458
7160,882,837,34.428,33.658,0.0483,0.0114,9.8264,-0.0024,0.1966,0.0643
7165,884,835,34.452,33.68,0.0458,-0.0049,9.8741,0.2588,-0.1278,0.197
7170,878,829,34.445,33.614,0.0344,0.0457,9.8568,-0.0057,-0.6478,0.4452
7175,859,825,34.451,33.644,0.1393,0.0012,9.8731,-0.5254,-0.9032,0.3194
7180,858,828,34.504,33.586,0.0913,0.0293,9.8088,0.2965,-0.2691,0.1392
7185,855,821,34.535,33.592,0.0338,0.0282,9.7989,0.0242,-0.5815,0.5101
7190,836,823,34.465,33.672,0.0411,0.0536,9.7974,-1.1116,0.0802,1.0551
7195,835,810,34.485,33.595,0.0205,0.0419,9.8267,-0.3395,0.0502,0.2874
7200,820,801,34.485,33.654,0.0452,-0.032,9.8037,-0.1879,0.1133,-0.809
7205,820,810,34.51,33.663,-0.0844,0.0496,9.8016,-0.0587,1.0341,-0.5118
7210,810,799,34.594,33.635,0.0785,-0.0258,9.8037,0.4419,-0.7815,0.3296
7215,802,798,34.515,33.662,0.0068,0.0475,9.8363,1.0695,0.3228,0.4363
7220,800,792,34.536,33.587,-0.0614,0.0313,9.8092,-0.5987,-0.9415,-0.269
7225,782,790,34.451,33.642,-0.0938,-0.0259,9.8428,0.5869,-0.2657,-0.5823
7230,785,785,34.595,33.684,0.0733,0.027,9.8259,0.1093,-0.4764,0.0941
7235,765,775,34.411,33.629,-0.0048,-0.0076,9.83,-0.463,0.1611,-0.3896
7240,770,764,34.468,33.637,0.062,0.0253,9.8109,-0.3522,-0.6508,0.6177
7245,758,760,34.43,33.626,-0.0112,0.0436,9.8384,0.3205,-0.5003,0.6848
7250,767,766,34.602,33.588,0.0252,0.0622,9.8538,-0.6123,0.4716,-0.1637
7255,768,758,34.566,33.644,0.0242,-0.0164,9.8382,0.8639,-0.2689,0.2074
7260,758,749,34.327,33.61,0.0148,0.0488,9.9006,0.617,0.0921,0.5626
7265,751,743,34.617,33.734,0.0273,-0.0234,9.7376,-0.7538,0.1027,-0.1966
7270,749,738,34.502,33.605,-0.0589,0.005,9.8058,0.1914,-0.0421,0.9468
7275,745,730,34.519,33.742,0.0019,-0.0346,9.8094,0.292,0.0363,-0.015
7280,744,725,34.462,33.633,-0.0274,-0.0239,9.858,-0.7142,-0.8672,-0.435
7285,755,725,34.526,33.569,0.0375,-0.0911,9.8559,-1.0974,-0.5817,-1.021
7290,752,716,34.485,33.562,-0.0172,0.0712,9.8154,-0.4835,0.4134,0.6857
7295,751,711,34.491,33.668,0.0037,0.003,9.8281,-0.4664,0.2812,0.2607
7300,751,703,34.515,33.697,0.0911,0.0472,9.8339,0.4024,0.1195,-0.1556
7305,760,699,34.446,33.637,0.0834,-0.0822,9.7685,-0.2909,-0.9881,0.2872
7310,755,692,34.496,33.696,-0.0476,0.0065,9.8185,-0.2164,-0.1436,-0.3306
7315,760,689,34.495,33.622,-0.0075,0.0335,9.8425,-0.5339,-0.713,0.509
7320,756,683,34.478,33.675,0.0013,-0.0455,9.9105,0.3041,0.2315,-0.0838
7325,765,676,34.484,33.677,-0.0284,-0.0733,9.7454,-0.6394,0.5502,0.3582
7330,773,677,34.474,33.606,-0.0069,0.022,9.8605,0.2919,-0.1672,0.7712
7335,772,663,34.466,33.574,-0.0003,-0.0257,9.6632,0.3896,0.3758,-0.5532
7340,789,657,34.541,33.664,-0.0164,-0.0139,9.794,-0.5361,0.2108,-0.1822
7345,791,658,34.527,33.701,-0.0091,0.0666,9.799,0.2723,-0.3375,0.3611
7350,797,651,34.517,33.644,0.0031,0.0182,9.8448,-0.1973,-0.3382,0.5813
7355,804,644,34.552,33.658,-0.0122,0.0031,9.8248,0.3118,-0.2328,-0.3699
7360,816,653,34.455,33.675,0.0515,-0.0251,9.856,0.0027,0.1155,0.4967
7365,825,640,34.425,33.627,0.0525,0.0684,9.8171,0.6463,-0.3348,0.7884
7370,824,642,34.439,33.741,0.1772,-0.0402,9.7588,0.0925,0.4154,-0.227
7375,849,633,34.52,33.667,0.051,0.031,9.8513,0.6105,-0.0043,0.1361
7380,856,624,34.526,33.598,-0.0237,-0.0418,9.7831,1.0594,0.1401,0.0423
7385,851,633,34.456,33.612,-0.035,-0.1411,9.7213,-0.0102,-0.5893,-0.4278
7390,866,633,34.549,33.67,-0.0107,-0.0447,9.8238,1.1877,0.3156,-0.3125
7395,879,636,34.48,33.735,-0.0347,-0.0473,9.8384,0.3523,-0.6825,-0.1566
7400,900,632,34.565,33.67,0.0517,0.0037,9.8147,0.1358,-0.5295,0.0044
7405,913,629,34.44,33.725,0.0098,-0.0071,9.7951,0.1775,0.6393,-1.0817
7410,917,626,34.536,33.644,0.074,-0.0049,9.8123,-0.4274,-0.0016,-0.0823
7415,930,630,34.435,33.644,0.0427,-0.0237,9.823,1.1338,-0.1627,-0.1146
7420,947,630,34.552,33.593,-0.0444,-0.0706,9.7984,-1.2718,0.3949,-0.1633
7425,956,626,34.496,33.588,-0.0632,-0.0992,9.8094,-0.1305,0.9638,-0.6879
7430,953,630,34.488,33.678,-0.0604,-0.0208,9.7556,-0.323,0.0488,-1.3329
7435,972,637,34.614,33.639,0.0078,0.0316,9.8068,0.3365,1.5494,-0.014
7440,987,628,34.434,33.581,-0.041,0.0067,9.8566,-0.0591,0.4307,0.727
7445,983,645,34.403,33.62,0.0341,-0.0098,9.7786,0.4187,0.2254,0.073
7450,1014,644,34.51,33.579,-0.0271,-0.0036,9.7698,-0.5509,-0.1293,0.4467
7455,1020,651,34.466,33.625,-0.0675,0.0369,9.8582,-0.1907,0.6093,-0.9334
7460,1033,646,34.466,33.682,-0.1136,-0.0077,9.7974,-1.2101,0.6841,-0.5375
7465,1039,654,34.462,33.645,-0.0771,0.0442,9.8729,-0.6285,0.0811,0.4765
7470,1054,656,34.519,33.58,0.1213,0.051,9.7823,0.3581,-0.7785,0.5094
7475,1065,669,34.514,33.671,0.0484,0.0423,9.8409,0.7729,0.5894,-0.6135
7480,1071,669,34.459,33.63,-0.047,-0.0136,9.7565,-0.1277,-0.0084,-0.0067
7485,1082,680,34.466,33.682,-0.0318,0.1545,9.7912,-0.11,0.3852,1.1979
7490,1100,680,34.541,33.701,-0.0519,-0.0163,9.7734,1.126,-0.2204,0.299
7495,1096,692,34.488,33.745,-0.0319,0.0059,9.841,-1.004,0.2775,-0.5612
7500,1096,692,34.549,33.641,0.0048,0.0548,9.8636,-1.3373,0.1106,0.4996
7505,1116,703,34.443,33.7,-0.049,0.0771,9.7807,-0.5651,0.2061,-0.6965
7510,1116,704,34.392,33.662,0.036,-0.0105,9.7223,0.4707,-0.3049,-0.0967
7515,1121,722,34.539,33.594,-0.0216,-0.0356,9.8213,0.0998,-0.8075,0.2298
7520,1136,728,34.5,33.629,0.0798,-0.042,9.8304,0.6524,-0.2768,0.075
7525,1142,728,34.456,33.669,0.0402,0.1034,9.8046,0.3931,-0.6607,0.0974
7530,1149,742,34.534,33.718,0.0369,0.072,9.7923,-0.8509,0.3462,0.4745
7535,1160,738,34.463,33.633,0.0338,-0.0452,9.7616,1.0174,0.0461,-0.3957
7540,1160,752,34.574,33.707,0.012,-0.0102,9.8182,0.4709,0.2947,-0.1077
7545,1175,766,34.523,33.74,-0.0215,-0.1131,9.8953,-0.6697,-0.1061,-0.0274
7550,1172,769,34.513,33.594,0.0322,-0.0391,9.8327,-0.1546,0.9385,-0.1261
7555,1174,782,34.49,33.647,-0.054,-0.0706,9.8434,-0.397,0.3266,-0.6291
7560,1181,783,34.541,33.726,-0.0227,-0.1127,9.7612,-0.468,-0.4814,0.7275
7565,1177,797,34.574,33.653,-0.0391,-0.0238,9.8191,-1.135,0.1207,-0.2616
7570,1180,799,34.508,33.623,0.1014,0.0264,9.8448,-0.1245,0.5456,0.1616
7575,1184,806,34.412,33.618,0.0115,0.0829,9.8755,-0.2599,-1.0711,0.1105
7580,1183,816,34.484,33.642,0.0241,0.117,9.8564,-0.2597,0.5306,-0.4082
7585,1183,816,34.487,33.676,0.0398,-0.0568,9.8277,0.909,0.3487,-1.044
7590,1193,829,34.443,33.673,0.1082,0.0326,9.8227,0.3353,0.0532,-0.2985
7595,1183,838,34.535,33.713,-0.0784,-0.0424,9.9044,0.1024,-0.0448,0.4059
7600,1186,850,34.538,33.779,0.055,-0.0091,9.814,-0.593,-1.0106,0.403
7605,1175,852,34.54,33.596,0.0498,0.086,9.8947,0.054,0.4111,0.1242
7610,1178,861,34.435,33.56,-0.0014,-0.0683,9.7713,0.1756,0.1333,0.0113
7615,1184,866,34.47,33.597,-0.0027,0.0034,9.8773,0.3186,0.1328,-0.9146
7620,1197,869,34.526,33.634,0.0149,0.0358,9.8545,0.1291,-0.5723,0.1073
7625,1186,880,34.505,33.556,-0.0267,-0.0176,9.8285,-0.5821,-0.7093,-0.4015
7630,1186,881,34.521,33.779,-0.0055,-0.0216,9.7789,0.1422,-0.1696,-0.0807
7635,1179,891,34.452,33.611,0.074,-0.0212,9.9343,0.0633,0.0911,-0.2568
7640,1169,894,34.523,33.685,0.023,-0.0501,9.8577,0.0003,-0.4901,0.0202
7645,1173,896,34.529,33.652,0.112,0.024,9.8867,-0.564,0.2486,-0.635
7650,1165,902,34.532,33.555,-0.0375,0.0169,9.8323,0.2919,-0.2398,0.4745
7655,1165,907,34.467,33.631,-0.0377,0.0412,9.8325,-0.3791,-0.3247,-0.2257
7660,1166,905,34.444,33.644,0.025,-0.0895,9.8311,0.2252,-0.9323,-1.0339
7665,1164,914,34.469,33.718,-0.0028,-0.0125,9.8254,0.5825,0.0846,-0.102
7670,1160,915,34.424,33.639,-0.019,-0.0651,9.7249,0.3494,0.4494,0.0783
7675,1147,918,34.535,33.623,0.0333,-0.0719,9.8561,-0.8138,0.4302,-0.7388
7680,1157,923,34.542,33.645,0.007,-0.0293,9.8223,0.2363,-0.0475,-0.1191
7685,1146,929,34.537,33.7,0.0836,-0.0055,9.8144,0.2787,0.2066,0.0714
7690,1148,919,34.55,33.687,-0.0995,-0.0857,9.8731,-0.1258,0.519,-0.362
7695,1140,924,34.471,33.693,-0.0854,0.0101,9.8795,0.0063,0.359,0.3976
7700,1146,926,34.557,33.607,0.0397,-0.0635,9.7903,0.3783,0.1847,-0.7598
7705,1142,925,34.499,33.628,-0.0663,-0.03,9.7781,0.3026,0.0039,0.1837
7710,1136,925,34.521,33.606,0.0843,0.0895,9.8888,-0.4056,0.7625,0.0367
7715,1139,927,34.455,33.703,-0.0902,0.0599,9.8543,-0.1348,0.3388,-0.0315
7720,1131,931,34.482,33.684,0.0372,0.0408,9.7602,0.0986,-0.3204,-0.5425
7725,1132,928,34.5,33.602,-0.0286,-0.0401,9.8194,-0.3527,0.5916,-0.2908
7730,1127,928,34.518,33.658,0.0173,-0.0065,9.7917,0.4027,-0.3549,-0.1121
7735,1113,926,34.514,33.659,0.0121,-0.0025,9.7965,-0.063,-0.6605,-0.1616
7740,1115,924,34.519,33.63,0.0109,0.0453,9.7799,-0.1869,-0.0731,-0.2013
7745,1112,924,34.452,33.582,0.0615,0.0056,9.7874,0.0243,0.6594,-0.3919
7750,1110,923,34.497,33.643,-0.0174,-0.0736,9.9065,-0.4686,-0.4197,-1.3397
7755,1110,921,34.408,33.67,-0.0445,0.0238,9.8619,-0.0508,0.287,-0.4047
7760,1109,918,34.548,33.684,0.022,-0.0904,9.8002,-0.6675,0.5343,0.7954
7765,1096,919,34.546,33.681,-0.0421,-0.0669,9.8379,0.2842,-0.7386,0.1839
7770,1107,913,34.434,33.674,0.1086,0.0569,9.8147,-0.2158,-0.0437,0.276
7775,1103,912,34.568,33.594,-0.013,-0.0073,9.8912,0.0827,-0.7507,-0.5244
7780,1110,912,34.467,33.632,-0.0584,-0.0452,9.7867,0.6495,0.4072,0.7722
7785,1096,909,34.501,33.62,0.0133,0.0248,9.8431,0.6827,-0.5833,-0.0836
7790,1092,916,34.606,33.694,-0.0186,0.0407,9.8239,-0.0092,0.711,-0.1582
7795,1099,903,34.601,33.72,-0.006,0.0639,9.7358,-0.0963,0.6244,-0.3857
7800,1089,907,34.575,33.602,0.0019,-0.0363,9.9173,-0.207,-0.178,-0.1908
7805,1086,903,34.539,33.623,0.0339,0.0195,9.8477,0.2814,0.4785,0.2832
7810,1084,901,34.432,33.705,0.0121,-0.0256,9.8508,0.1328,-0.2136,0.4401
7815,1074,902,34.405,33.676,0.0206,-0.0181,9.6999,0.2303,-0.1911,-0.0531
7820,1080,897,34.525,33.668,-0.0455,-0.0506,9.8379,0.2634,0.2258,0.0467
7825,1071,895,34.522,33.646,0.0796,0.042,9.7935,-0.4031,0.2619,-0.3309
7830,1082,892,34.394,33.63,0.0094,0.0499,9.8312,0.2407,-0.2071,0.702
7835,1071,890,34.378,33.688,-0.025,-0.0208,9.8858,-0.4156,0.2045,0.0617
7840,1075,888,34.514,33.621,0.0128,0.0144,9.8596,0.1161,-1.1231,-0.6028
7845,1057,887,34.493,33.64,0.0371,-0.08,9.7289,0.4549,-1.1418,0.3643
7850,1071,887,34.534,33.629,-0.0382,0.0781,9.8497,0.0632,0.601,0.7494
7855,1062,887,34.477,33.715,-0.022,-0.0342,9.8271,0.6686,-0.5416,-0.1687
7860,1062,878,34.554,33.749,-0.0126,-0.042,9.8084,-0.2574,0.3934,0.712
7865,1051,876,34.451,33.674,-0.0766,0.0427,9.8403,-0.454,-0.4517,-0.4952
7870,1052,879,34.574,33.685,0.0317,-0.0338,9.8264,0.3501,-0.1241,-0.3863
7875,1045,875,34.549,33.654,0.0387,-0.0478,9.8447,-0.2006,-0.1595,0.285
7880,1041,874,34.499,33.705,-0.0746,-0.0153,9.912,-0.0115,0.4542,0.19
7885,1042,870,34.481,33.63,0.0153,-0.0357,9.8833,-1.2083,0.0705,0.8731
7890,1021,865,34.439,33.729,-0.1139,-0.087,9.8178,0.8091,0.1576,-0.2125
7895,1015,867,34.54,33.553,0.0235,0.0337,9.8608,-0.5922,0.638,-0.1891
7900,1023,870,34.494,33.683,-0.0546,-0.0148,9.852,-0.6962,-1.0886,-0.2446
7905,1022,865,34.511,33.708,-0.0552,-0.0986,9.8265,-0.0538,-0.3684,0.116
7910,1012,866,34.42,33.609,-0.0263,-0.0265,9.8371,0.3279,0.7435,-0.4954
7915,1006,861,34.484,33.656,-0.005,-0.0425,9.7853,-0.8853,-0.7852,-0.6336
7920,1009,862,34.481,33.639,0.0732,-0.0059,9.7995,-0.1761,0.8989,-0.4277
7925,995,862,34.419,33.64,-0.0331,-0.0988,9.7681,0.4561,-0.1209,-0.8953
7930,991,861,34.485,33.672,-0.0008,0.0433,9.9267,-0.1991,-0.1725,0.2034
7935,978,856,34.51,33.761,0.0645,-0.0112,9.7865,0.1427,0.6101,0.9648
7940,971,857,34.542,33.606,-0.0288,-0.0019,9.7748,0.4015,-0.6743,0.2522
7945,967,862,34.538,33.733,-0.0116,0.0253,9.7922,0.9287,0.7122,0.0012
7950,956,852,34.467,33.688,-0.0884,-0.1079,9.7555,0.074,-0.2867,-0.2926
7955,944,849,34.519,33.64,-0.0219,-0.0289,9.7395,-0.0639,-0.1062,-0.6111
7960,935,854,34.521,33.689,-0.0057,0.0131,9.8803,-0.1129,-0.6587,-0.6094
7965,931,846,34.553,33.69,0.0214,-0.1147,9.8411,-0.1946,0.7397,-1.0668
7970,915,845,34.516,33.653,-0.0181,0.031,9.7257,0.8346,-0.7221,-0.1893
7975,917,849,34.541,33.717,-0.0841,-0.0051,9.7614,0.556,-0.2892,-0.1531
7980,909,843,34.524,33.678,-0.0516,0.0312,9.7693,0.4351,0.0307,0.1847
7985,899,838,34.566,33.658,0.0509,-0.0532,9.8044,-0.3653,-0.3796,-0.318
7990,891,840,34.524,33.71,0.0122,-0.0693,9.779,0.1491,-0.0837,-0.2227
7995,885,829,34.485,33.715,-0.0991,-0.0136,9.817,0.3894,-0.7147,0.5188
8000,873,830,34.463,33.706,0.051,-0.0388,9.8397,0.0223,-0.5215,-0.7618
8005,865,825,34.527,33.592,0.0653,-0.0464,9.777,-0.0671,-0.2343,-0.4173
8010,853,824,34.455,33.667,0.0251,0.0682,9.8243,-0.1044,-0.1694,0.5763
8015,849,826,34.418,33.613,0.0002,-0.0304,9.8807,-0.4446,-0.6521,-0.3343
8020,839,817,34.563,33.642,0.0117,0.0451,9.7431,-0.2375,0.426,0.4148
8025,826,814,34.523,33.632,0.0074,0.0363,9.8288,-0.3663,0.3261,0.4576
8029,818,814,34.474,33.549,-0.0944,-0.0898,9.7886,0.6341,-0.281,-0.0877
8035,813,808,34.472,33.562,-0.0315,-0.1055,9.7481,-0.0445,-0.0598,-0.0934
8039,805,805,34.592,33.612,0.0547,-0.0388,9.8431,0.6978,-0.4071,-0.0993
8045,782,800,34.469,33.671,-0.0404,0.0206,9.767,0.0783,-0.236,-0.4283
8050,795,796,34.457,33.734,0.0377,-0.0376,9.7832,0.1173,0.3733,0.4663
8055,793,788,34.455,33.659,0.0705,-0.0109,9.8394,0.5558,0.6903,-0.0741
8060,783,783,34.565,33.686,-0.0271,0.0028,9.8074,-0.2106,0.3431,0.103
8064,775,779,34.547,33.69,0.0328,0.0782,9.8015,0.8369,0.6848,-0.6196
8070,774,773,34.524,33.61,0.0216,0.0248,9.7609,-0.1871,0.2927,0.2259
8074,760,768,34.484,33.649,0.0551,0.0605,9.8185,0.7484,-0.276,0.6629
8080,761,766,34.522,33.659,0.0289,-0.0104,9.8677,0.4471,-0.2623,-1.1653
8085,751,756,34.532,33.65,-0.1182,-0.0483,9.7772,0.5189,-0.8374,-0.0939
8090,753,746,34.46,33.609,0.0825,0.049,9.7637,0.0358,0.1661,-0.1072
8095,745,742,34.505,33.578,0.0244,0.1122,9.8241,-0.417,0.005,-0.2268
8100,742,737,34.496,33.697,-0.0192,-0.0647,9.8509,0.1618,0.6578,-0.1889
8105,749,729,34.593,33.67,0.0275,-0.0089,9.7073,-0.8287,0.2739,-0.1871
8109,748,726,34.529,33.594,-0.0158,0.0322,9.7624,0.3179,0.5951,0.2009
8115,738,719,34.504,33.67,-0.0736,-0.0219,9.7635,0.1292,-0.7845,-0.6953
8119,740,722,34.469,33.628,0.0358,0.0371,9.875,0.1543,-0.5044,-0.6674
8125,746,707,34.442,33.595,-0.047,-0.0049,9.8482,0.4859,0.1825,-0.6298
8130,759,698,34.513,33.69,0.065,-0.0519,9.7916,0.1353,0.2234,-0.2247
8135,754,697,34.519,33.697,0.0518,-0.0574,9.9513,0.7515,-0.1449,-0.367
8140,754,692,34.454,33.691,-0.0564,0.0326,9.7989,-0.497,-0.5376,-1.0416
8145,752,692,34.53,33.636,-0.0036,-0.0577,9.7603,-0.2386,0.2248,0.6613
8150,758,681,34.506,33.706,0.009,-0.002,9.7299,-0.9871,0.2048,-0.3511
8154,777,680,34.423,33.674,-0.0054,0.0335,9.795,-0.3134,-0.43,0.7493
8160,782,670,34.454,33.548,-0.0261,0.0396,9.7005,-0.2604,-0.4392,0.0498
8164,774,667,34.508,33.56,0.0341,0.0142,9.8877,-0.9462,-0.9733,0.1207
8170,776,661,34.466,33.647,-0.0032,-0.0285,9.9121,-0.419,-0.2952,0.4869
8175,786,658,34.501,33.654,0.0162,0.0633,9.874,0.6765,-0.8562,0.0626
8180,802,655,34.435,33.748,0.0025,0.036,9.8173,-0.5314,0.0041,-0.1035
8185,799,650,34.463,33.66,-0.0035,-0.0258,9.9005,0.7368,-0.1895,-0.9618
8189,805,643,34.544,33.674,-0.0535,-0.0245,9.8013,-0.3821,-0.4054,-0.6343
8195,819,647,34.503,33.713,0.0071,-0.1295,9.8807,-0.1302,-0.2919,0.4761
8200,831,638,34.484,33.599,-0.0316,-0.0093,9.7822,0.2085,0.2415,-0.3617
8205,842,638,34.635,33.669,-0.0546,0.0411,9.8614,-0.2491,0.9442,1.6727
8210,850,634,34.442,33.73,-0.0906,-0.0266,9.8985,0.2611,0.358,0.5956
8215,867,637,34.467,33.634,0.0663,-0.0241,9.8376,-0.0349,0.2879,1.1602
8220,874,636,34.526,33.737,0.0203,0.0056,9.8342,-0.4305,-0.0121,-0.7299
8225,886,628,34.428,33.682,-0.0169,0.029,9.7457,0.0634,0.0573,1.0112
8230,888,629,34.531,33.671,0.0276,0.0668,9.8693,-0.1049,0.8214,-0.3206
8235,898,628,34.481,33.6,0.016,-0.0082,9.9242,-0.0475,0.3932,-0.6209
8240,916,633,34.531,33.659,-0.0637,-0.0529,9.8442,-0.3372,0.2468,0.001
8245,925,629,34.432,33.578,-0.0236,-0.0092,9.8406,0.0664,-0.1072,0.5264
8250,938,626,34.559,33.617,-0.0381,0.0055,9.9143,0.3365,-0.3094,0.0615
8255,952,629,34.518,33.653,-0.018,-0.0258,9.8606,0.5407,0.2877,0.2878
8260,967,630,34.432,33.677,-0.0212,0.025,9.7829,0.7161,0.3445,0.4371
8265,974,639,34.447,33.731,0.0364,-0.0196,9.7798,-0.433,-0.2742,-0.2352
8270,986,635,34.487,33.661,0.03,-0.0173,9.8936,1.0687,0.4461,0.0172
8275,996,639,34.505,33.576,0.0308,-0.0077,9.7975,-0.3258,0.247,0.0631
8280,1017,644,34.55,33.642,0.019,-0.1024,9.7873,-0.0457,0.2645,0.1166
8285,1026,645,34.514,33.666,-0.0031,-0.0346,9.78,-0.3812,-0.7438,0.0649
8290,1028,653,34.552,33.628,-0.0403,0.0249,9.7928,0.1684,-0.448,-0.0851
8295,1051,650,34.464,33.641,-0.0067,0.089,9.8448,0.6126,-0.489,-0.4008
8300,1048,660,34.434,33.635,-0.0833,0.1231,9.7981,-1.163,0.7707,-0.7213
8305,1063,668,34.429,33.627,0.0094,-0.0189,9.8201,-0.2609,-0.7232,-0.4582
8310,1073,674,34.523,33.608,0.0706,-0.0527,9.7971,0.3566,0.1387,0.3965
8315,1092,676,34.477,33.676,-0.0153,-0.0392,9.8047,0.0267,0.1116,-0.1275
8320,1092,686,34.512,33.659,-0.0255,-0.1147,9.6829,-0.5139,-0.9006,-0.9077
8325,1100,686,34.558,33.676,0.0105,0.0497,9.7727,-0.579,-0.2409,-0.5465
8330,1104,701,34.558,33.506,0.0462,-0.005,9.8069,0.3795,0.126,-0.3297
8335,1115,703,34.432,33.615,0.0058,0.0429,9.7529,-0.46,0.0044,1.0029
8340,1137,711,34.464,33.671,-0.0079,-0.0639,9.7238,-0.1852,-0.1333,0.6495
8345,1125,719,34.544,33.686,0.0433,-0.0306,9.8167,-0.069,-0.4719,-0.216
8350,1140,723,34.545,33.719,0.1083,-0.0871,9.8062,0.2015,-1.2879,0.6342
8355,1146,727,34.477,33.628,0.0573,-0.0507,9.8646,0.3602,0.0488,1.3413
8360,1159,735,34.59,33.657,-0.0569,0.1096,9.8571,0.1938,0.218,-0.4935
8365,1165,744,34.599,33.623,0.027,0.0045,9.8713,0.1679,0.9963,0.0603
8370,1166,752,34.542,33.563,0.0083,-0.091,9.8258,-1.4986,-0.2111,0.7253
8375,1155,771,34.46,33.662,-0.0333,0.0141,9.7676,-0.6514,-0.4431,0.3198
8380,1178,771,34.496,33.676,-0.0082,0.0051,9.8371,0.5483,0.5301,0.4312
8385,1171,781,34.475,33.654,0.0995,0.0567,9.8345,0.7777,0.3803,0.4335
8390,1169,782,34.543,33.637,0.0051,-0.0068,9.8374,0.3781,-0.3148,0.9187
8395,1178,793,34.495,33.643,0.0536,0.0014,9.821,-0.0587,0.1131,-0.2593
8400,1185,799,34.5,33.55,-0.0283,-0.0171,9.8825,0.1813,0.4525,-0.1626
8405,1190,816,34.624,33.679,0.0046,0.0279,9.7921,0.2608,0.0007,0.4962
8410,1180,816,34.509,33.609,0.0043,-0.018,9.9737,-0.8392,-0.1172,0.1462
8415,1188,822,34.522,33.587,-0.0061,0.0089,9.7672,-0.5546,-0.374,-0.2987
8420,1185,832,34.459,33.641,-0.0334,0.0539,9.7669,-0.3038,0.4608,1.1543
8425,1190,839,34.497,33.656,-0.0749,-0.0284,9.7618,0.4057,-0.2573,0.0972
8430,1183,845,34.468,33.625,-0.025,-0.031,9.8723,-0.4431,0.3828,-0.0562
8435,1182,848,34.521,33.667,-0.0337,0.0455,9.8335,0.0336,-0.0481,0.0904
